time,seconds_elapsed,z,y,x
1757614638181294000,73.22029418945313,4.2159576416015625,-6.981012344360352,-1.1771348714828491
1757614638191249000,73.23024877929687,4.820030689239502,-8.09947681427002,-1.258479356765747
1757614638201203700,73.24020361328125,5.424530982971191,-8.808672904968262,-1.47979998588562
1757614638211159000,73.25015893554688,6.082047462463379,-9.179213523864746,-1.8781286478042605
1757614638221113900,73.26011376953124,6.970317840576172,-9.242995262145996,-2.5549464225769043
1757614638231069000,73.27006884765625,8.276021003723145,-8.957550048828125,-3.5684854984283447
1757614638241024000,73.28002392578125,9.203139305114746,-8.446422576904297,-4.103817939758301
1757614638250979000,73.28997900390625,7.531203269958496,-7.929229259490967,-3.37058424949646
1757614638260935000,73.29993481445312,4.380581378936768,-7.002826690673828,-2.400449752807617
1757614638270890000,73.30988989257813,2.8558967113494877,-5.2757673263549805,-2.2182440757751465
1757614638280844800,73.3198447265625,3.0169670581817627,-3.083930253982544,-2.440406084060669
1757614638290799900,73.3297998046875,3.686547040939331,-1.494659185409546,-2.4912989139556885
1757614638300755000,73.3397548828125,3.997832775115967,-0.8767698407173157,-2.3428680896759038
1757614638310710000,73.3497099609375,3.676374673843384,-0.3907368779182434,-2.326833486557007
1757614638320664800,73.35966479492187,2.7070653438568115,0.2680785655975342,-2.473785161972046
1757614638330620000,73.36961987304687,1.633101463317871,0.5770931243896484,-2.351280927658081
1757614638340575000,73.37957495117188,1.0977994203567505,0.2149732410907745,-2.004131555557251
1757614638350529800,73.38952978515626,0.968957245349884,-0.5317056179046631,-1.7578680515289309
1757614638360484900,73.39948486328124,0.9453895688056946,-1.2105181217193604,-1.6005876064300537
1757614638370440000,73.40943994140625,0.8638389706611633,-1.709281325340271,-1.437208890914917
1757614638380395800,73.41939575195312,0.6801831126213074,-2.098394632339477,-1.2486789226531982
1757614638390350800,73.42935083007812,0.4316020905971527,-2.4703683853149414,-1.0432100296020508
1757614638400306000,73.43930590820312,0.1742145121097564,-2.840934991836548,-0.8299950361251831
1757614638410261000,73.44926098632813,-0.0538015775382518,-3.1905884742736816,-0.6111375093460083
1757614638420215800,73.4592158203125,-0.2370124012231826,-3.506272077560425,-0.4072369039058685
1757614638430171100,73.46917114257812,-0.375380277633667,-3.786922216415405,-0.2133362889289856
1757614638440126000,73.4791259765625,-0.4827400147914886,-4.042552947998047,-0.0285914819687604
1757614638450080800,73.48908081054688,-0.5858908295631409,-4.313379287719727,0.1425286084413528
1757614638460036000,73.4990361328125,-0.7337881922721863,-4.538605690002441,0.3198213875293731
1757614638469991000,73.50899096679687,-0.948291540145874,-4.61348295211792,0.5645654797554016
1757614638479946000,73.51894604492188,-1.210201859474182,-4.577799320220947,0.8485564589500427
1757614638489900800,73.52890087890626,-1.4698665142059326,-4.339558124542236,1.0935344696044922
1757614638499857000,73.53885693359375,-1.6588047742843628,-3.909184217453003,1.2785911560058594
1757614638509812000,73.54881201171875,-1.7432150840759275,-3.29671311378479,1.3885977268218994
1757614638519767000,73.55876708984376,-1.7280508279800415,-2.578005790710449,1.391452074050903
1757614638529721900,73.56872192382812,-1.6991344690322876,-1.9327913522720337,1.2291812896728516
1757614638539677000,73.57867700195312,-1.7811076641082764,-1.4341706037521362,0.8841780424118042
1757614638549631700,73.5886318359375,-2.0581860542297363,-1.1134413480758667,0.484719306230545
1757614638559587000,73.59858715820313,-2.550276756286621,-1.0915216207504272,0.2228192538022995
1757614638569542000,73.6085419921875,-3.164880990982056,-1.2427138090133667,0.2023216038942337
1757614638579497000,73.6184970703125,-3.725275278091431,-1.159430980682373,0.1945952475070953
1757614638589452000,73.6284521484375,-4.087515830993652,-0.7771357297897339,-0.0066491398029029
1757614638599406800,73.63840673828125,-4.279170513153076,-0.1912701576948166,-0.4968159198760986
1757614638609362000,73.64836181640625,-4.40053129196167,0.3139410316944122,-1.1324656009674072
1757614638619318000,73.65831811523438,-4.525014877319336,0.6641080975532532,-1.5124046802520752
1757614638629272800,73.66827294921875,-4.792112350463867,1.432809352874756,-1.6507620811462402
1757614638639228000,73.67822778320313,-5.188060760498047,2.819984197616577,-1.5884156227111816
1757614638649183000,73.68818286132813,-5.534813404083252,4.091209411621094,-1.1902976036071775
1757614638659138000,73.69813793945312,-5.540789604187012,4.940013885498047,-0.8378136157989502
1757614638669092900,73.7080927734375,-5.140442848205566,5.6280951499938965,-0.8278611302375793
1757614638679048000,73.7180478515625,-4.488831043243408,6.064327239990234,-0.9960485696792604
1757614638689003000,73.7280029296875,-3.806619644165039,6.204447269439697,-0.9877972602844238
1757614638698957800,73.73795776367187,-3.2021374702453613,6.252192497253418,-0.6962770223617554
1757614638708913000,73.74791284179688,-2.698401927947998,6.284848690032959,-0.2636040449142456
1757614638718868000,73.75786791992188,-2.417685508728028,6.257319450378418,0.1925403326749801
1757614638728823800,73.76782373046875,-2.399266242980957,6.146822452545166,0.5390307903289795
1757614638738779000,73.77777880859375,-2.585423231124878,5.941632270812988,0.7110331654548645
1757614638748734000,73.78773388671875,-2.8594753742218018,5.601983070373535,0.7011430859565735
1757614638758689000,73.79768896484374,-3.0805981159210205,5.150868892669678,0.5468084216117859
1757614638768643800,73.80764379882812,-3.1362900733947754,4.689107418060303,0.3213166892528534
1757614638778599000,73.81759887695313,-2.995966911315918,4.2971673011779785,0.074347123503685
1757614638788554000,73.82755395507813,-2.716918468475342,4.000136852264404,-0.1681572049856186
1757614638798508800,73.8375087890625,-2.3610196113586426,3.8120481967926025,-0.3926275968551636
1757614638808464000,73.8474638671875,-1.99398672580719,3.715787172317505,-0.5926251411437988
1757614638818419000,73.8574189453125,-1.685197114944458,3.704569816589356,-0.7651715874671936
1757614638828374000,73.8673740234375,-1.4710482358932495,3.7350378036499023,-0.8968742489814758
1757614638838328800,73.87732885742187,-1.3662030696868896,3.7848849296569824,-0.9769839644432068
1757614638848285000,73.88728491210938,-1.3463733196258545,3.809853792190552,-1.005439281463623
1757614638858240000,73.89723999023437,-1.378087878227234,3.797230005264282,-0.9937399625778198
1757614638868194800,73.90719482421875,-1.41707181930542,3.7585415840148926,-0.9619112014770508
1757614638878150000,73.91714990234375,-1.3976563215255735,3.724540948867798,-0.9352412223815918
1757614638888105000,73.92710498046876,-1.2517153024673462,3.7063357830047607,-0.9461634159088136
1757614638898059800,73.93705981445312,-0.9332380294799804,3.67453670501709,-1.023687481880188
1757614638908015000,73.94701513671875,-0.4532806277275085,3.5568554401397705,-1.1771690845489502
1757614638917970000,73.95696997070313,0.1329849958419799,3.2498209476470947,-1.3414921760559082
1757614638927925000,73.96692504882813,0.7135512828826904,2.8009579181671143,-1.4442687034606934
1757614638937880000,73.97688012695312,1.167344093322754,2.3237438201904297,-1.4100936651229858
1757614638947835000,73.9868349609375,1.441280722618103,1.7474759817123413,-1.2380883693695068
1757614638957790000,73.9967900390625,1.5632948875427246,0.876599907875061,-1.0080796480178833
1757614638967746000,74.00674609375,1.5979673862457275,-0.3827806413173675,-0.8012090921401978
1757614638977700900,74.01670092773438,1.6462070941925049,-1.9394919872283936,-0.6870611906051636
1757614638987656000,74.02665600585938,1.8566852807998655,-3.5368807315826416,-0.6318104267120361
1757614638997611000,74.03661108398437,2.259826898574829,-4.856960296630859,-0.5968284606933594
1757614639007566000,74.04656616210937,2.7928006649017334,-5.852781295776367,-0.6153548359870911
1757614639017521000,74.05652099609375,3.4263741970062256,-6.741884708404541,-0.8019380569458008
1757614639027475700,74.06647583007812,4.232388496398926,-7.748057842254639,-1.304355263710022
1757614639037431000,74.07643115234374,5.345940113067627,-8.850043296813965,-2.1326024532318115
1757614639047385900,74.0863857421875,6.684950828552246,-9.292258262634276,-2.72737979888916
1757614639057341000,74.0963408203125,7.793144226074219,-9.257587432861328,-2.592515468597412
1757614639067296000,74.1062958984375,7.635221481323242,-8.932966232299805,-2.1670000553131104
1757614639077251000,74.1162509765625,6.397937774658203,-8.513758659362793,-1.789941906929016
1757614639087207000,74.12620703125,4.765402317047119,-7.529006481170654,-1.57722270488739
1757614639097162000,74.13616186523437,3.555065631866455,-5.612271785736084,-1.45095956325531
1757614639107117000,74.14611694335937,3.1010069847106934,-3.4783661365509038,-1.3362224102020264
1757614639117072000,74.15607177734375,2.919903039932251,-2.1282098293304443,-1.1835076808929443
1757614639127027000,74.16602685546874,2.7170193195343018,-1.5709530115127563,-0.967505156993866
1757614639136982000,74.17598193359375,2.463972330093384,-1.146672010421753,-0.7639536261558533
1757614639146936800,74.18593676757813,2.0966076850891118,-0.5999665260314941,-0.588577151298523
1757614639156892000,74.19589184570313,1.647097110748291,-0.1553470194339752,-0.4125270545482635
1757614639166847000,74.20584692382812,1.1989970207214355,-0.0098181283101439,-0.2617549896240234
1757614639176801800,74.2158017578125,0.7918010354042053,-0.1413910686969757,-0.1733644008636474
1757614639186756900,74.2257568359375,0.4450215101242065,-0.4053096771240234,-0.1499255746603012
1757614639196712000,74.2357119140625,0.1637496352195739,-0.7374202013015747,-0.1765776872634887
1757614639206667800,74.24566772460938,-0.0567972846329212,-1.1027854681015017,-0.2325728088617324
1757614639216622800,74.25562280273438,-0.224271759390831,-1.4810446500778198,-0.3033353686332702
1757614639226578000,74.26557788085937,-0.3524747788906097,-1.8726285696029663,-0.3707313537597656
1757614639236533000,74.27553295898437,-0.4456936717033386,-2.263998746871948,-0.4168154895305633
1757614639246487800,74.28548779296875,-0.503334641456604,-2.6081783771514893,-0.4083093702793121
1757614639256443100,74.29544311523438,-0.5252534747123718,-2.855696201324463,-0.3488346040248871
1757614639266398000,74.30539794921874,-0.5216954946517944,-2.9937613010406494,-0.2611400187015533
1757614639276352800,74.31535278320312,-0.5132269263267517,-3.037222623825073,-0.1687027513980865
1757614639286307800,74.32530786132813,-0.5041208863258362,-3.084055185317993,-0.0739020705223083
1757614639296263000,74.33526293945313,-0.5046404600143433,-3.196777582168579,0.0464648194611072
1757614639306218000,74.34521801757812,-0.5265508890151978,-3.3158955574035645,0.2458793371915817
1757614639316172800,74.3551728515625,-0.5423160195350647,-3.368760585784912,0.525312066078186
1757614639326129000,74.36512890625,-0.5085260272026062,-3.2887721061706543,0.8179697394371033
1757614639336084000,74.375083984375,-0.3989377617835998,-3.077803134918213,0.9990540146827698
1757614639346038800,74.38503881835938,-0.2561980783939361,-2.8266115188598637,0.9894965291023254
1757614639355994000,74.394994140625,-0.1941355019807815,-2.7496979236602783,0.8151519298553467
1757614639365949000,74.40494897460937,-0.3575964868068695,-2.8215651512146,0.5928122997283936
1757614639375903700,74.41490380859375,-0.7327589392662048,-2.6471760272979736,0.3685353100299835
1757614639385859000,74.42485913085937,-1.1950305700302124,-1.8423489332199097,0.0735631734132766
1757614639395814000,74.43481396484376,-1.6886935234069824,-0.4912551939487457,-0.2538634240627289
1757614639405769000,74.44476904296874,-2.2124428749084477,0.8663457036018372,-0.5094562768936157
1757614639415724000,74.45472412109375,-2.746604681015014,1.928272366523743,-0.7016968131065369
1757614639425678800,74.46467895507813,-3.128502130508423,2.6998980045318604,-0.8187254667282104
1757614639435635000,74.47463500976562,-3.2779908180236816,3.389106273651123,-0.8309128880500793
1757614639445590000,74.48459008789062,-3.415351867675781,4.185101509094238,-0.7591941952705383
1757614639455544800,74.494544921875,-3.656641006469727,5.038509368896484,-0.5540434122085571
1757614639465500000,74.5045,-3.802621603012085,5.476729869842529,-0.3268524706363678
1757614639475455000,74.514455078125,-3.723667144775391,5.382426738739014,-0.2813385128974914
1757614639485410000,74.52441015625,-3.4406673908233643,4.95349645614624,-0.4792910516262054
1757614639495364900,74.53436474609374,-2.998511791229248,4.434959888458252,-0.7972314953804016
1757614639505320000,74.54431982421875,-2.4913477897644043,4.041497230529785,-1.0003188848495483
1757614639515275000,74.55427490234375,-2.038726091384888,3.866542339324951,-1.0295699834823608
1757614639525229800,74.56422973632813,-1.7278636693954468,3.8559916019439697,-0.9355288147926332
1757614639535185000,74.57418481445312,-1.576827883720398,3.8985116481781006,-0.7747370004653931
1757614639545141000,74.58414111328125,-1.570922613143921,3.911139965057373,-0.633966863155365
1757614639555095800,74.594095703125,-1.663116455078125,3.913515090942383,-0.5489686131477356
1757614639565051000,74.60405078125,-1.7961959838867188,3.908721923828125,-0.528512716293335
1757614639575006000,74.614005859375,-1.927340149879456,3.8716578483581534,-0.5539485812187195
1757614639584961000,74.6239609375,-2.002593755722046,3.8151161670684814,-0.5939715504646301
1757614639594915800,74.63391577148437,-1.9856826066970823,3.751866579055786,-0.6326848864555359
1757614639604871000,74.64387084960937,-1.8975369930267332,3.718721866607666,-0.658883810043335
1757614639614826000,74.65382592773437,-1.77010178565979,3.770512104034424,-0.6622865796089172
1757614639624780800,74.66378076171875,-1.6504350900650024,3.875522136688232,-0.6288910508155823
1757614639634735900,74.67373583984374,-1.562457799911499,4.00074577331543,-0.5582091808319092
1757614639644691000,74.68369091796875,-1.5196892023086548,4.145596981048584,-0.4533392190933227
1757614639654646000,74.69364599609375,-1.5226197242736816,4.3085036277771,-0.3176578283309936
1757614639664602000,74.70360205078126,-1.5681421756744385,4.4850287437438965,-0.1735251545906067
1757614639674557000,74.71355688476562,-1.6513813734054563,4.661616325378418,-0.0349723324179649
1757614639684512000,74.72351196289063,-1.741051197052002,4.820899486541748,0.0898769125342369
1757614639694466800,74.733466796875,-1.808871507644653,4.966153621673584,0.190519094467163
1757614639704422000,74.743421875,-1.8410931825637815,5.105055332183838,0.2585203051567077
1757614639714377000,74.753376953125,-1.8239314556121824,5.211170673370361,0.2638727128505707
1757614639724331800,74.76333178710938,-1.7207099199295044,5.253004550933838,0.1785466074943542
1757614639734287000,74.773287109375,-1.5116995573043823,5.234188556671143,-0.0220131259411573
1757614639744242000,74.78324194335937,-1.164018630981445,5.1795654296875,-0.3366374969482422
1757614639754197000,74.79319702148437,-0.6657262444496155,4.974656105041504,-0.6964210271835327
1757614639764151800,74.80315185546876,-0.0547261983156204,4.364991664886475,-1.0235599279403689
1757614639774107000,74.81310693359374,0.6436978578567505,3.2177717685699463,-1.2272608280181885
1757614639784063000,74.82306298828125,1.362801432609558,1.589889645576477,-1.268213987350464
1757614639794018000,74.83301806640625,2.007798910140991,-0.2944639921188354,-1.2026057243347168
1757614639803972900,74.84297290039062,2.592257261276245,-2.188509941101074,-1.1245173215866089
1757614639813928000,74.85292797851562,3.145605564117432,-3.830611228942871,-1.122883439064026
1757614639823882800,74.8628828125,3.690493106842041,-5.04762077331543,-1.2692108154296875
1757614639833838000,74.87283813476563,4.296126842498779,-5.935521602630615,-1.6203196048736572
1757614639843793000,74.88279296875,5.127502918243408,-6.76813268661499,-2.345619440078736
1757614639853748000,74.892748046875,6.500847339630127,-7.650886535644531,-3.5456387996673584
1757614639863703000,74.902703125,7.787369728088379,-8.05795955657959,-4.295957565307617
1757614639873657900,74.91265795898437,6.9259467124938965,-8.18090534210205,-3.7886805534362793
1757614639883613000,74.92261303710937,4.176243782043457,-8.10859489440918,-2.989102602005005
1757614639893568000,74.93256811523437,2.60687255859375,-7.482644081115723,-2.652055501937866
1757614639903523800,74.94252392578124,2.5135178565979004,-6.367134094238281,-2.6922848224639893
1757614639913479000,74.95247900390625,3.122051954269409,-5.33567476272583,-2.5525779724121094
1757614639923434000,74.96243408203125,3.61405348777771,-4.778163433074951,-2.2324111461639404
1757614639933389000,74.97238916015625,3.512937307357788,-4.4982733726501465,-2.0573630332946777
1757614639943343900,74.98234375,2.9816009998321533,-4.060143947601318,-1.9896502494812007
1757614639953299000,74.992298828125,2.4471914768218994,-3.4447360038757324,-1.869104623794556
1757614639963254000,75.00225390625,2.157219171524048,-2.9488649368286133,-1.6312673091888428
1757614639973208800,75.01220874023437,2.0092461109161377,-2.616376638412476,-1.3427157402038574
1757614639983164000,75.02216381835937,1.8721429109573364,-2.36636734008789,-1.0758706331253052
1757614639993119000,75.03211889648438,1.70817768573761,-2.1951653957366943,-0.8506260514259338
1757614640003074000,75.04207397460938,1.516183853149414,-2.132974863052368,-0.6707809567451477
1757614640013028900,75.05202880859375,1.2894121408462524,-2.1944799423217773,-0.5364396572113037
1757614640022985000,75.06198486328125,1.0170414447784424,-2.34665846824646,-0.4255211949348449
1757614640032940000,75.07193994140626,0.7141860127449036,-2.5320863723754883,-0.3207111656665802
1757614640042894800,75.08189477539062,0.4090034067630768,-2.701153039932251,-0.2176772058010101
1757614640052850000,75.09184985351563,0.1214240491390228,-2.862415075302124,-0.1156058683991432
1757614640062805000,75.10180493164063,-0.1373627632856369,-3.0303423404693604,-0.0078469151630997
1757614640072759800,75.111759765625,-0.368078738451004,-3.204164505004883,0.1186635568737983
1757614640082715100,75.12171508789062,-0.5805162787437439,-3.387781858444214,0.2858376204967499
1757614640092670000,75.131669921875,-0.7757784724235535,-3.5930771827697754,0.4951977431774139
1757614640102624800,75.14162475585937,-0.959954559803009,-3.704627990722656,0.7621862888336182
1757614640112579800,75.15157983398437,-1.1255345344543457,-3.586019992828369,1.0834120512008667
1757614640122535000,75.16153491210937,-1.2262589931488037,-3.185198307037353,1.4222553968429563
1757614640132490000,75.17148999023438,-1.2326524257659912,-2.6076481342315674,1.7260773181915283
1757614640142446000,75.18144604492187,-1.0918772220611572,-1.990935206413269,1.9290051460266116
1757614640152401000,75.19140087890625,-0.8631302714347839,-1.6391634941101074,1.9721574783325195
1757614640162356000,75.20135595703125,-0.7314441800117493,-1.6094458103179932,1.8058689832687376
1757614640172310500,75.211310546875,-0.8463854193687439,-1.6156721115112305,1.4298303127288818
1757614640182265900,75.22126586914062,-1.2548418045043943,-1.325779676437378,1.0287344455718994
1757614640192220700,75.231220703125,-1.873976230621338,-0.695719301700592,0.8239096999168396
1757614640202175700,75.24117578125,-2.5342893600463867,0.1690136194229126,0.8233124613761902
1757614640212130800,75.251130859375,-3.0720765590667725,1.1187554597854614,0.8715732097625732
1757614640222085600,75.26108569335938,-3.444036960601806,1.9415526390075684,0.7606068253517151
1757614640232040700,75.27104077148438,-3.657361745834351,2.543487787246704,0.3288484513759613
1757614640241995500,75.28099560546875,-3.655360460281372,2.964439630508423,-0.1666555553674698
1757614640251951600,75.29095166015625,-3.4280357360839844,3.270372152328491,-0.3477435708045959
1757614640261906700,75.30090673828126,-3.202186107635498,3.6765060424804688,-0.3525569438934326
1757614640271861800,75.31086181640624,-3.3408219814300537,4.318058490753174,-0.3484603762626648
1757614640281816800,75.32081689453125,-3.6954867839813232,4.899630546569824,-0.3407819271087646
1757614640291771600,75.33077172851563,-3.9088964462280273,5.006280899047852,-0.432184636592865
1757614640301726500,75.3407265625,-3.88517951965332,4.713234901428223,-0.7793359160423279
1757614640311681800,75.35068188476562,-3.680707454681397,4.344397068023682,-1.1912164688110352
1757614640321636600,75.36063671875,-3.3320682048797607,4.214206218719482,-1.3578954935073853
1757614640331591700,75.370591796875,-2.9344794750213623,4.382142543792725,-1.245362639427185
1757614640341546800,75.38054663085937,-2.6132164001464844,4.70604133605957,-0.979981005191803
1757614640351501800,75.39050170898437,-2.499704360961914,5.071528434753418,-0.678268313407898
1757614640361456600,75.40045654296875,-2.6291301250457764,5.379511833190918,-0.4060620665550232
1757614640371412700,75.41041284179687,-2.920175075531006,5.518319129943848,-0.2197172343730926
1757614640381367800,75.42036791992187,-3.2544736862182617,5.419506549835205,-0.1554596871137619
1757614640391322600,75.43032250976563,-3.485420227050781,5.105387210845947,-0.2007553428411483
1757614640401277700,75.44027758789062,-3.510611295700073,4.704367637634277,-0.3047709763050079
1757614640411232800,75.45023266601562,-3.369783401489258,4.364388942718506,-0.4021131694316864
1757614640421187600,75.4601875,-3.147324800491333,4.130636692047119,-0.4536738395690918
1757614640431142700,75.470142578125,-2.9073598384857178,3.95495867729187,-0.4525365233421325
1757614640441097700,75.48009765625,-2.69746208190918,3.785221099853516,-0.4096939861774444
1757614640451052500,75.49005249023438,-2.549731492996216,3.597685575485229,-0.3416352272033691
1757614640461007600,75.50000756835938,-2.501866102218628,3.354339122772217,-0.2437051683664322
1757614640470962700,75.50996264648437,-2.581587314605713,3.0605032444000244,-0.1189721077680587
1757614640480917800,75.51991772460937,-2.7718820571899414,2.806770801544189,-0.0428389869630336
1757614640490873600,75.52987353515626,-3.0075907707214355,2.7197115421295166,-0.1017948687076568
1757614640500828700,75.53982861328124,-3.2081961631774902,2.803281307220459,-0.27302947640419
1757614640510783700,75.54978369140625,-3.279981851577759,2.98183822631836,-0.502797544002533
1757614640520738600,75.55973852539063,-3.0995943546295166,3.0904109477996826,-0.7549738883972168
1757614640530694000,75.56969384765625,-2.5020437240600586,3.018510341644287,-1.0078636407852173
1757614640540648700,75.57964868164062,-1.4214428663253784,2.614530086517334,-1.2397373914718628
1757614640550603500,75.589603515625,0.0670630633831024,1.7307085990905762,-1.395779728889465
1757614640560558800,75.59955883789063,1.7078341245651243,0.2955625355243683,-1.4558875560760498
1757614640570513700,75.609513671875,3.0608012676239014,-1.483587384223938,-1.4757100343704224
1757614640580468700,75.61946875,3.964195966720581,-3.1950719356536865,-1.4886436462402344
1757614640590423600,75.62942358398438,4.50067138671875,-4.638347625732422,-1.5363916158676147
1757614640600378600,75.63937866210938,4.777063369750977,-5.746676921844482,-1.6072702407836914
1757614640610334700,75.64933471679687,4.897088050842285,-6.507670402526856,-1.6651735305786133
1757614640620289500,75.65928955078125,4.968781471252441,-6.926927089691162,-1.708329439163208
1757614640630244600,75.66924462890626,5.111762523651123,-7.0689849853515625,-1.7983068227767944
1757614640640199700,75.67919970703124,5.450068473815918,-7.09589433670044,-2.0584511756896973
1757614640650154500,75.68915454101563,6.098147869110107,-7.087411403656006,-2.4887402057647705
1757614640660109800,75.69910986328125,6.96675443649292,-6.973389148712158,-2.8883657455444336
1757614640670064600,75.70906469726563,7.388830661773682,-6.751962184906006,-2.7857859134674072
1757614640680019700,75.71901977539062,6.777919769287109,-6.276519298553467,-2.36773681640625
1757614640689974800,75.72897485351562,5.715489387512207,-5.145628929138184,-2.1183407306671143
1757614640699929600,75.7389296875,4.939105033874512,-3.5693533420562744,-2.0990726947784424
1757614640709884700,75.748884765625,4.590013027191162,-2.053993225097656,-2.2454276084899902
1757614640719839500,75.75883959960937,4.550558090209961,-1.0844593048095703,-2.5300076007843018
1757614640729795600,75.76879565429688,4.702193737030029,-0.6911334991455078,-2.877855062484741
1757614640739750700,75.77875073242187,4.843132495880127,-0.5766040086746216,-3.211616277694702
1757614640749705700,75.78870581054687,4.79355001449585,-0.5706017017364502,-3.395536422729492
1757614640759660800,75.79866088867188,4.312461853027344,-0.5648801326751709,-3.3967626094818115
1757614640769615600,75.80861572265626,3.256027936935425,-0.8194007873535156,-3.222207307815552
1757614640779570700,75.81857080078125,2.153165578842163,-1.5188387632369995,-2.8237664699554443
1757614640789525800,75.82852587890625,1.4177770614624023,-2.456824541091919,-2.409721612930298
1757614640799480600,75.83848046875,0.8018590211868286,-3.377047538757324,-2.0563313961029053
1757614640809435600,75.848435546875,0.2206696569919586,-4.183178901672363,-1.746912121772766
1757614640819390700,75.858390625,-0.3093148469924927,-4.816311836242676,-1.4338040351867676
1757614640829345800,75.868345703125,-0.7892392873764038,-5.221672058105469,-1.0976858139038086
1757614640839300600,75.87830053710937,-1.2127796411514282,-5.4572434425354,-0.7517573833465576
1757614640849256700,75.88825659179687,-1.5382159948349,-5.585569858551025,-0.3974694013595581
1757614640859211800,75.89821166992188,-1.7564152479171753,-5.599206447601318,-0.085025206208229
1757614640869166600,75.90816650390624,-1.8740825653076167,-5.528149604797363,0.1594233959913253
1757614640879121700,75.91812158203125,-1.9384924173355105,-5.374351501464844,0.3459037840366363
1757614640889076700,75.92807666015625,-1.9726301431655884,-5.138131618499756,0.4716942310333252
1757614640899031600,75.93803149414063,-1.9774130582809448,-4.852670192718506,0.5497598648071289
1757614640908986600,75.94798657226562,-1.9450033903121948,-4.545602321624756,0.6157149076461792
1757614640918941700,75.95794165039062,-1.8889201879501345,-4.214998245239258,0.6800457239151001
1757614640928896800,75.96789672851563,-1.8477567434310915,-3.9274420738220215,0.7303382754325867
1757614640938851600,75.9778515625,-1.8068006038665767,-3.586649179458618,0.6730067729949951
1757614640948806700,75.987806640625,-1.7584760189056396,-2.75752854347229,0.565386950969696
1757614640958761700,75.99776171875,-1.756800413131714,-1.5884122848510742,0.4923838675022125
1757614640968717600,76.00771752929687,-1.8823416233062744,-0.3007971048355102,0.4965457022190094
1757614640978672600,76.01767260742187,-2.156302690505981,1.067729949951172,0.5150290727615356
1757614640988627700,76.02762768554688,-2.564583778381348,2.4629335403442383,0.5398478507995605
1757614640998582500,76.03758251953126,-3.0809454917907715,3.689482927322388,0.6691792011260986
1757614641008537900,76.04753784179688,-3.5493388175964355,4.649650096893311,0.8919214606285095
1757614641018492700,76.05749267578125,-3.847097635269165,5.352899551391602,1.0721783638000488
1757614641028447700,76.06744775390625,-3.9236457347869873,5.807595252990723,1.1196502447128296
1757614641038402800,76.07740283203125,-3.789016962051392,6.115411281585693,1.0116428136825562
1757614641048357600,76.08735766601562,-3.4869680404663086,6.424378395080566,0.9696671366691588
1757614641058312700,76.09731274414062,-3.1778252124786377,6.769348621368408,1.151916742324829
1757614641068267500,76.107267578125,-3.174393892288208,7.091516971588135,1.4335955381393433
1757614641078222800,76.11722290039063,-3.64620852470398,7.44172477722168,1.841721534729004
1757614641088178700,76.1271787109375,-4.204524040222168,7.652956008911133,2.235098600387573
1757614641098133500,76.13713354492188,-4.648476600646973,7.273661136627197,2.2393627166748047
1757614641108088800,76.1470888671875,-4.426103115081787,6.287163257598877,2.1197454929351807
1757614641118043600,76.15704370117187,-3.6745758056640634,5.016726493835449,2.016223192214966
1757614641127998500,76.16699853515625,-2.817275285720825,3.7831201553344727,1.8773175477981567
1757614641137953800,76.17695385742188,-2.10182785987854,2.7830867767333984,1.646790862083435
1757614641147908600,76.18690869140624,-1.7186894416809082,2.0888993740081787,1.367823839187622
1757614641157863700,76.19686376953125,-1.6558820009231567,1.6266549825668335,1.1048341989517212
1757614641167820300,76.2068203125,-1.7596317529678345,1.3368818759918213,0.8546631336212158
