time,seconds_elapsed,z,y,x
1759584139063672800,0.0376728515625,0.05142798942029476,-0.23238018437623975,0.03011880554035306
1759584139073656800,0.04765673828125,0.13576280766427515,-0.35738895831406114,0.029379093088954686
1759584139083640800,0.057640869140625,0.22992577696144578,-0.4896849666506052,-0.011103431686013937
1759584139093625900,0.0676259765625,0.2738216173112392,-0.4390928435325622,-0.006596621786057948
1759584139103609900,0.07760986328125,0.17335574847757815,-0.2883972551524639,-0.054657180599868294
1759584139113595000,0.087594970703125,0.06480535738766192,-0.18341537019908427,-0.136046593041718
1759584139123579000,0.097578857421875,-0.0013069909453392028,-0.008078677037358284,-0.22793211892619727
1759584139133563000,0.10756298828125,-0.08170680782794952,0.06484919652938842,-0.3544764318682253
1759584139143547600,0.117547607421875,-0.02398936287462711,0.06259235751330852,-0.18908786287754772
1759584139153532000,0.127531982421875,0.018772212748229503,0.0718172819763422,0.08368979833871126
1759584139163516700,0.1375166015625,0.0033522330373525616,0.010737667113542557,0.22930647601932286
1759584139173500700,0.147500732421875,0.006303191797435283,0.012525719574093819,0.1482224762648344
1759584139183485700,0.157485595703125,0.006264028830826282,-0.09882511588931082,-0.034390053118765355
1759584139193469700,0.1674697265625,0.0793938547104597,-0.15725158589482308,-0.12649258275479078
1759584139203453700,0.17745361328125,0.022810674484074114,-0.24839900676310062,-0.10817834290713071
1759584139213438700,0.187438720703125,-0.16646218957155942,-0.29921207915544507,-0.037933570944517846
1759584139223422700,0.197422607421875,-0.22695582123994826,-0.2355681667625904,0.1336297411583364
1759584139233406700,0.20740673828125,-0.14164748178869485,-0.13773264643251895,0.15565613339692352
1759584139243391700,0.217391845703125,-0.03143208009600639,-0.06840016700923443,0.05113718978017568
1759584139253375700,0.227375732421875,-0.04876783030033111,-0.06284311740398407,-0.01720160243064165
1759584139263360800,0.23736083984375,-0.14559855750203132,0.13974047912359236,0.015021043521165846
1759584139273344800,0.2473447265625,-0.16547551662176846,0.4046399543106556,0.25140900223404167
1759584139283328800,0.257328857421875,-0.11770137353390454,0.5638268921822309,0.5085369666367769
1759584139293313800,0.267313720703125,-0.19633447300493717,0.4777887771517038,0.45316710772290825
1759584139303297800,0.2772978515625,-0.2867547486424446,-0.011923662027716636,0.06036109132990241
1759584139313282800,0.28728271484375,-0.36676644299030303,-0.2609317405998707,-0.02511485977321863
1759584139323266800,0.297266845703125,-0.4307093383297324,-0.1899105774372816,-0.029645196679234504
1759584139333250800,0.307250732421875,-0.32412937052994967,-0.10915478672385215,-0.017901567393541335
1759584139343235800,0.31723583984375,-0.3010904402479529,-0.07471241889595985,0.05647884306907654
1759584139353219800,0.3272197265625,-0.26893004587739705,-0.12407295439243315,0.08387874503955245
1759584139363204600,0.33720458984375,-0.2331932543247938,-0.16773966216146946,0.09145867877453565
1759584139373188600,0.347188720703125,-0.24652999802082776,-0.10317746587991714,0.28008418483734127
1759584139383172900,0.3571728515625,-0.3018856822788715,-0.048205520242452615,0.4663379933327436
1759584139393157600,0.36715771484375,-0.28274609752297397,0.03163607823550701,0.5214040469944476
1759584139403141600,0.3771416015625,-0.30670740334689617,-0.07107260108888148,0.4100814147122204
1759584139413126700,0.387126708984375,-0.29209435610473156,-0.2197697091281414,0.24942089715674517
1759584139423110700,0.397110595703125,-0.3183274062529206,-0.02177402491271496,0.1429353296421468
1759584139433094700,0.4070947265625,-0.2559714878439903,0.1592944898992777,0.1159215043798089
1759584139443079700,0.41707958984375,-0.13958821117132902,0.24335049120187757,0.16745631517544388
1759584139453063700,0.427063720703125,-0.10384878927022217,0.26014848126769063,0.2037088011652231
1759584139463048700,0.437048583984375,-0.08725918125808238,0.18070201958715915,0.18005948389992116
1759584139473032700,0.44703271484375,-0.10882190150767564,0.10306816028654575,0.14223624146208166
1759584139483016700,0.4570166015625,-0.07322159581631421,0.012788169902563094,0.10048281996846198
1759584139493001700,0.467001708984375,-0.012704583272337913,0.014475100076198576,0.08569149354994296
1759584139502985700,0.47698583984375,-0.007874094375967979,0.09176526050567627,-0.08377937631830573
1759584139512970800,0.486970703125,0.013105273027718066,0.08601531867682934,-0.17238003531321883
1759584139522954800,0.496954833984375,-0.04617401441484689,-0.0006739537388086318,-0.17082754517421125
1759584139532938800,0.506938720703125,-0.17427403236627578,-0.025241408762335774,-0.1453546657435596
1759584139542923800,0.516923828125,-0.038538989491760725,-0.13232932608425615,-0.0338705592893064
1759584139552907800,0.52690771484375,0.006502221500873566,-0.11217384228408336,0.19089900395274162
1759584139562892800,0.536892822265625,0.08549830906540155,0.019959084445238112,0.22676351353824137
1759584139572876800,0.546876708984375,0.11830781499445438,0.076047466892004,0.1308382107436657
1759584139582860800,0.55686083984375,0.14254881454259155,0.01647884111404419,0.03195230457782745
1759584139592845600,0.566845458984375,0.20510522395968436,-0.07542728916704654,-0.01864610215052962
1759584139602829600,0.57682958984375,0.19166297406256197,-0.11660218012034892,0.014568331317603588
1759584139612815400,0.5868154296875,0.06414367860853672,-0.08340133678615093,-0.1310099140487611
1759584139622799400,0.59679931640625,-0.012789338946342467,-0.04705693472921848,-0.34134865474775433
1759584139632783400,0.606783447265625,0.02112988179028034,-0.10014788892567157,-0.26037717545703054
1759584139642768400,0.616768310546875,0.052875850141048425,-0.12347615754306315,-0.09414879464134573
1759584139652752400,0.62675244140625,0.0764423114284873,-0.06281681391894817,0.05683890855312347
1759584139662737400,0.6367373046875,0.14140110581219195,-0.0024339491486549377,0.22976605635508893
1759584139672721400,0.646721435546875,0.19319442141354082,0.09513678276538848,0.4243620151296258
1759584139682705400,0.656705322265625,0.14950024111568927,0.1144073004245758,0.4802003683380782
1759584139692690400,0.6666904296875,0.039781390768289564,0.01248597208559513,0.36224005160704253
1759584139702674400,0.67667431640625,-0.04897445878833532,-0.04919511580169201,0.1720363364420831
1759584139712659500,0.686659423828125,-0.03098112145811319,-0.11032792215645312,0.010653203700482845
1759584139722643500,0.6966435546875,0.059497898629307745,-0.1322276192754507,-0.07050093868076801
1759584139732627500,0.70662744140625,0.06524550237059593,-0.07262041505277156,-0.12569018033072352
1759584139742612500,0.716612548828125,0.07673749498277903,0.01321662444770336,-0.27104090055152774
1759584139752596500,0.726596435546875,0.06779694041907787,0.025301614516973495,-0.29650077437013383
1759584139762581500,0.73658154296875,-0.0615282354131341,-0.12182663677036762,-0.1586944781795144
1759584139772565200,0.746565185546875,-0.13149550560861825,-0.16964344995617867,0.07794526333734393
1759584139782549500,0.756549560546875,-0.14496025959849357,-0.12950959248840807,0.26313451134115456
1759584139792534500,0.766534423828125,-0.07133855854868888,-0.004115618625283241,0.24626520960479972
1759584139802518300,0.776518310546875,0.03931961847543716,0.09767419228851795,0.11781637821570039
1759584139812503600,0.786503662109375,0.12659691991209984,0.14820610965192318,0.05141133054643869
1759584139822487300,0.7964873046875,0.058415948611497875,0.08333645485639572,0.058065235477685925
1759584139832471300,0.80647119140625,-0.03803454710096121,-0.03688625384867191,-0.02246580656915903
1759584139842456600,0.81645654296875,-0.10346592743247747,-0.12707096716463565,-0.09747823132500053
1759584139852440300,0.8264404296875,-0.10278408264815807,-0.23215163631737232,-0.15463380461186169
1759584139862425600,0.836425537109375,-0.0012198971837759018,-0.1426367850869894,-0.14326207737848162
1759584139872409600,0.84640966796875,0.00785743550211191,-0.01741992135643959,-0.03363485083729029
1759584139882393300,0.856393310546875,0.03559095334112644,0.023200258323550223,0.04907309685721993
1759584139892378600,0.866378662109375,0.08176613679975271,-0.03228840466439724,0.11081818989142775
1759584139902362600,0.876362548828125,0.09209814572185278,-0.0633165801346302,0.1997568486690521
1759584139912347600,0.88634765625,0.0784399149864912,-0.11645312703847885,0.22685236086547372
1759584139922331600,0.89633154296875,0.039595220546424385,-0.1998310829490423,0.15913769190236926
1759584139932315600,0.906315673828125,0.009995032052695751,-0.0031797990798950195,0.2915028199523687
1759584139942300700,0.91630078125,0.06571224309951067,0.095201080173254,0.23512217656075954
1759584139952284700,0.92628466796875,-0.020297522619366643,-0.011854103922843933,-0.017876579082757235
1759584139962269400,0.93626953125,-0.1528016207486391,-0.10848667820394038,-0.2764453899435699
1759584139972253400,0.94625341796875,-0.07791150719821453,-0.07841478054523468,-0.34734015024751425
1759584139982237700,0.95623779296875,-0.03826192611604929,-0.06746668555140495,-0.1514643807955086
1759584139992222500,0.966222412109375,0.05856997012943029,-0.1062555581510067,0.06449716822132467
1759584140002206500,0.97620654296875,0.08499649702310562,-0.08591711899936198,0.20424159286767243
1759584140012191500,0.98619140625,0.06209989782124757,-0.048856677627563475,0.25391893922835584
1759584140022175500,0.996175537109375,0.02787292630970478,-0.05611234784424304,0.18966595502644776
1759584140032159500,1.006159423828125,-0.02777268080562353,-0.057144028979539865,0.13476955884322522
1759584140042144500,1.01614453125,-0.06923515652865171,-0.06847381676733494,0.009863222366571426
1759584140052128500,1.02612841796875,-0.08288432717472315,-0.027562545186281203,-0.046418198434263466
1759584140062113500,1.036113525390625,-0.07204144612103701,-0.04813888474702835,-0.012493570870161055
1759584140072097500,1.04609765625,-0.05565262137800455,-0.02964695024490356,0.0972647347047925
1759584140082081500,1.05608154296875,0.0042258010014891625,-0.0009410802423954009,0.19418357858136295
1759584140092066600,1.066066650390625,0.059982467275857924,-0.04028291054964065,0.24373759082332253
1759584140102050600,1.076050537109375,0.08976151946783065,-0.032176176461577416,0.2795744817495346
1759584140112035600,1.08603564453125,0.1018567386701703,-0.02843056019246578,0.2865102723620832
1759584140122019600,1.09601953125,0.10002104767560958,-0.053605333459377284,0.21667364280894397
1759584140132003600,1.106003662109375,-0.022580080598592758,-0.10998013163208961,0.0516604830019176
1759584140141988600,1.115988525390625,-0.032520459854602814,-0.08961889612674713,-0.09701514385789632
1759584140151972600,1.12597265625,-0.04444821353554725,-0.05498012894392013,-0.10760302723720669
1759584140161957400,1.135957275390625,-0.0008908113598823546,-0.000723053577542305,-0.09228913824930786
1759584140171941600,1.145941650390625,0.0240486918464303,0.04633855732679367,-0.07108472991809249
1759584140181925600,1.155925537109375,0.1113005665808916,-0.0038771336942911147,-0.19373349672630427
1759584140191910400,1.165910400390625,0.10859013857841492,-0.0603670826792717,-0.2637736860275268
1759584140201894400,1.175894287109375,0.09488836096227168,-0.07300503045618534,-0.15729615568891167
1759584140211879400,1.18587939453125,0.07153145077228545,-0.09369652082920074,-0.0038232115499675272
1759584140221863400,1.195863525390625,0.03743219729363918,-0.05010755447149277,0.11775894894003867
1759584140231847400,1.205847412109375,0.04696808740198612,0.05656535230875015,0.1970955205053091
1759584140241832400,1.21583251953125,0.12937047627866266,0.11350362958312034,0.19667875639796256
1759584140251816400,1.22581640625,0.190875915338099,0.06356383289396762,0.16547274014279245
1759584140261801500,1.235801513671875,0.15464637183248997,-0.05818506246507167,0.031324089676886796
1759584140271785500,1.245785400390625,0.0041489363729953765,-0.1602308939665556,-0.10423471984788775
1759584140281769500,1.25576953125,-0.11405249563753604,-0.23365678018331526,-0.1430398129299283
1759584140291754500,1.26575439453125,-0.0940966260626912,-0.2569873868882656,-0.1040749992415309
1759584140301738500,1.275738525390625,0.05232026208490133,-0.15980127037763595,-0.014707447527348995
1759584140311723500,1.2857236328125,0.1618248851597309,-0.05341653288900852,0.08421879064887762
1759584140321707500,1.29570751953125,0.15132219584584236,0.006877484554052352,0.16164149141684173
1759584140331691500,1.30569140625,0.13863923988342283,0.041615620458126064,0.11787161553427576
1759584140341676500,1.315676513671875,0.07095803479850292,0.008586626559495925,-0.026655805604904888
1759584140351660500,1.32566064453125,-0.10018617510944604,-0.013066402322053909,-0.1547425256833434
1759584140361645600,1.3356455078125,-0.16600655475854872,0.06873626709580422,-0.2200743911631405
1759584140371629600,1.345629638671875,-0.063359834754467,-0.016440262669324874,-0.2039240513511002
1759584140381613600,1.355613525390625,0.06384966409802437,-0.040052608925104136,0.06080766605362296
1759584140391598300,1.365598388671875,0.12010872693657874,-0.040865678873658176,0.2939877686358988
1759584140401582600,1.37558251953125,0.09636632456034422,-0.0785574038863182,0.40383462927713987
1759584140411567400,1.3855673828125,0.03642097442448139,-0.08551672150492667,0.3867604526184499
1759584140421551400,1.39555126953125,0.03004880904406309,-0.037708676147460936,0.21715821145549416
1759584140431535400,1.405535400390625,-0.02138297976851463,-0.07258242112994194,-0.07164996258541942
1759584140441520400,1.415520263671875,-0.08866817127317189,-0.08466098145842552,-0.3024911008261144
1759584140451504400,1.42550439453125,-0.15148235484361647,-0.045748190218210215,-0.33143048732355235
1759584140461489400,1.435489501953125,-0.1236748949855566,-0.029478607940673827,-0.22888035956174133
1759584140471473400,1.445473388671875,-0.0312660758793354,-0.03488543542027473,-0.09024564972296356
1759584140481457400,1.45545751953125,0.0118795306250453,-0.07474690568745136,-0.07589066889509558
1759584140491442400,1.4654423828125,-0.010821253743767738,-0.1081201829791069,-0.07022562887072563
1759584140501426400,1.475426513671875,-0.01757715774476528,-0.08999415917992591,-0.029931320144236086
1759584140511411500,1.485411376953125,-0.03155979812890291,-0.05569558373689651,0.07514569574669003
1759584140521395500,1.4953955078125,-0.03528115673959255,0.00880816035568714,0.21304171604737637
1759584140531379500,1.50537939453125,-0.018454525101184845,0.09924187999665736,0.25832345779761673
1759584140541364500,1.515364501953125,0.030380817477405068,0.08976210398972034,0.2150704453960061
1759584140551348500,1.525348388671875,0.0022159224838018414,0.01649754581451416,0.048618777218461036
1759584140561333500,1.53533349609375,-0.024716508105397224,0.01191606324315071,-0.11863237077370285
1759584140571317500,1.5453173828125,-0.01154313827753067,-0.013518822264671325,-0.11907733806222677
1759584140581301500,1.555301513671875,0.0050970308780670165,-0.04646949023008346,0.020190116722136733
1759584140591286500,1.56528662109375,0.04177577945590019,-0.07544424030184746,0.1058599829621613
1759584140601270500,1.5752705078125,0.059790744096040724,-0.08911094660460948,0.1519517259210348
1759584140611255300,1.58525537109375,0.11532032361626625,-0.11790624845623969,0.10188698767796159
1759584140621239000,1.595239013671875,0.12517302458882332,-0.1086953525185585,0.006936375134438276
1759584140631223000,1.60522314453125,0.08695406083166599,-0.11489011550545691,-0.07635580218881369
1759584140641207800,1.615207763671875,0.046181320938467975,-0.09783259772062301,-0.08358078500628471
1759584140651192000,1.625192138671875,0.02799742947220802,-0.026283611291646955,-0.007528495808690786
1759584140661176800,1.6351767578125,0.045428456744551655,0.022758944296836853,0.12204627087041735
1759584140671160800,1.645160888671875,0.10243746116757392,0.0020598551392555235,0.2056077666543424
1759584140681144800,1.655144775390625,0.10765431903302669,-0.02277647995352745,0.18100567870885131
1759584140691129900,1.6651298828125,0.06209492938518524,-0.09139701171517371,0.0916710063509643
1759584140701113900,1.67511376953125,0.027137597772479056,-0.16453940481543539,-0.1086940373443067
1759584140711099000,1.685098876953125,0.0028486674293875694,-0.1325976216316223,-0.18484832561165093
1759584140721083000,1.695082763671875,0.015267711758613585,-0.10807575931549071,-0.16387392664402722
1759584140731067000,1.70506689453125,0.02943886045217514,-0.031443770533800125,-0.0832971457593143
1759584140741052000,1.715052001953125,0.09156213914901018,0.046775195178389545,0.020582769301533698
1759584140751036000,1.725035888671875,0.20699498322904109,0.048668461579084395,0.17595818606093525
1759584140761021000,1.73502099609375,0.18388737162500618,0.009161796098947525,0.2971931405484676
1759584140771005000,1.7450048828125,0.11321546029150485,-0.0701566552877426,0.21658757196068762
1759584140780989000,1.754989013671875,-0.0013747954845428467,-0.20300445228815078,0.024900632500648497
1759584140790974000,1.764973876953125,-0.04267769673168659,-0.2142097369134426,-0.1088169330716133
1759584140800958000,1.7749580078125,-0.010799041911959647,-0.13798632893264293,-0.15669307522922754
1759584140810943000,1.78494287109375,0.054603989107906814,-0.031472412106394766,-0.14822159948199987
1759584140820927000,1.794927001953125,0.10253244597464799,0.054091071149706835,-0.08745689578726887
1759584140830911000,1.804910888671875,0.09867547828555107,0.03664192369878292,-0.014190584046393633
1759584140840896000,1.81489599609375,0.06210603530108928,0.025785598641633985,0.09857216404154896
1759584140850880000,1.8248798828125,0.047023324720561505,0.005840542721748352,0.21792028186917303
1759584140860864800,1.83486474609375,0.049912031899392605,-0.036139819395542144,0.23902649052292108
1759584140870848800,1.844848876953125,0.04662614209651947,-0.0557049360871315,0.177183928463608
1759584140880833000,1.8548330078125,0.05019026431888342,-0.06107552320957183,-0.01344824124649167
1759584140890817800,1.86481787109375,0.02675532045662403,-0.12438216647207737,-0.28259996705055235
1759584140900801800,1.8748017578125,-0.009542904371023177,-0.0996931308954954,-0.3243649328514933
1759584140910786800,1.884786865234375,-0.029766777232289314,-0.047915597385168075,-0.16017346469089389
1759584140920770800,1.894770751953125,0.008165186277031899,-0.007882277682423592,0.07485445771515369
1759584140930754800,1.9047548828125,0.061058864335715765,-0.0012006079614162444,0.2676962662987411
1759584140940739800,1.91473974609375,0.06852379338890313,0.00029810616374015806,0.38723742248043413
1759584140950723800,1.924723876953125,0.025607903987169264,-0.07504734993875026,0.3126872084088623
1759584140960708900,1.934708984375,-0.04636193820238113,-0.2058843916386366,0.08741700216829776
1759584140970692900,1.94469287109375,-0.06777297502160072,-0.22260347124934196,-0.011770225031673907
1759584140980676900,1.9546767578125,-0.00289046074450016,-0.08766191684007645,-0.058684244158864016
1759584140990662000,1.964661865234375,0.08731354179382324,0.02026712748110294,-0.03346913888156414
1759584141000646000,1.97464599609375,0.11466799718737601,0.03842705354988575,0.022724749766290187
1759584141010631000,1.984630859375,0.06210866564959287,0.026396424016356466,0.04030468399003148
1759584141020615000,1.994614990234375,-0.012390695017576217,-0.02719838804900646,-0.010445406168699264
1759584141030599000,2.004598876953125,-0.012183482007682322,-0.05959492926299571,-0.002227612921595573
1759584141040584000,2.014583984375,-0.02075520325899124,-0.07612053212821483,0.07959259215295314
1759584141050568000,2.02456787109375,-0.0007885200291872024,-0.10092179590761662,0.1585904332831502
1759584141060553000,2.034552978515625,-0.01657674853056669,-0.11009995861947536,0.22375571002438663
1759584141070537000,2.044536865234375,0.01554068348109722,-0.09923895738720893,0.19227233813256026
1759584141080521000,2.05452099609375,0.07765665565431118,-0.09929507148861884,0.160659056250751
1759584141090505700,2.064505615234375,0.13612725706249473,-0.019306173494458196,0.12728490217626093
1759584141100489700,2.07448974609375,0.08963993891477584,-0.08898118274509906,-0.10302899731993674
1759584141110474000,2.084473876953125,-0.053821898819506164,-0.17077625337839125,-0.278598330193758
1759584141120458800,2.094458740234375,-0.06516893000304698,-0.13417875334322452,-0.20854148201867936
1759584141130442800,2.10444287109375,-0.00428688353896141,-0.047314124360680575,-0.059106415093690155
1759584141140427800,2.114427734375,0.02546294255852699,0.011299392649531365,0.0849633254058659
1759584141150411800,2.124411865234375,-0.00708674339056015,-0.04551905763745308,0.13242124215140938
1759584141160395800,2.134395751953125,-0.005018412683904171,-0.04414952284991741,0.1801972849354148
1759584141170380800,2.144380859375,0.14120996715426445,0.1946907974511385,0.3119133014269173
1759584141180364800,2.15436474609375,0.15169628985524178,0.04193360036611557,0.15648513156697152
1759584141190349800,2.164349853515625,0.007400047123432159,-0.044374563777446745,0.06970248177945614
1759584141200333800,2.174333740234375,-0.03603752806484699,-0.04032791873514652,0.027973025683313606
1759584141210317800,2.18431787109375,-0.004389174869656563,-0.07224924365282058,-0.03385039328411221
1759584141220302800,2.194302734375,-0.02949409777075052,-0.15021920304000377,-0.16156740326732397
1759584141230286800,2.204286865234375,-0.06491057132780552,-0.1941588825315237,-0.24711788091138004
1759584141240272100,2.214272216796875,-0.09970365228950977,-0.12758359286189078,-0.12336612129732966
1759584141250256000,2.224255859375,-0.05840542721748352,-0.10150105710029601,0.07926423698142171
1759584141260241200,2.2342412109375,0.005651449890434742,-0.04053191687464714,0.16333967363685367
1759584141270225200,2.24422509765625,0.1178840366244316,0.015137363377213477,0.1435023158751428
1759584141280209000,2.254208984375,0.15158347713053225,0.04123860383927822,0.0962481050081551
1759584141290194000,2.26419384765625,0.07235387307107448,0.0694464611917734,0.060801528573781245
1759584141300178000,2.274177978515625,-0.06461480325162411,-0.002855389431118965,0.0062141983397305004
1759584141310163000,2.284162841796875,-0.09538812717795371,0.04326221862137317,-0.0005802841059863567
1759584141320147000,2.29414697265625,-0.06656067662239075,0.024388006803393363,-0.10930150171816348
1759584141330130700,2.304130615234375,-0.02271101350188255,-0.06292728855609893,-0.11480842857137322
1759584141340116000,2.314115966796875,0.009255904123187065,-0.01698854420185089,0.02290785124823451
1759584141350100000,2.324099853515625,0.059273442223668094,-0.03595569500029087,0.06170461489334702
1759584141360085000,2.3340849609375,0.08878010721504688,-0.07827215720415115,0.04374284174516797
1759584141370069000,2.344069091796875,0.0793897630572319,-0.06634966422021389,0.02573196875825524
1759584141380053000,2.354052978515625,0.016821370941400526,-0.10368249279260634,0.0708249099381268
1759584141390038000,2.3640380859375,-0.02042377934753895,-0.12720423815548418,0.11673106719702482
1759584141400022000,2.37402197265625,-0.030340193206071852,-0.1213742168277502,0.16836977675855158
1759584141410007000,2.384007080078125,-0.006623802053928375,-0.09377367771863937,0.1290324764959514
1759584141419991000,2.393990966796875,-0.012466682863235472,-0.03750058635473251,-0.03736000884026289
1759584141429975000,2.40397509765625,-0.010866846451163292,-0.04689619120955467,-0.18883330359458922
1759584141439960000,2.4139599609375,-0.002743161228299141,-0.07157353634834289,-0.1781007510475814
1759584141449944000,2.423944091796875,0.03046703445613384,-0.07203355507552624,-0.04284121673032641
1759584141459929000,2.43392919921875,0.07007599126696586,-0.10210136108100414,0.09056436028331517
1759584141469913000,2.4439130859375,0.09450549912452698,-0.13991934282183646,0.17950506488755344
1759584141479897000,2.45389697265625,0.07447159587740898,-0.15778934603333472,0.21260332463011145
1759584141489882000,2.463882080078125,-0.00005143792629241943,-0.20858780537843702,0.08156710709631443
1759584141499866000,2.4738662109375,-0.06761047793626784,-0.25877076317369935,-0.10379442873448133
1759584141509851000,2.483850830078125,-0.06254179636985063,-0.23500527218282222,-0.1359150756165385
1759584141519835000,2.4938349609375,0.06819792243540286,0.023420623075962065,0.00483282698392868
1759584141529819100,2.503819091796875,0.18688333857059478,-0.10251637162268161,-0.05892638235166669
1759584141539804000,2.513803955078125,0.17135493004918098,-0.03200374250411987,-0.009799801741540432
1759584141549788000,2.523787841796875,0.26001462575495243,0.04841887073218822,0.09020341801643371
1759584141559773000,2.53377294921875,0.367329629831016,0.13022680084705351,0.12596052170470357
1759584141569757000,2.5437568359375,0.5082186944678425,0.20962708529829976,0.04641147643253207
1759584141579741000,2.553740966796875,0.47972792852073903,0.01759235531389713,-0.2539582483254373
1759584141589726000,2.563725830078125,0.2921241667211056,-0.21054770727455616,-0.4986543089173734
1759584141599710000,2.5737099609375,0.24115473472326993,-0.08615268132090569,-0.4195481851071119
1759584141609695000,2.583695068359375,0.2594534847408533,-0.20275661500692366,-0.3270971342943609
1759584141619679700,2.5936796875,0.21741525495648384,-0.2744669294774532,-0.1685014403142035
1759584141629663700,2.603663818359375,0.17014029356241225,-0.181920163205266,0.13046397060379386
1759584141639648800,2.613648681640625,0.13247253394722938,-0.10548282021284103,0.34826106448471544
1759584141649632800,2.6236328125,0.1509545315772295,-0.1013011506140232,0.5003725110121071
1759584141659616800,2.63361669921875,0.15243483326286075,-0.08323357900381088,0.41717035005986686
1759584141669601800,2.643601806640625,0.1198641045257449,-0.022585925817489624,0.14887743304222822
1759584141679585800,2.653585693359375,0.08625029647648334,0.04241933805644512,-0.1364678871937096
1759584141689570600,2.663570556640625,0.03522416585534811,0.10342647220492363,-0.344996217469871
1759584141699554600,2.673554443359375,-0.026493746910989283,0.1403051272690296,-0.40592429503276944
1759584141709539600,2.68353955078125,-0.04371843795627355,0.03465980997085571,-0.347076677005738
1759584141719523600,2.693523681640625,-0.06371463954150676,-0.12336802099347113,-0.15191533943340182
1759584141729507600,2.703507568359375,-0.08227379406094551,-0.27156477829515935,0.02177534008696675
1759584141739492600,2.71349267578125,-0.05362783755213022,-0.3902899419188499,0.09534472642764448
1759584141749476600,2.7234765625,-0.07997866886109113,-0.39655484753251075,0.09786445416361093
1759584141759461600,2.733461669921875,-0.13398176946640014,-0.3194283532321453,0.10573197266831993
1759584141769445600,2.743445556640625,-0.16922376323938368,-0.1945943513393402,0.14570684018209576
1759584141779429600,2.7534296875,-0.17060586524754762,-0.085105802616477,0.16405220582038163
1759584141789414700,2.76341455078125,-0.2001335730269551,0.028356910434365272,0.13406915548890827
1759584141799398700,2.773398681640625,-0.2183756244212389,0.08606383399367332,0.1266911740668118
1759584141809383700,2.7833837890625,-0.2382403085812926,0.07805471506118775,0.18654636170119046
1759584141819367700,2.79336767578125,-0.2527633394524455,0.038624037426710126,0.1619869438536465
1759584141829351700,2.8033515625,-0.1988292124301195,-0.005518471160531044,0.15204714911952613
1759584141839336700,2.813336669921875,-0.15448942770510912,-0.005949263793230056,0.11997618659809231
1759584141849320700,2.82332080078125,-0.08493044604957103,0.008821019837260245,0.03247545166909695
1759584141859305700,2.8333056640625,-0.06361468629837036,0.03830547299683094,0.013609715418517588
1759584141869289700,2.843289794921875,-0.05426087475866079,0.0763788908034563,0.05445815089643001
1759584141879273700,2.853273681640625,-0.021704466807842254,0.11963643324971199,0.033522330373525616
1759584141889258500,2.863258544921875,-0.011079320158064366,0.1404670398324728,-0.05056231250166893
1759584141899242800,2.87324267578125,-0.028491934990882872,0.03448503792583942,-0.11533669022917747
1759584141909227500,2.8832275390625,-0.0659548196837306,-0.08087912483215332,-0.08088233970254659
1759584141919211500,2.89321142578125,-0.023996084876358507,-0.16927753925323485,0.027165362562239167
1759584141929195500,2.903195556640625,0.00701660076379776,-0.19948036981523035,0.09076558194383978
1759584141939180500,2.9131806640625,0.017193419124186038,-0.12492401826381683,0.11817074461132288
1759584141949164500,2.92316455078125,0.010223580111563204,0.030919454398751257,0.13790391134619712
1759584141959149600,2.933149658203125,-0.05356295562237501,0.040435470762848855,0.015398206270486115
1759584141969133600,2.943133544921875,-0.11607114198356866,-0.07271686116456985,-0.20316490354686975
1759584141979117600,2.95311767578125,-0.2406307108491659,-0.1175964518547058,-0.14203881919384
1759584141989102600,2.9631025390625,-0.1228708851262927,0.15580197160840034,0.25965251444429155
1759584141999086600,2.973086669921875,0.15781886438876389,0.38882103841006754,0.46685982524976133
1759584142009071600,2.983071533203125,0.2260749467521906,0.2225228072285652,0.34192762367948887
1759584142019055600,2.9930556640625,0.04602817620337009,-0.016693360647559163,0.12589344781786202
1759584142029039600,3.00303955078125,-0.008088613909482956,-0.113121936789155,0.02800181338638067
1759584142039024600,3.013024658203125,0.013057342232763766,-0.19926234315037727,-0.09679054132178425
1759584142049008600,3.023008544921875,-0.020798750139772892,-0.3211743201166391,-0.2740568873718381
1759584142058993700,3.03299365234375,-0.03347556862235069,-0.232191383805871,-0.2795487627863884
1759584142068977700,3.042977783203125,0.017373451866209505,-0.04430559019446373,-0.1150108192756772
1759584142078961700,3.052961669921875,0.12268237681686878,0.020547113466262815,0.08400777824670076
1759584142088946700,3.06294677734375,0.1486006619274616,0.04352583799362182,0.23028759601116178
1759584142098930700,3.0729306640625,0.038543665666878224,0.00024549919366836546,0.22298633308708665
1759584142108915500,3.08291552734375,-0.05595218884646892,-0.049288639304041856,0.127032973241806
1759584142118899500,3.0928994140625,-0.08823796316236257,-0.002356207737326622,0.1232847266241908
1759584142128883700,3.1028837890625,-0.06882482216209172,0.06750175686478614,0.15670315823182462
1759584142138868500,3.112868408203125,0.06502922927141189,0.05264671756029129,0.09345745137631893
1759584142148852500,3.1228525390625,0.18391133702248333,-0.009326046749949454,-0.012939999463409185
1759584142158837500,3.13283740234375,0.2475119947955012,-0.09861410348713398,-0.08354746725857258
1759584142168821500,3.142821533203125,0.20159926166534423,-0.18890052361190318,-0.0807400086224079
1759584142178805500,3.152805419921875,0.0977460884809494,-0.23934359364807603,0.03003901830241084
1759584142188790500,3.16279052734375,0.08368512216359376,-0.24154841021597384,0.12738164054900408
1759584142198774500,3.1727744140625,0.0571753009006381,-0.2729886736184358,0.09536562308520079
1759584142208759600,3.182759521484375,0.010771861644089222,-0.2717752061754465,0.07242050856649875
1759584142218743600,3.19274365234375,0.015535715045034884,-0.17629647810459137,0.13949264184236526
1759584142228727600,3.2027275390625,0.08146423124372959,-0.07221475686132907,0.12476429765745997
1759584142238712600,3.212712646484375,0.08187456561028957,-0.027436872979998587,0.03641410629227757
1759584142248696600,3.222696533203125,0.08979454495459795,-0.01609013405740261,-0.06481763234734535
1759584142258681600,3.232681640625,0.07453326293677091,0.00300853416621685,-0.08577712600678206
1759584142268665600,3.24266552734375,0.06899959420710802,-0.032435704180598254,-0.04001373821943998
1759584142278649600,3.252649658203125,0.04203472265303135,-0.018367431339621543,0.012329758610576391
1759584142288634600,3.262634521484375,0.06527911237925291,0.05086977101564407,0.03852992940247059
1759584142298618600,3.27261865234375,0.2103618293136358,0.02292202590405941,0.09656126261055469
1759584142308603600,3.282603759765625,0.17658932357132434,-0.12222294261157512,0.024333207876235247
1759584142318587600,3.292587646484375,0.05497369920313358,-0.13747837941050528,0.029886604219675064
1759584142328571600,3.302571533203125,0.07553747154325247,-0.1781774695456028,0.033037469466030596
1759584142338556400,3.312556396484375,0.11494184569269418,-0.18736790721714497,0.04385448542609811
1759584142348540700,3.322540771484375,0.14546061033606528,-0.12133563838303088,0.02751154565140605
1759584142358525400,3.332525390625,0.09134849639832973,-0.05747896002233028,0.023293051173537967
1759584142368509400,3.342509521484375,0.04852700728178024,-0.008353402325510979,-0.02091068608164787
1759584142378493400,3.352493408203125,0.03830196586549282,0.06161386786997318,0.026147856082767245
1759584142388478500,3.362478515625,0.068011167691648,0.0977764836192131,0.061528381543606514
1759584142398462500,3.37246240234375,0.10430267051756381,0.025501521003246305,0.019440759659558535
1759584142408447500,3.382447509765625,0.1546007791250944,-0.08430617667138576,-0.03491846090704202
1759584142418431500,3.392431396484375,0.2388707154393196,-0.1298316640496254,-0.007382365336269139
1759584142428415500,3.40241552734375,0.2820595765635371,-0.2645627905786037,-0.05649944746568799
1759584142438400500,3.412400390625,0.3391153427377343,-0.3092494890451431,-0.10746186520084738
1759584142448384500,3.422384521484375,0.21398031207174062,-0.22934067054986954,-0.20081907107308505
1759584142458369500,3.43236962890625,0.25344167710542675,-0.18297990139126777,-0.16092209110110997
1759584142468353500,3.442353515625,0.2884013468056917,-0.027763620716333388,-0.13334171799719333
1759584142478337500,3.452337646484375,0.6065449209243059,-0.04848433718383312,-0.28583544184044
1759584142488322600,3.462322509765625,0.9830302093744278,0.033921558824181554,-0.25192250471413136
1759584142498306600,3.472306640625,1.1859937451303004,0.19265373866558075,-0.12881415757015346
1759584142508291600,3.48229150390625,1.5723755736947058,0.2818710682541132,-0.2646286954216659
1759584142518275600,3.492275634765625,1.7885785302519797,0.29638123964369295,-0.8310399050086736
1759584142528259600,3.502259521484375,2.15748578466326,0.04887070615291595,-1.4041373143613338
1759584142538244600,3.51224462890625,1.981501733508706,-0.16885902158021926,-1.99853572428748
1759584142548228600,3.522228515625,1.6024033399507402,-0.7692191163897514,-2.2676146771162746
1759584142558213600,3.532213623046875,1.3641221148371696,-1.3380010006308556,-1.6981531400479375
1759584142568197400,3.542197265625,1.2227733237341045,-1.5168658679187297,-0.69271440724954
1759584142578181600,3.552181640625,1.303118780080974,-1.3374673321455717,0.04221694735214114
1759584142588166700,3.562166748046875,1.3748834550872444,-0.9609908115237951,0.3774282683886587
1759584142598150400,3.572150390625,1.3680007098361848,-0.7204992168843746,0.2817211383894086
1759584142608135700,3.5821357421875,1.2571546090245247,-0.7423381237268447,-0.23962650224268436
1759584142618119400,3.592119384765625,1.3368348794609308,-0.6251087516188621,-0.7664594424180686
1759584142628103400,3.602103515625,1.1814330130860209,-0.475309819817543,-1.130624616868794
1759584142638088400,3.61208837890625,1.1543413002818823,-0.7856991265475749,-1.0049674620248377
1759584142648072400,3.622072509765625,1.2624670362189412,-1.2902806335568426,-0.4052146854586899
1759584142658057500,3.632057373046875,1.101638468620181,-1.5080430945158003,0.24095848149880766
1759584142668041500,3.64204150390625,0.7950975078813731,-1.6440671834647655,0.30076705351248384
1759584142678025500,3.652025390625,0.8091735256373882,-1.6933417942434548,-0.18634499391019343
1759584142688010500,3.662010498046875,0.9097193278394639,-1.5173153652518987,-0.8307298161461949
1759584142697994500,3.671994384765625,0.9261052299730479,-1.0509569136530161,-1.2498407788798211
1759584142707979500,3.6819794921875,1.0850818860948086,-0.685628394511342,-1.3481823490358888
1759584142717963500,3.691963623046875,1.327006143885851,-0.6415262179344892,-1.2070379944637417
1759584142727947500,3.701947509765625,1.3430154677920043,-0.6602157208353281,-0.9165678785599768
1759584142737932500,3.7119326171875,1.4074806334398686,-0.546720859080553,-0.7477871829129755
1759584142747916500,3.72191650390625,1.2224315245591104,-0.7158417464673519,-0.4819115561701357
1759584142757901300,3.7319013671875,1.2657799601592123,-0.9362772260278462,-0.17878347261473534
1759584142767885600,3.741885498046875,1.408635210302472,-1.1653104380637407,0.06340747328847646
1759584142777869600,3.75186962890625,1.6270792237848042,-1.3108575576394796,-0.09122589293196796
1759584142787854300,3.761854248046875,2.113827552461624,-1.531994463467598,-0.33632344699688255
1759584142797838300,3.77183837890625,2.34704930222854,-1.60300978141129,-0.36867118063308296
1759584142807823400,3.7818232421875,2.566589440384507,-1.5429998416066169,-0.4631588518399745
1759584142817807400,3.791807373046875,2.76052562007606,-1.4576491243183611,-0.8863404250133782
1759584142827791400,3.801791259765625,2.848902991709113,-1.374485103419423,-1.4243486200019717
1759584142837776400,3.8117763671875,2.7273393897891043,-1.2801058610230684,-1.7893737722828984
1759584142847760400,3.821760498046875,2.4622353319406507,-1.2149100430130957,-1.6610706329748033
1759584142857745400,3.831745361328125,2.298019752252102,-1.4528221425533294,-1.363261698615551
1759584142867729400,3.8417294921875,1.8461469221234321,-1.452235282576084,-1.1809157842788844
1759584142877713400,3.85171337890625,1.642514693325758,-1.4145242683410644,-1.0085035271964966
1759584142887698400,3.861698486328125,1.8365455655634402,-1.3870517395257949,-0.6738125767722726
1759584142897682400,3.871682373046875,2.064839941930771,-0.8211988944739103,-0.39481498159524053
1759584142907667500,3.88166748046875,2.36126502071619,-0.2397106733947992,-0.5662875466747209
1759584142917651500,3.8916513671875,2.6326772387981414,-0.06453297018706798,-0.9649816347256303
1759584142927636500,3.901636474609375,2.3595395120978355,0.04263911828696727,-1.3291447633497415
1759584142937620500,3.911620361328125,1.9798855304837226,-0.15971826826930044,-1.34709382314682
1759584142947604500,3.9216044921875,1.724348926925659,-0.2816337523669004,-1.0652582645975053
1759584142957589500,3.931589599609375,1.0961502464674413,-0.10171323854625225,-1.0501308380924164
1759584142967573500,3.941573486328125,0.38111630925163625,0.5005623344957828,-0.7765650952383876
1759584142977558300,3.951558349609375,0.5595360631205141,0.9934978273749351,-0.1509170034452807
1759584142987542300,3.961542236328125,0.19597849917411803,1.4847656793028114,0.06607976123765111
1759584142997526500,3.971526611328125,-0.8938670941911637,2.00881644141376,0.17780492817247284
1759584143007511300,3.98151123046875,-1.8140565242491662,2.40962543925941,0.4818289193879813
1759584143017495300,3.991495361328125,-2.5691265576466917,2.7658260645717383,1.0769214490581303
1759584143027480300,4.001480224609375,-2.8123139672413466,2.6995564798504113,1.74470826273486
1759584143037464300,4.01146435546875,-2.4180067525051534,2.6743583257079124,2.212614820558578
1759584143047448300,4.0214482421875,-1.9479066301599144,2.9025463190913197,2.7143103968679902
1759584143057433300,4.031433349609375,-1.8655447194240986,3.1394331672370432,2.541812726524472
1759584143067417300,4.041417236328125,-2.436486996569484,3.264165462321043,1.8838380626142024
1759584143077402400,4.05140234375,-3.002087766556442,2.976920884335041,0.9640379971999674
1759584143087386400,4.061386474609375,-3.4151422057300804,2.730297655072808,0.17277243216428906
1759584143097370400,4.071370361328125,-3.7097827391862865,3.197148274102807,0.20141742055872455
1759584143107355400,4.08135546875,-3.4743712242901323,3.876055251404643,0.8373076601665467
1759584143117339400,4.09133935546875,-3.435790441483259,4.484323927381634,1.5007579059436917
1759584143127324400,4.101324462890625,-3.3353871164917943,4.944372465181351,1.9567612600058315
1759584143137308400,4.111308349609375,-3.3383237544655797,5.211836237898469,2.05488202701807
1759584143147292400,4.12129248046875,-3.4018694671809673,5.575908619499206,2.0275135430991647
1759584143157277400,4.13127734375,-3.459761684179306,6.035619303646683,2.0897250846013424
1759584143167261400,4.141261474609375,-3.216674520088732,6.12643296251595,2.196451182873547
1759584143177246200,4.15124609375,-2.8096269201144572,5.69190465041995,2.13408941924572
1759584143187230500,4.16123046875,-2.8353578659594056,4.540664823284745,1.6760549977473913
1759584143197214500,4.17121435546875,-2.7169290549337863,3.560470129597187,1.1755577643770725
1759584143207199200,4.18119921875,-2.3847113627552985,3.327153541153669,0.8547969204321503
1759584143217183200,4.191183349609375,-2.1568004327476022,3.676622812384367,0.7902488988064229
1759584143227168300,4.201168212890625,-1.9472271234631537,4.053918248173594,0.9731790427718311
1759584143237152300,4.21115234375,-1.969696144902706,4.120612195786833,1.2002462884970009
1759584143247136300,4.22113623046875,-2.306092876331508,3.9905525682002305,1.2003919805780052
1759584143257121300,4.231121337890625,-2.404836305286735,3.585350888353586,0.9128463738188147
1759584143267105300,4.241105224609375,-2.483229020130634,3.272904649093747,0.5115956235550344
1759584143277090300,4.25109033203125,-2.413577537886053,2.99309226693511,0.07120009992606938
1759584143287074300,4.26107421875,-2.165759838142246,2.7438275832533834,-0.2023854801395908
1759584143297058300,4.271058349609375,-1.7202314086042343,2.484218031167984,-0.14608805805202574
1759584143307043300,4.281043212890625,-1.5176853676080704,2.246373736166954,0.01249568976201117
1759584143317027300,4.29102734375,-1.5401836151421069,1.9721902998059986,0.20386150750890372
1759584143327012600,4.3010126953125,-1.531518662649393,1.685076070201397,0.30062289580143986
1759584143336996400,4.310996337890625,-1.5588181729853152,1.526999723920226,0.2863287052500993
1759584143346980400,4.32098046875,-1.5191373199820517,1.2897872970819473,0.3383310604922473
1759584143356965600,4.330965576171875,-1.4533365218162535,1.0894558633953333,0.4235194998908788
1759584143366949400,4.340949462890625,-1.2854910611927508,1.1221323905944824,0.6903931246951222
1759584143376934700,4.3509345703125,-1.1125123293340204,1.1448322981804608,0.9824765210144221
1759584143386918700,4.360918701171875,-1.0439525878489018,1.1186135688185692,1.2665659959703683
1759584143396902400,4.37090234375,-1.0586661728560924,0.6451181049466133,1.4142466204434632
1759584143406887400,4.380887451171875,-1.160255492761731,0.04463818314969539,1.3574661640793084
1759584143416871400,4.390871337890625,-1.1919582064926624,-0.46176703215539455,1.161012010217458
1759584143426856400,4.4008564453125,-1.094613100028038,-0.937325858297944,0.9778662507399916
1759584143436840400,4.41084033203125,-0.825084211474657,-1.4916267972439528,0.8170702702365815
1759584143446824200,4.42082421875,-0.6767921771049499,-1.9866648153603075,0.7128456333912908
1759584143456809500,4.4308095703125,-0.6352257295507937,-2.384831774264574,0.6263710266396403
1759584143466793500,4.44079345703125,-0.5854963607419282,-2.659785610476136,0.5659411078572273
1759584143476778500,4.450778564453125,-0.5172902550000698,-2.9030238734751936,0.5412456425398587
1759584143486762500,4.460762451171875,-0.458329897313565,-2.930636687543988,0.49368558059409257
1759584143496746500,4.47074658203125,-0.4732008648395538,-2.801916199606657,0.47007323433831333
1759584143506731500,4.4807314453125,-0.5490582159869373,-2.690224587881565,0.4666194406226277
1759584143516715500,4.490715576171875,-0.6179596105165779,-2.6537474993556738,0.43374169176295396
1759584143526700500,4.500700439453125,-0.6759101335734129,-2.6946120091855525,0.49612522883117194
1759584143536684500,4.5106845703125,-0.6288847630262374,-2.8299276576042174,0.698666739782691
1759584143546668500,4.52066845703125,-0.5357686724334955,-3.0696652190059424,0.8612062029525637
1759584143556653600,4.530653564453125,-0.4543665466405451,-3.436759578776359,1.0339682233206928
1759584143566637600,4.540637451171875,-0.3876460032813251,-3.8976714554071425,1.1845907464645802
1759584143576622600,4.55062255859375,-0.32816593256965276,-4.346467362308502,1.3165119301393626
1759584143586606600,4.560606689453125,-0.4160550822943449,-4.6147313454926016,1.3938465142324565
1759584143596590600,4.570590576171875,-0.4419610924452543,-4.785673018565774,1.249271308428794
1759584143606575600,4.58057568359375,-0.46069691870585083,-4.991671391972899,1.1163124522693455
1759584143616559000,4.59055908203125,-0.499041993060708,-5.0489095289766786,1.1617157745726405
1759584143626543900,4.6005439453125,-0.6064820848211646,-5.098324425008893,1.2439222024857997
1759584143636528000,4.610528076171875,-0.8577835350275039,-5.050917946189641,1.5367755602642892
1759584143646513000,4.620512939453125,-0.9878688815772533,-4.9111236910521985,1.910113198338449
1759584143656497000,4.630496826171875,-0.9180418966352939,-4.880711017131805,2.145438934647292
1759584143666481000,4.64048095703125,-0.8855039011240005,-5.0018730525135995,2.1113709530897435
1759584143676466000,4.6504658203125,-0.8065380625672638,-5.309568882375955,1.7235652292020618
1759584143686450000,4.660449951171875,-0.7640560345381497,-5.5398301749020815,1.2733005649223923
1759584143696435000,4.67043505859375,-0.7929720401600002,-5.511678431650996,0.7781991261810064
1759584143706419000,4.6804189453125,-0.9605576808035373,-5.252251834917068,0.3057929188504815
1759584143716403000,4.69040283203125,-1.1405050826311112,-4.731673717352748,-0.07673866402655839
1759584143726388000,4.700387939453125,-1.1340133825242518,-4.2487312106996775,-0.33206893135756255
1759584143736372000,4.7103720703125,-1.1000976689189672,-3.824515618303418,-0.3336402723275125
1759584143746357000,4.72035693359375,-1.148812307727337,-3.2264141160756346,-0.04789309329241514
1759584143756341000,4.730341064453125,-1.2111828391835093,-2.5651976937651635,0.37608912873938677
1759584143766325000,4.740324951171875,-1.20862614043802,-1.8164099555075168,0.8081780848592519
1759584143776310000,4.75031005859375,-1.0867878132298587,-1.1437649612098932,0.9382181309625506
1759584143786294000,4.7602939453125,-0.8711182328969239,-0.5859393552690744,0.660382747965306
1759584143796279000,4.770279052734375,-0.5819780504226684,-0.12237959447801113,0.19013108832016587
1759584143806263000,4.780262939453125,-0.37994390447139736,0.4735153376162052,-0.1716691105648875
1759584143816247000,4.7902470703125,-0.12385375868380069,1.0995224993795156,-0.2317978544436395
1759584143826232000,4.800232177734375,0.11280132653266191,1.6410592338204384,-0.13949483379945157
1759584143836216000,4.810216064453125,0.2496823245719075,2.1064538088232276,0.019903554865717887
1759584143846200800,4.820200927734375,0.34487288335114713,2.288559849989414,0.13457345174923538
1759584143856184800,4.830184814453125,0.4284419779196381,2.21629833137691,-0.07939940766841173
1759584143866169000,4.840169189453125,0.26398849782198663,1.842030718976259,-0.5391409253455698
1759584143876153900,4.85015380859375,0.010521686275303364,0.9858423441857099,-0.8421127954259514
1759584143886137900,4.860137939453125,0.023493396051228046,0.49387657312154765,-0.6072545304983854
1759584143896123100,4.870123046875,0.1613321332067251,0.30768823107779025,-0.151519618114084
1759584143906107000,4.88010693359375,0.3242199714228511,0.22367723796069622,0.2881780594438314
1759584143916091000,4.8900908203125,0.34942075591385363,0.13787351620793342,0.6164848617888987
1759584143926076000,4.900075927734375,0.29999037005156276,0.09005845658779144,0.7920445500515401
1759584143936060000,4.910059814453125,0.14397329438775777,0.14422493106126785,0.8013543763190507
1759584143946045200,4.920045166015625,-0.026799451859295366,0.2998825257629156,0.7536487684227525
1759584143956029000,4.93002880859375,-0.21938626276850698,0.2527478496223688,0.365492769792676
1759584143966013000,4.940012939453125,-0.4729465978175401,0.08276245436072349,0.10922566000297665
1759584143975998200,4.949998291015625,-0.5454457245782017,-0.10306056150197983,0.12960326212123036
1759584143985982000,4.95998193359375,-0.42686172299087044,-0.27473230241537094,0.426120256973803
1759584143995967200,4.96996728515625,-0.2777674323275685,-0.4495201295226812,0.6377542981803417
1759584144005951200,4.979951171875,-0.14950024111568927,-0.5412970804661512,0.7424880535915493
1759584144015935000,4.98993505859375,-0.061253217864036556,-0.5338888500362634,0.7060662023842335
1759584144025920300,4.999920166015625,-0.1361930157750845,-0.3511164539158344,0.5334549886636436
1759584144035904300,5.009904296875,-0.23636633140295743,-0.18086685476005077,0.16515037632063032
1759584144045889000,5.019888916015625,-0.3214192347884178,-0.11292027673721312,-0.15079919488504528
1759584144055873300,5.029873291015625,-0.36276071448028085,-0.09374269805848598,-0.2735653044626117
1759584144065857300,5.039857177734375,-0.3872363995671272,-0.07435118436813354,-0.16443170665726065
1759584144075842000,5.049842041015625,-0.3023778497099876,-0.08144786463081836,0.020835721149295567
1759584144085826000,5.059825927734375,-0.15747487325668333,-0.04006780649423599,0.13640125169828532
1759584144095811000,5.06981103515625,-0.09048135817497968,0.08002923000454902,0.17199600443169474
1759584144105795000,5.079795166015625,-0.14274813650697468,0.15591303076744079,0.129881786801666
1759584144115779000,5.089779052734375,-0.2295923072233796,0.22511925346255302,-0.03668547057956457
1759584144125764000,5.09976416015625,-0.2973737578123808,0.2411450901120901,-0.21909575538933276
1759584144135748000,5.109748046875,-0.28430501740276815,0.16922376323938368,-0.32733605761677026
1759584144145733000,5.119733154296875,-0.19671207414567468,0.04702946220040321,-0.24666823744773864
1759584144155717000,5.129717041015625,-0.18824819718301294,-0.09497019402682781,-0.1300463297136128
1759584144165702100,5.1397021484375,-0.1261357321411371,-0.18092296886146067,-0.026394378189742565
1759584144175686100,5.14968603515625,0.009610124388337134,-0.21592413961589335,0.05836114968433976
1759584144185670100,5.159670166015625,-0.0253536369651556,-0.07349953597486018,0.006873100639879703
1759584144195655200,5.1696552734375,-0.2265969247996807,0.0030389293044805524,-0.11966770517081021
1759584144205639200,5.17963916015625,-0.1901192517518997,-0.10992577109634875,-0.08024433405995368
1759584144215624200,5.189624267578125,-0.17056699454188345,-0.13736556668579578,0.1048933298870921
1759584144225608200,5.199608154296875,-0.09670622403919696,-0.09607026422321796,0.31382600318044424
1759584144235592200,5.20959228515625,-0.050692660883069035,-0.0010556465327739716,0.42340982897132634
1759584144245577200,5.2195771484375,0.10515081177949905,0.038138884258270264,0.415467345534265
1759584144255561200,5.229561279296875,0.18145663734674453,0.10365794287323951,0.19315993462204933
1759584144265546000,5.2395458984375,0.01948299136608839,0.18246143047511576,-0.12377543275058268
1759584144275530000,5.249530029296875,-0.1424780873939395,0.14611235224306582,-0.39542116732746363
1759584144285514200,5.25951416015625,-0.19762977351248262,0.10212415743470192,-0.41782092292308803
1759584144295499000,5.2694990234375,-0.11896657116413116,0.003954290583729743,-0.190993404237926
1759584144305483000,5.27948291015625,-0.0013514146089553833,-0.08455576751828194,0.14865911411643026
1759584144315468000,5.289468017578125,0.04235825551897287,0.028984686943888664,0.42951399106532334
1759584144325452000,5.2994521484375,0.0989437738329172,0.047394788381457324,0.4122890077590942
1759584144335436000,5.30943603515625,0.23847382507622242,-0.06699672995209693,0.11014116741269826
1759584144345421000,5.319421142578125,0.13810060296207666,-0.06870937908887863,-0.1787520545631647
1759584144355405000,5.329405029296875,-0.009186638279259205,-0.05314589925408363,-0.33126901315152646
1759584144365390000,5.33939013671875,-0.06974690544307231,0.08299918572604656,-0.23942981062680482
1759584144375374000,5.3493740234375,-0.09719108494669199,0.07760112607479094,-0.14823796609491108
1759584144385358000,5.359358154296875,-0.10101531940996647,-0.04568097020089626,-0.0766213212572038
1759584144395343000,5.369343017578125,0.010989596047997475,-0.15667232470214365,0.0308610022097826
1759584144405327000,5.3793271484375,0.07043781031668185,-0.15665946522057056,0.019251959089189766
1759584144415312100,5.38931201171875,0.03301847250461578,-0.08986147271096706,-0.1237903380587697
1759584144425296100,5.399296142578125,-0.124410808044672,-0.1631406439334154,-0.29554142781868575
1759584144435280100,5.409280029296875,-0.20635230141133068,-0.23014029649496076,-0.4622057158336043
1759584144445265200,5.41926513671875,-0.19630144751816986,0.024209727627038956,-0.46975130890756844
1759584144455249200,5.429249267578125,-0.17357786679565906,-0.08655190977156162,-0.13126593463644384
1759584144465234000,5.43923388671875,0.1481070331916213,-0.287578339985013,0.3677713822491467
1759584144475218200,5.44921826171875,0.17457739922702312,-0.17814415179789064,0.338166663710773
1759584144485202200,5.4592021484375,0.03675765903294086,-0.011339140138030052,0.02074015182033181
1759584144495187000,5.46918701171875,-0.10531097077727317,-0.0056266077101230615,-0.13267755500003695
1759584144505171000,5.4791708984375,-0.15838029766380787,-0.04754267241954803,-0.26723215591832994
1759584144515156000,5.489156005859375,-0.23762802190184593,-0.10563538042604922,-0.5137690220713615
1759584144525140000,5.499139892578125,-0.06716244190782308,0.20295301436185836,-0.41312502019181846
1759584144535124000,5.5091240234375,0.14884586886018514,0.29134090738892554,-0.20761998325958847
1759584144545109000,5.51910888671875,0.07880816377699375,0.04423135591447353,-0.04797331892177462
1759584144555093000,5.529093017578125,-0.18522388092577458,-0.026586978152394292,0.07388488203063606
1759584144565078000,5.539078125,-0.2819815428912639,-0.00033259295523166654,0.035665041490644214
1759584144575062000,5.54906201171875,-0.11248773053884506,-0.05013035082519054,-0.24122370830625295
1759584144585046000,5.5590458984375,0.0559182865768671,-0.024702479580044744,-0.416196536591649
1759584144595031000,5.569031005859375,0.23855507361888884,-0.10546060838103294,-0.34342356132566926
1759584144605015000,5.57901513671875,0.23335750497579574,0.038916882893443104,-0.19566081152707337
1759584144615000000,5.589,-0.0344295083463192,0.18155308345854282,-0.12718451054170726
1759584144624983600,5.598983642578125,-0.2672223651766777,0.12307166839540004,-0.07304843120649457
1759584144634967600,5.608967529296875,-0.3154986125677824,0.007689385458827018,0.10334741561934352
1759584144644952600,5.61895263671875,-0.26442718150019645,-0.16168810703754424,0.22963863058313727
1759584144654936600,5.6289365234375,-0.22108020720481872,-0.20859189703166484,0.2959818650625646
1759584144664921600,5.638921630859375,-0.12315817763507365,0.04687573294341564,0.24033391985967753
1759584144674905600,5.648905517578125,-0.1538385625809431,0.2539800217658281,0.02247647409364581
1759584144684889600,5.6588896484375,-0.05229454312175512,0.13401567173600196,-0.2881893114902079
1759584144694874600,5.66887451171875,0.061712652069330215,0.007470774272084236,-0.4459880098737776
1759584144704858600,5.678858642578125,-0.02129413244128227,-0.05351940874159336,-0.34348186738416553
1759584144714843400,5.688843505859375,-0.3091927904218435,0.030106968972086905,-0.20675985929891466
1759584144724827600,5.69882763671875,-0.3802028476685285,0.10059738625884056,-0.05001140062063932
1759584144734812400,5.7088125,-0.2169371160507202,0.004226093262434005,0.22326748811602593
1759584144744796400,5.71879638671875,-0.028114333850145338,-0.030489830809831617,0.4147305556923151
1759584144754780400,5.728780517578125,0.16583061366975307,-0.12452712790071964,0.46555707208812236
1759584144764765400,5.738765380859375,0.15138415516614914,-0.14636486569941043,0.2754936421766877
1759584144774749400,5.74874951171875,0.1256359659254551,-0.08226385718882083,0.006596475655585527
1759584144784734500,5.758734375,0.04169102378189563,0.04355447956621647,-0.24569632367566227
1759584144794718500,5.768718505859375,-0.11695873847305774,0.10859539927542208,-0.334290260668844
1759584144804702500,5.778702392578125,-0.10343524003326893,0.029458149674534796,-0.20845891830176114
1759584144814687500,5.7886875,-0.05179916082024574,-0.0506201801687479,-0.0177406777434051
1759584144824671500,5.79867138671875,-0.07563304087221621,0.027960604593157766,0.1651860321559012
1759584144834656500,5.808656494140625,0.01040858128964901,0.03004793226122856,0.25189020987972616
1759584144844640500,5.818640625,0.007175882978737354,-0.054946811196208,0.2596773566246033
1759584144854624500,5.82862451171875,-0.0759326083406806,-0.13355097683370112,0.1302354225449264
1759584144864609500,5.838609619140625,-0.021701251937448977,-0.29211715245842934,-0.026348493221402168
1759584144874593500,5.848593505859375,0.018704992730915547,-0.32306934008300303,0.002154986076802015
1759584144884578600,5.85857861328125,-0.011458967125415801,-0.16643150217235086,0.18264307065233587
1759584144894562600,5.8685625,-0.010390461111068726,-0.14998480976223943,0.236628197209537
1759584144904546600,5.878546630859375,0.03793605516254902,-0.11935761630833149,0.22482801543101666
1759584144914531600,5.888531494140625,0.0641448476523161,-0.03161854257881641,0.1583542864397168
1759584144924515600,5.898515625,0.09236088831126689,0.13785598055124282,0.03922726401686668
1759584144934500400,5.908500244140625,0.025704934620857236,0.15182430014908313,-0.09008534459471702
1759584144944484400,5.918484375,-0.11031477041393518,-0.0439057772219181,-0.24835604440420864
1759584144954468600,5.928468505859375,-0.13427373815029858,-0.16691081012189388,-0.255106687708199
1759584144964453400,5.938453369140625,-0.09458411731868982,-0.17406068187654017,-0.030518180121481418
1759584144974437400,5.948437255859375,0.020817747101187705,-0.16436989346742628,0.2678121477633715
1759584144984422400,5.95842236328125,0.06071808807402849,-0.1286860011458397,0.4276274466663599
1759584144994406400,5.968406494140625,0.01941197195649147,-0.03912497268617153,0.3573644083946943
1759584145004390400,5.978390380859375,0.03966390186846256,-0.04291033644378185,0.138702368247509
1759584145014375400,5.98837548828125,-0.008877718460559845,-0.061580550122261046,-0.07806406741142273
1759584145024359400,5.998359375,-0.033923312389850614,-0.010126841738820076,-0.12387684729844331
1759584145034344700,6.0083447265625,-0.021406945165991783,0.032338673546910286,-0.0030202246040105817
1759584145044328400,6.018328369140625,-0.019197744683921335,0.06711947954893112,0.19073416877985
1759584145054312400,6.0283125,-0.0497357985496521,0.04368015177249908,0.30140315945893525
1759584145064297500,6.03829736328125,-0.10794044249802827,-0.014750409886240958,0.2944710221081972
1759584145074281500,6.048281494140625,-0.15760317581146954,-0.10129822800457478,0.1812397797256708
1759584145084266800,6.058266845703125,-0.14874854596555231,-0.17802140220105647,-0.03978022172451019
1759584145094250500,6.06825048828125,0.004922843354940414,-0.19949965903759,-0.139784026004374
1759584145104234500,6.078234375,0.039244799673557276,-0.14554770409762857,-0.11175357104539871
1759584145114219800,6.0882197265625,0.062301850134134286,-0.10068272645473479,-0.00670242024809122
1759584145124203500,6.09820361328125,0.051036359754204744,-0.048721068549156185,0.11183394280523061
1759584145134188500,6.1081884765625,0.03682663261592388,-0.04381400728523731,0.2131450302913785
1759584145144172500,6.118172607421875,0.10432634365409613,-0.028338790255784986,0.21407588140070438
1759584145154156500,6.128156494140625,0.12054302670061588,0.0013631050467491149,0.1747331743106246
1759584145164141600,6.1381416015625,0.08573445590883493,0.03668459379673004,0.044154491285979744
1759584145174125600,6.14812548828125,0.01654547660946846,0.04480301832258701,-0.08941665155291557
1759584145184110600,6.158110595703125,-0.05310936663597822,-0.04967442375123501,-0.13666063328683375
1759584145194094600,6.168094482421875,-0.06552636513859034,-0.16514789210259914,-0.006372457641363144
1759584145204078300,6.178078369140625,-0.044320203241705894,-0.19912381146252153,0.14518267017751932
1759584145214063600,6.188063720703125,-0.03754997845441103,-0.2174871511489153,0.2371066283762455
1759584145224047600,6.198047607421875,0.008417115211486815,-0.10744739828407764,0.2488587332293391
1759584145234032600,6.20803271484375,0.05637246008515358,0.00034019173979759216,0.16020985117852687
1759584145244016600,6.2180166015625,0.08444061670601367,0.043325346985459326,0.012024199792742728
1759584145254000600,6.228000732421875,0.05365151068866253,0.03201426389813423,-0.06502133822590113
1759584145263985700,6.237985595703125,-0.04692775539159774,0.0000011690437793731689,-0.09395926341861485
1759584145273969700,6.2479697265625,-0.056007718425989145,-0.022852467799186704,0.029187223778665065
1759584145283954700,6.25795458984375,0.003028115649521351,-0.05858838256895542,0.179592597040534
1759584145293938700,6.267938720703125,0.04111351615488529,-0.04790449146926403,0.25699381662905213
1759584145303922700,6.277922607421875,-0.0019224924951791761,0.02331248652637005,0.16201602381765842
1759584145313907700,6.28790771484375,0.001442307762801647,0.02527472651004791,-0.02139700829386711
1759584145323891700,6.2978916015625,0.06413198817074299,-0.0036906712114810943,-0.12794307382404804
1759584145333876700,6.307876708984375,0.022866496324539184,0.02918868508338928,-0.09829144740402698
1759584145343860700,6.31786083984375,0.022633856612443923,0.01840542526245117,0.005998655892908573
1759584145353845500,6.327845458984375,0.06327361777573824,-0.057578913265466686,0.15076339291930196
1759584145363829500,6.33782958984375,0.02372106732726097,-0.10726385841071605,0.27612843294888734
1759584145373813500,6.3478134765625,-0.026167291435599326,-0.17692367009222507,0.29445085610300303
1759584145383798500,6.357798583984375,0.009326046749949454,-0.19621172340810297,0.21487083117067812
1759584145393782500,6.367782470703125,0.09161737646758555,-0.14300854100883006,0.10092617982178925
1759584145403767600,6.377767578125,0.07407470551431179,-0.04476794700920581,-0.07432078922986984
1759584145413751600,6.38775146484375,0.06335720440596342,-0.05731763198077678,-0.22576281206309795
1759584145423735600,6.397735595703125,0.08423807987123727,-0.08527297587692736,-0.20661942791491747
1759584145433720600,6.407720458984375,0.05259031119793653,-0.04731003270745277,-0.09498977551013231
1759584145443704600,6.41770458984375,-0.05130348625779152,-0.05131809930503368,0.05775514661520719
1759584145453689600,6.427689697265625,-0.05136427653431892,-0.038566169759631154,0.22010814730226994
1759584145463673600,6.437673583984375,0.010791443127393722,-0.013027239355444907,0.33634850837290287
1759584145473657600,6.44765771484375,0.04536240577101707,0.023023732712864873,0.3510214691087603
1759584145483642600,6.457642578125,0.02703589096367359,0.004265256229043007,0.24503800589740274
1759584145493626600,6.467626708984375,-0.009107727824151516,-0.04810907413065433,0.029059213484823702
1759584145503611600,6.477611572265625,-0.0003407762616872787,-0.07127309209704398,-0.1544663390904665
1759584145513595600,6.487595703125,0.01190612637102604,-0.07060615262091159,-0.16439590469151735
1759584145523579600,6.49757958984375,-0.001784253068268299,-0.03659399290382862,-0.07268237437307834
1759584145533564700,6.507564697265625,-0.012220891408622264,-0.0697650256216526,0.08547843532115221
1759584145543548700,6.517548583984375,-0.0005807224974036216,-0.08630933318734169,0.22913901049792765
1759584145553533400,6.527533447265625,0.03618921149522066,-0.057226446565985675,0.21988632124513385
1759584145563517700,6.537517578125,0.0510907202899456,-0.05254033457636833,0.10881401046216488
1759584145573501700,6.547501708984375,0.03479834165871143,-0.042218262526392936,-0.027088790194690227
1759584145583486500,6.557486572265625,-0.019864976420998572,-0.0312748437076807,-0.14567980604469774
1759584145593470500,6.567470458984375,-0.06112345400452614,0.02497194417119026,-0.20766864470690488
1759584145603455500,6.57745556640625,-0.036133097393810744,0.03163841632306576,-0.15371873559355734
1759584145613439500,6.587439453125,-0.0004953823015093803,-0.07098784541487693,0.030879414649307727
1759584145623423500,6.597423583984375,-0.014179332000017164,-0.046943537482619285,0.23984277534186837
1759584145633408500,6.607408447265625,0.030842882031202314,-0.00803834502696991,0.28340982212871313
1759584145643392500,6.617392578125,0.0421370139837265,-0.009844517666101456,0.15636048227399588
1759584145653377500,6.62737744140625,-0.03805179049670696,-0.058954877793788905,-0.08745148895978927
1759584145663361500,6.637361572265625,-0.05081628726273775,-0.041514498171210286,-0.154286306348443
1759584145673345500,6.647345458984375,-0.04387362851798534,-0.07657353659272194,-0.10864040746092796
1759584145683330600,6.65733056640625,-0.007341010412573814,-0.1268330667555332,0.01397737968713045
1759584145693314600,6.667314453125,-0.03140051591396332,-0.036415129205584526,0.16335574798882008
1759584145703299600,6.677299560546875,0.006547521947324275,-0.001603343543410301,0.3349155529603362
1759584145713283600,6.68728369140625,0.04040419884175062,-0.03205518043041229,0.3769520291790366
1759584145723267600,6.697267578125,-0.007346271109580993,-0.048911622685194014,0.20442630178481339
1759584145733252600,6.707252685546875,-0.06199439162015914,-0.16615385427474974,-0.05416384412497282
1759584145743236600,6.717236572265625,0.0024009236618876455,-0.20407588091194628,-0.20968027679026124
1759584145753221600,6.7272216796875,0.041407822926342486,-0.02416121231019497,-0.21961744117587803
1759584145763205600,6.73720556640625,0.05505202513635158,0.060168929758667944,-0.12684271136671305
1759584145773189600,6.747189697265625,0.0877682998239994,0.005757540613412856,0.024621523298323154
1759584145783174400,6.75717431640625,0.04438771551996469,-0.07166238367557526,0.1533215529695153
1759584145793158700,6.76715869140625,-0.04519757059812546,-0.10073299533724785,0.20139409448206425
1759584145803143400,6.777143310546875,-0.04938946933001279,-0.10534428852498531,0.1565066127464175
1759584145813127400,6.78712744140625,0.03582271627038717,-0.04214052111506462,0.06812222685068846
1759584145823112400,6.797112548828125,0.04297960228770971,-0.030720132434368132,-0.04431260445713996
1759584145833096400,6.807096435546875,0.0010927636727690697,-0.05029986217319965,-0.11600830588042735
1759584145843080400,6.81708056640625,0.02722673736065626,-0.09822305834293366,-0.07119155129343271
1759584145853065500,6.8270654296875,0.062457917478680604,-0.0688894118309021,0.08016834621429443
1759584145863049500,6.837049560546875,0.05912263557612896,-0.043265141230821605,0.21406039157062767
1759584145873034500,6.847034423828125,0.03148205671757459,-0.03293313230872154,0.18767741155773401
1759584145883018500,6.8570185546875,-0.03890460793375969,-0.06008534312844276,0.0652338119328022
1759584145893002500,6.86700244140625,-0.03180734314918518,-0.032221769168972965,-0.08472410982251166
1759584145902987500,6.876987548828125,0.055171267601847644,0.024661563047766684,-0.15618746379464865
1759584145912971500,6.886971435546875,0.13975275408327578,0.0033159926801919937,-0.08464929102063179
1759584145922956500,6.89695654296875,0.11133943728655576,-0.014852116695046423,-0.08089344561845063
1759584145932940500,6.9069404296875,0.04225742549300193,-0.05465279668569564,-0.04442161778956651
1759584145942924500,6.916924560546875,0.06816869634091853,-0.13467968860268592,0.09374562066793442
1759584145952909600,6.92690966796875,0.018501871374249457,-0.09489479070305824,0.16834142744690178
1759584145962893600,6.9368935546875,-0.02910159132182598,-0.0867705209583044,0.1485936476647854
1759584145972878300,6.94687841796875,-0.03889057940840721,-0.10060089339017868,0.10934446407705545
1759584145982862600,6.956862548828125,-0.03733516665995121,-0.11046470027863979,-0.07895224842280149
1759584145992846600,6.9668466796875,-0.05256313093006611,-0.14468670335412023,-0.26917437602728606
1759584146002831400,6.976831298828125,-0.01735971560180187,-0.1242588323533535,-0.2267427630111575
1759584146012815400,6.9868154296875,0.05119768779575824,-0.0804483321994543,0.0364729968726635
1759584146022800400,6.99680029296875,0.03260784587711096,-0.07990063518881797,0.27713702546954155
1759584146032784400,7.006784423828125,-0.037537411233782764,-0.1463748025715351,0.3505769402116537
1759584146042768400,7.016768310546875,-0.016173136165738105,-0.15568448270857332,0.28230887514948844
1759584146052753400,7.02675341796875,0.0982449779137969,-0.07233633741438389,0.11148293741047381
1759584146062737400,7.0367373046875,0.12004179918020963,0.013940847069025038,-0.0746904993250966
1759584146072722400,7.046722412109375,-0.006881283946335315,0.0253624047935009,-0.19868278969675301
1759584146082706400,7.05670654296875,-0.1254158934339881,-0.020323241582512853,-0.34837913790643216
1759584146092690400,7.0666904296875,-0.08689970029592514,-0.07123276008665562,-0.30312632998973127
1759584146102675500,7.076675537109375,0.008659691795706748,-0.1031704516172409,0.005438391661643982
1759584146112659500,7.086659423828125,0.037010757011175156,-0.08826748151779175,0.3313976079672575
1759584146122644700,7.096644775390625,-0.02181786405444145,-0.04887772041559219,0.4721943181455135
1759584146132628500,7.10662841796875,0.04059329167306423,-0.04090484184026718,0.41803836506605146
1759584146142612500,7.116612548828125,0.08610299696028233,-0.011283026036620139,0.2027811649262905
1759584146152597800,7.12659765625,0.09729191497266292,0.007898644295334815,-0.06803717891573906
1759584146162581500,7.13658154296875,0.07167027472108602,-0.0063303720653057095,-0.2252542780190706
1759584146172566500,7.14656640625,0.011654197436571121,-0.024268179816007613,-0.2942757917970419
1759584146182550800,7.15655078125,-0.0465548304259777,-0.09395721759200096,-0.39396044712513684
1759584146192534500,7.166534423828125,-0.017230536264181136,-0.1499345408797264,-0.24175591548681258
1759584146202519600,7.17651953125,0.05400514643192291,-0.12216156781315803,0.04633826506584882
1759584146212503600,7.186503662109375,0.09746960962712764,-0.14061726195812224,0.24830636004358528
1759584146222488600,7.196488525390625,0.08606938695162535,-0.1048047748208046,0.314637611824274
1759584146232472600,7.20647265625,0.05680792889297008,-0.038273908814787864,0.15894465354830026
1759584146242456300,7.216456298828125,0.05220657257735729,-0.025210429102182387,-0.0460126863732934
1759584146252441600,7.226441650390625,0.04385667738318443,0.028270401194691656,-0.09263649038225412
1759584146262425600,7.236425537109375,0.009586158990859985,0.0537614008039236,-0.1407268598124385
1759584146272410600,7.24641064453125,-0.03631108430922031,0.022847207102179527,-0.17249299416840075
1759584146282394600,7.25639453125,-0.06146130765676498,-0.03488777350783348,-0.08132628407776356
1759584146292378600,7.266378662109375,-0.04576981752812862,-0.08461655779480934,0.05764321067333221
1759584146302363600,7.27636376953125,0.0005851064115762711,-0.11488076315522193,0.18155659058988094
1759584146312347600,7.28634765625,0.035440146693587304,-0.08923428072333335,0.2466916183233261
1759584146322332700,7.296332763671875,0.07964782947152853,-0.094565120357275,0.2082198488488793
1759584146332316700,7.306316650390625,0.07698854713439941,-0.04484744198620319,0.105344873046875
1759584146342301700,7.3163017578125,-0.0029962592065334317,0.03661678925752639,0.013521744874119758
1759584146352285700,7.32628564453125,-0.03687105627954006,0.04859656538665295,-0.05119067353308201
1759584146362269700,7.336269775390625,-0.05146656786501407,-0.036139234873652455,-0.11893149985074997
1759584146372254700,7.346254638671875,-0.04408844031244516,-0.08475976565778255,-0.07498422157466411
1759584146382238700,7.35623876953125,-0.036538755585253234,-0.09570026186704635,0.017135259196162222
1759584146392223500,7.366223388671875,-0.003633680327236652,-0.11472644937634467,0.0972796400129795
1759584146402207500,7.37620751953125,0.025639175908267496,-0.08389642682671547,0.13103490235954524
1759584146412191700,7.386191650390625,0.05814736080318689,-0.03850888661444187,0.12774988933950662
1759584146422176500,7.396176513671875,0.029692542952299117,-0.02087503024637699,0.090911566285789
1759584146432160500,7.406160400390625,-0.029527415518462656,-0.036197687062621116,0.07835106765925884
1759584146442145500,7.4161455078125,-0.05567015703469515,-0.044268765315413475,0.08182897290289401
1759584146452129500,7.426129638671875,-0.07058686339855194,-0.04480827901959419,0.07643091325163841
1759584146462113500,7.436113525390625,-0.07555237685143947,-0.04284837712347507,0.03109977940171957
1759584146472098600,7.4460986328125,-0.04667348836958408,-0.18220073371231554,-0.016255846013128756
1759584146482082600,7.45608251953125,-0.015923545318841933,-0.16641630460321902,0.06498451334685088
1759584146492067600,7.466067626953125,0.006371288597583771,-0.05313070168495178,0.07348287710100412
1759584146502051600,7.476051513671875,0.03765899178683758,-0.008479074531793593,0.029008944602310655
1759584146512035600,7.48603564453125,0.0015676877081394194,0.011778116077184677,0.03376490695774555
1759584146522020600,7.4960205078125,-0.03253565742373466,-0.03315232801735401,0.047642625662684436
1759584146532004600,7.506004638671875,-0.009196282890439033,-0.10623276179730892,0.03065788085311651
1759584146541989600,7.51598974609375,-0.004539396995306015,-0.10479834508001803,0.046433249872922897
1759584146551973600,7.5259736328125,0.03397065866291523,-0.06966741046607494,0.011978314824402331
1759584146561957600,7.53595751953125,0.03852233061790466,-0.01481529181599617,0.013538988269865512
1759584146571942700,7.545942626953125,0.023995500354468822,-0.026162030738592145,0.05639321061223745
1759584146581926700,7.5559267578125,0.03267944980859756,-0.07211714170575141,0.12850041544586419
1759584146591911700,7.56591162109375,0.005392798954248428,-0.04852525371611118,0.19554390714913605
1759584146601895700,7.575895751953125,-0.06509761833250523,-0.0432002593010664,0.20787585771679876
1759584146611879700,7.585879638671875,-0.12554653407633304,-0.05794131683707237,0.261195944494009
1759584146621865500,7.595865478515625,-0.15293839887082575,-0.13774492139220237,0.013472937296330928
1759584146631849500,7.605849365234375,0.011581424461305142,-0.11623685393929481,-0.21916268314570186
1759584146641834500,7.61583447265625,0.16778642391264437,-0.043451603713631624,-0.09085779027193784
1759584146651818500,7.625818603515625,0.14725743062496185,-0.02112345204949379,0.009369593630731105
1759584146661802500,7.635802490234375,0.0070376435518264766,-0.008424129474163055,0.02320434997677803
1759584146671787500,7.64578759765625,-0.019098960484564304,-0.06230535726547241,-0.020994564972817896
1759584146681771500,7.655771484375,0.05771598364859819,-0.07006313178539275,-0.03286123611629009
1759584146691756500,7.665756591796875,0.0062087915122509,-0.06417232018113136,-0.10987842482328414
1759584146701740500,7.675740478515625,-0.025517303094267845,-0.06781389155387878,-0.04870236384868622
1759584146711724500,7.685724609375,0.05383388151824474,-0.04080138146579265,0.1763189821973443
1759584146721709600,7.69570947265625,0.11227350326627493,0.006007715982198715,0.31474487159103154
1759584146731693600,7.705693603515625,0.10586977370381355,0.06315291400551795,0.18138386437147855
1759584146741678600,7.7156787109375,-0.01658113244473934,0.03412380339801311,-0.019574176780879495
