time,seconds_elapsed,z,y,x
1759649972731340300,49.27834033203125,-5.217565136939287,-11.682779387933016,5.076411868408322
1759649972741423400,49.28842333984375,-5.5551113306641575,-12.106226918566229,5.191906964069605
1759649972751506400,49.29850634765625,-5.758275357428193,-11.92348667114973,5.291074609786271
1759649972761590500,49.30859057617187,-6.061597794511914,-11.2078647049129,5.362072392073273
1759649972771673300,49.31867333984375,-6.474336299604177,-10.160207417327165,5.368656446638704
1759649972781756400,49.32875634765625,-6.71577540422678,-9.214166922175885,5.21562101713419
1759649972791839500,49.33883959960937,-6.521051289027929,-8.41886117837131,4.903924719458818
1759649972801922300,49.34892236328125,-6.041572659093141,-7.381663910001516,4.563440134194493
1759649972812005600,49.35900561523437,-5.377164162743092,-5.557040837422013,4.266609104956686
1759649972822088400,49.36908837890625,-4.864583765934407,-2.375367195826769,4.05252591703236
1759649972832171500,49.379171630859375,-4.108113948741555,2.730941213673353,3.7107860710099336
1759649972842255400,49.38925537109375,-3.5511963975563643,9.957200626951456,2.478996497127413
1759649972852338400,49.39933837890625,-3.2827348459735517,14.710444955599309,-0.4558791431605815
1759649972862421500,49.40942138671875,-2.173886299844086,9.923573082637786,-1.849459992194176
1759649972872504600,49.419504638671874,0.0273518250450491,3.269071939063072,-0.212446526633203
1759649972882587400,49.42958740234375,1.7490815093830228,1.2687176210463047,1.2388164037793874
1759649972892670500,49.43967041015625,2.9308225655049083,2.197714042416215,2.110088365933299
1759649972902753300,49.44975317382813,3.3567414546877146,4.267878394240141,2.93209711548537
1759649972912837600,49.45983764648437,3.042139498698712,6.442592669340968,3.0577099927961826
1759649972922920400,49.46992041015625,2.599339032819867,8.27040606239438,1.9131337152034045
1759649972933002800,49.48000268554687,1.938676152738929,9.657371292680502,-0.1356470723301172
1759649972943085600,49.49008544921875,1.1514504011459648,10.873975280129908,-2.491217096275091
1759649972953169000,49.5001689453125,0.7306126146197318,11.4099198936522,-4.188118921087682
1759649972963251700,49.51025170898438,1.0370404703728855,10.306481682133674,-5.1489001815140245
1759649972973334800,49.52033471679688,1.737028229626268,8.127737128603458,-6.1335150297313925
1759649972983417900,49.53041796875,2.274944435482472,5.710332287514209,-7.023898519590497
1759649972993501700,49.54050170898437,2.5361294201910494,3.550047519782185,-7.439217104303836
1759649973003584800,49.55058471679688,2.461905661594868,1.8830343450158835,-7.542641822943091
1759649973013667800,49.560667724609374,2.221561220341176,0.5344821397542954,-7.334433372271061
1759649973023750700,49.57075073242188,1.9857471159935,-0.6894061594843864,-7.097683886769413
1759649973033833700,49.580833740234375,1.7860668396919963,-1.8503923046082256,-6.945856079488992
1759649973043916800,49.59091674804687,1.688455191245675,-3.014920652383566,-6.89061876091361
1759649973053999900,49.60099975585938,1.62337569309175,-4.198324381020665,-6.886790142536163
1759649973064083000,49.6110830078125,1.5056290191113948,-5.311010897877812,-6.935660848689079
1759649973074166800,49.62116674804688,1.2480647091180086,-6.172960904935002,-7.008750634819269
1759649973084249900,49.63124975585937,0.9553161268882452,-6.728043349647521,-7.089810961437225
1759649973094332700,49.64133276367188,0.7107206040613353,-7.059301841405033,-7.203375381296873
1759649973104416000,49.651416015625,0.4787579144448041,-7.065273317030072,-7.332099960887431
1759649973114498800,49.66149877929688,0.2418370178990065,-6.944535060018301,-7.533850029200315
1759649973124582000,49.671581787109375,0.0306704480737447,-6.749311763125657,-7.810183337071537
1759649973134664700,49.68166479492187,-0.1472837341099977,-6.579291881072521,-8.19254307051301
1759649973144747800,49.691747802734376,-0.3498609008967876,-6.562566956242919,-8.622787421679496
1759649973154832000,49.70183178710938,-0.5559009214885533,-6.601133710524439,-8.983965835404396
1759649973164915000,49.7119150390625,-0.9143269677653908,-6.538433216461539,-9.21070596806705
1759649973174997800,49.72199780273438,-1.4137410090088844,-5.899520395895839,-9.149281485289334
1759649973185080800,49.73208081054688,-1.9803169076383116,-4.438113964870571,-8.742014689606428
1759649973195163600,49.74216357421875,-2.3941633739724755,-2.108840411698818,-8.351047286817431
1759649973205246700,49.75224682617188,-2.682452784836292,1.1533704094231128,-8.296364094993471
1759649973215329800,49.76232983398437,-3.039711394768953,5.63701746045649,-8.176313235723972
1759649973225412900,49.77241284179688,-3.776974407188594,11.438013184714316,-6.363470617309212
1759649973235496700,49.78249658203125,-3.841441910924017,16.259119335711002,-2.196522786805033
1759649973245579800,49.79257983398438,-3.004690350270271,16.949673496186733,2.40074289849326
1759649973255662600,49.80266259765625,-1.2623961629398166,14.749591555595398,5.007809456825256
1759649973265746000,49.81274584960938,0.5069141877405345,12.688280956834554,4.776045943042636
1759649973275828700,49.82282885742188,0.6346864350423217,11.513535750949382,3.994519718265533
1759649973285911800,49.83291186523437,-0.2558329561561346,10.955020409178733,3.9175843626230953
1759649973295995000,49.84299487304688,-1.1529871091939508,10.67496077426076,3.943232014098763
1759649973306078700,49.85307861328125,-1.9716811812400816,10.235146630716324,4.338547090703249
1759649973316161800,49.863161865234375,-2.5566572444349527,9.662956399336457,4.898504447975754
1759649973326244900,49.87324487304687,-2.8328184106096623,9.690585580018162,5.577547618877888
1759649973336327700,49.88332763671875,-2.968190173129737,9.39707375833094,5.94030482622683
1759649973346410800,49.89341064453125,-3.01707636911273,7.988010093483329,5.958080721414089
1759649973356493800,49.90349389648438,-2.8412860869646077,5.708911899322271,5.416320699611306
1759649973366576600,49.91357666015625,-2.6288331305906176,3.4692163257449864,4.797858838661015
1759649973376660000,49.92365991210937,-2.5379779706671832,1.4066349763959645,4.145492954543233
1759649973386743800,49.93374389648437,-2.473346800802648,-0.3514899634033441,3.5473631030037995
1759649973396826600,49.94382666015625,-2.373765021327138,-1.781289542287588,3.462057686161995
1759649973406909700,49.95390966796875,-2.2561364207684997,-3.1716011603921648,3.621289047697186
1759649973416992800,49.96399267578125,-2.2190295099064707,-4.579233331131935,3.923096696303785
1759649973427075800,49.974075927734376,-2.187127181950212,-6.012074177408218,4.223936376661062
1759649973437159000,49.98415893554687,-2.2805431322723626,-7.312048521983623,4.6333749634251
1759649973447241700,49.99424169921875,-2.6763036145567893,-8.43833277156055,5.16670121114254
1759649973457324800,50.00432470703125,-3.2590710617914795,-9.400547571921347,5.89138677380085
1759649973467409000,50.01440893554688,-3.9748227918878194,-10.169794745361804,6.898667627334595
1759649973477492000,50.02449194335937,-4.711820723630487,-10.69838373542428,7.842073097807169
1759649973487574800,50.03457470703125,-5.139432095944881,-10.741754090595244,8.374878828781842
1759649973497657900,50.04465795898437,-5.110110139870644,-10.303912123906612,8.28978413208127
1759649973507740700,50.05474072265625,-5.025120072588324,-9.592581132861971,7.532524333554506
1759649973517823700,50.06482373046875,-5.173252532482147,-9.027152650702,6.585984656709432
1759649973527906800,50.07490673828125,-5.536668496000766,-8.705481486979126,5.714184286767244
1759649973537990000,50.08498999023438,-5.756446388435363,-8.434889937630295,5.041514742550254
1759649973548073700,50.09507373046875,-5.5590831569045775,-7.97657392271161,4.496036284746229
1759649973558156800,50.10515673828125,-5.095463774880766,-6.869386587792635,3.9194919498100873
1759649973568239600,50.11523950195313,-4.765065991605818,-4.779569440993666,3.489636890222132
1759649973578323000,50.12532299804688,-4.767672666972875,-1.250553603324294,3.3644051211833954
1759649973588405800,50.13540576171875,-4.766319206537306,4.396522309809923,3.144138860709965
1759649973598488800,50.14548876953125,-4.701586622124911,11.569261729824545,1.626923156440258
1759649973608571600,50.15557153320312,-3.79655618275404,14.941767155355214,0.2514151397138834
1759649973618655700,50.16565576171875,-1.6377677910596131,10.42223338290453,0.8002847012609243
1759649973628738800,50.17573876953125,0.4030880486935377,5.6794128331154585,1.590611487609148
1759649973638822000,50.18582177734375,1.922454939647764,4.683563474178314,1.5114838826194406
1759649973648904700,50.19590478515625,3.5529695447087284,5.592409087923169,1.7372367578104138
1759649973658987800,50.20598779296875,4.042629376918077,7.062168921273947,2.036955325183272
1759649973669070800,50.21607080078125,3.2412855219930408,8.637581670707464,1.618529422104359
1759649973679153700,50.22615356445313,2.3095675667047497,9.845113878428936,0.5868678682908416
1759649973689237000,50.23623706054688,1.6755781740158795,10.66861403558254,-0.7935609459638595
1759649973699320800,50.24632080078125,1.4318337150603533,11.054092193305491,-2.160552186496556
1759649973709403600,50.25640356445312,1.4043565100699662,10.133187308454511,-3.392361634123325
1759649973719486700,50.26648681640625,1.5161584503017365,7.984008456626534,-4.578209833303093
1759649973729569800,50.27656982421875,1.7277898611597715,5.663065509426594,-5.466252897515893
1759649973739652900,50.28665283203125,1.9869738813094795,3.700369014152885,-6.1276037598609925
1759649973749736000,50.29673583984375,2.041102946382016,1.980996122074127,-6.363236224031448
1759649973759818800,50.30681884765625,1.7900011104010043,0.4831891748905181,-6.225699392431974
1759649973769901800,50.31690185546875,1.442462661102414,-0.8182534886717796,-5.967829962012171
1759649973779985700,50.32698559570313,1.181460485614836,-2.033927501794696,-5.752670377027988
1759649973790069000,50.33706909179688,1.02465284409523,-3.216808083340525,-5.742109235525131
1759649973800151800,50.34715185546875,0.9535936870098114,-4.287134883373976,-5.861011509281396
1759649973810235000,50.35723486328125,0.8852379436641931,-5.234281878462434,-6.099131698614358
1759649973820317700,50.36731762695312,0.8467226273089646,-6.026327743688225,-6.380422336632013
1759649973830400800,50.37740087890625,0.8121417277932167,-6.619537966743112,-6.680608229255676
1759649973840483600,50.387483642578125,0.744157740369439,-7.0913815717548125,-6.93808310739994
1759649973850567000,50.39756689453125,0.6191250010341406,-7.323398183515668,-7.139566633731127
1759649973860650800,50.40765063476562,0.5091676657557487,-7.390970667529106,-7.335586633959412
1759649973870733800,50.41773388671875,0.385724241438508,-7.288735450935364,-7.551518372359872
1759649973880816600,50.42781665039063,0.2090681362412869,-7.154148116791248,-7.915163468459248
1759649973890900000,50.43789990234375,0.0086719667553901,-7.05207130562961,-8.22521667510271
1759649973900982800,50.447982666015626,-0.1624701973259449,-7.113242105907202,-8.318558975666761
1759649973911065900,50.45806591796875,-0.3720098966017365,-7.267004680642485,-8.299479012143612
1759649973921148700,50.46814868164063,-0.7086924592345952,-7.325863696846365,-8.293532670959829
1759649973931231500,50.4782314453125,-1.1535036804139611,-7.019446800878644,-8.001655756998062
1759649973941315600,50.488315673828126,-1.6609321012869476,-5.891176345920562,-7.383352009218931
1759649973951398700,50.49839868164062,-2.2224279201731085,-3.712758540126681,-6.832615484756231
1759649973961481500,50.5084814453125,-2.3711317502141,-0.5759498761743307,-6.663993779063224
1759649973971564500,50.518564453125,-2.092192351497709,4.168596766754985,-6.569206540387868
1759649973981647600,50.52864770507812,-2.1260016821190715,11.394987697458266,-5.268349567759037
1759649973991730400,50.53873046875,-2.5510733068227767,19.63442462109327,-1.8185659644976255
1759649974001813800,50.54881372070312,-2.344103458034992,21.46792248952389,3.021364129434526
1759649974011896600,50.558896484375,-0.5881567390576005,14.97624108736515,5.647258283963799
1759649974021980400,50.56898046875,1.895161128400266,9.73565104866922,5.346017913851141
1759649974032063500,50.5790634765625,2.337018468210101,7.798014760372042,4.635701068285107
1759649974042146600,50.589146484375,1.1774737540662288,7.087417344298959,4.258985478210449
1759649974052229600,50.59922973632813,-0.1257701136991381,7.45472680812478,3.81757442086339
1759649974062312700,50.609312744140624,-1.0350357064217328,8.468895083084702,3.586693535134196
1759649974072395500,50.6193955078125,-1.4185546929009258,9.468229361528158,3.677015903355181
1759649974082478600,50.629478515625,-1.749461740872264,9.91006127463579,3.987854999679327
1759649974092561400,50.6395615234375,-2.182144425101578,9.258668327203392,4.501436974745989
1759649974102645800,50.64964575195312,-2.254914331627637,7.365381468242407,4.956528182399273
1759649974112728600,50.659728515625,-1.5631583941467109,5.029572960343956,5.00286089450717
1759649974122811600,50.669811767578125,-0.8999766631126404,2.92970028347671,4.608278223830461
1759649974132894500,50.67989453125,-0.7826208881460129,1.2155483409166334,3.990276673868298
1759649974142977500,50.6899775390625,-0.8808785794109105,-0.3085661829560995,3.3100100986510514
1759649974153060400,50.70006030273437,-0.8184129170171917,-1.729405041271448,2.868072971603274
1759649974163143700,50.71014379882813,-0.7199654022686183,-3.0826988881021737,2.682252293828129
1759649974173226500,50.7202265625,-0.5663667859233915,-4.235768268752098,2.555715579670668
1759649974183310600,50.730310546875,-0.4516436975479125,-5.3336576139718295,2.5398668531537054
1759649974193393400,50.74039331054688,-0.6769079124391079,-6.487148434904217,2.881238742646574
1759649974203476500,50.7504765625,-1.2575905162237584,-7.681273464041948,3.4190380441248416
1759649974213559600,50.7605595703125,-2.1872996159076687,-8.803155094745755,4.05731958104968
1759649974223642600,50.770642578125,-3.15629896184206,-9.682522685071826,4.83376777191013
1759649974233725400,50.78072534179688,-3.600126432681084,-10.246060823440551,5.25670589171648
1759649974243808500,50.79080859375,-3.536549155783653,-10.35459017174244,5.196773108801246
1759649974253891600,50.8008916015625,-3.302194456464052,-10.013956533396245,4.5810473948165775
1759649974263975700,50.8109755859375,-3.4714749183267357,-9.658837273579834,3.6470571106821295
1759649974274058500,50.82105859375,-4.024939406448603,-9.605184009325503,2.7016239337742327
1759649974284141600,50.8311416015625,-4.761797637459636,-9.609298458907007,2.0491823540717364
1759649974294224400,50.841224365234375,-5.27820986751616,-9.461597960689664,1.796862374472618
1759649974304307500,50.85130737304687,-5.328585717535018,-8.850157084417342,1.917113286358863
1759649974314390500,50.861390625,-5.172662749895453,-7.380675483486056,2.187733185019344
1759649974324473600,50.8714736328125,-5.070369081112742,-4.563839947167039,2.5206664781212806
1759649974334556700,50.881556640625,-4.649986783269047,0.6323913098424673,2.923952679735422
1759649974344640500,50.891640625,-3.903622472766042,10.002516270971295,2.1056882312782106
1759649974354723300,50.90172338867188,-3.2519764273554084,19.36903999273777,-0.8391955928049981
1759649974364806400,50.91180639648437,-1.60185359711349,14.496044664549826,-0.8101444164961576
1759649974374889700,50.9218896484375,0.4042601612128317,4.732640516558289,1.5493082941010594
1759649974384972500,50.93197265625,2.1537277473039924,1.8959189610302447,2.575906719306112
1759649974395055600,50.9420556640625,4.214488164836168,3.142788322883844,2.954680410954356
1759649974405138400,50.952138427734376,5.292891303819418,5.068088276699185,3.2253099542260166
1759649974415221500,50.96222143554687,4.808175357753038,6.277700797826052,2.7403742279291152
1759649974425305600,50.9723056640625,4.068049649378657,7.119954170766472,1.288167440795153
1759649974435388700,50.982388671875,3.542457503044605,7.879070410814881,-0.6402946303129196
1759649974445471500,50.99247143554688,2.8263959763467312,8.935643995305895,-2.333677487219125
1759649974455554600,51.00255444335937,1.9874566963903604,9.66216554121971,-3.510595214837789
1759649974465637400,51.01263745117188,1.4184860115788875,9.113469582673908,-4.283314448302984
1759649974475720700,51.022720703125,1.448461024734378,7.430070505774021,-5.102088745978475
1759649974485803500,51.03280346679688,1.811128654103726,5.322561050418019,-5.751959598410129
1759649974495886600,51.042886474609375,1.90010106902048,3.3838469037562606,-6.135000299853086
1759649974505970400,51.052970458984376,1.6636463286817074,1.6306991678476332,-6.339780529642105
1759649974516053500,51.06305346679687,1.255524815865606,0.1410153213649988,-6.389913803076744
1759649974526136600,51.07313647460938,0.9523305352061986,-1.257446869969368,-6.491426550614833
1759649974536219600,51.0832197265625,0.7957423816561698,-2.5709242547184226,-6.760499512094259
1759649974546302500,51.09330249023437,0.7260685414493083,-3.817189805459976,-7.0003405338704585
1759649974556385500,51.10338549804688,0.716335667464137,-5.055538591727614,-7.182981412565708
1759649974566468400,51.11346826171875,0.6712199299305677,-6.251221956223249,-7.283823713496327
1759649974576551400,51.12355151367188,0.6981609822176397,-7.424335176992415,-7.117718959060311
1759649974586634800,51.133634765625,0.7822532238774002,-8.501297469517588,-6.750116649767756
1759649974596718600,51.143718505859376,0.9208119458705186,-9.41652547777593,-6.269815597534179
1759649974606801400,51.15380151367187,0.8709785321652889,-10.073188474565743,-5.683648863250017
1759649974616884500,51.16388452148438,0.8220235087297856,-10.321751731979846,-5.18145279007256
1759649974626967600,51.17396752929688,0.811290663921833,-10.16549266425371,-4.849594286595285
1759649974637050600,51.18405053710938,0.6739589995056391,-9.86424177274704,-4.976628721141815
1759649974647133700,51.1941337890625,0.4826007074780762,-9.644034256723522,-5.62569819406271
1759649974657216500,51.20421655273437,0.2726625104039907,-9.51194283104837,-6.445998678392171
1759649974667299600,51.21429956054688,0.0688062635920941,-9.394605322390792,-7.217712534207105
1759649974677383400,51.22438354492188,-0.2079167742490768,-9.088563689476253,-7.680680758845805
1759649974687466500,51.234466552734375,-0.7321773797184229,-8.150985902243852,-7.617040938106179
1759649974697549600,51.24454956054687,-1.5644805826611816,-6.314291868120431,-7.025837378698587
1759649974707632600,51.254632568359376,-2.4753023187845944,-3.520073821800947,-6.293479381716251
1759649974717715500,51.264715576171874,-2.6031834332883355,0.6990320659637451,-6.219611012428999
1759649974727798500,51.27479858398438,-2.3557547328621147,7.882456546121835,-7.865387922421097
1759649974737881300,51.28488134765625,-4.832372225898504,20.335301438140867,-7.621698993045091
1759649974747964700,51.29496459960937,-6.707119804084301,28.29995228334665,-0.6642981678433716
1759649974758048500,51.30504858398437,-4.175931347426772,20.19418382544517,7.124335162329674
1759649974768131600,51.31513159179688,0.4902278413556515,10.771582242625952,9.277201762759685
1759649974778214400,51.32521435546875,4.2266245928317305,8.016826438122987,7.62022833597064
1759649974788297500,51.33529736328125,3.6328105586647994,7.8970368601381775,6.220829156047105
1759649974798380500,51.345380615234376,1.7243758149325847,8.441496788549422,4.950337511065602
1759649974808463600,51.35546362304687,0.077985156956315,8.918619795268773,2.96105286859572
1759649974818546400,51.36554638671875,-0.8515227941323071,9.457928332266212,1.5188975198768078
1759649974828629500,51.37562939453125,-1.463602479764819,9.625524786564707,0.824144300276041
1759649974838713600,51.38571362304688,-2.1986533690929413,8.987025807496904,1.5739628428861498
1759649974848796700,51.39579663085937,-1.9828601623803377,7.505577874439954,2.7260820832043886
1759649974858879500,51.40587939453125,-0.7668951304215937,5.870582470703124,3.136449475251138
1759649974868962600,51.41596264648437,0.1863946782708168,4.3529508791089055,3.063150722545385
1759649974879045400,51.42604541015625,0.4529494463842362,2.8690748421221968,2.495049806305766
1759649974889128400,51.43612841796875,0.353610608819127,1.369313838261366,1.8820560015030203
1759649974899211500,51.44621142578125,0.1952747348189353,-0.0910445450156927,1.46522335896492
1759649974909294600,51.45629467773438,-0.0200164406556636,-1.4682377383500336,1.232565818952024
1759649974919378400,51.46637841796875,-0.2520359750259667,-2.778790175563097,1.163452827498317
1759649974929461500,51.47646142578125,-0.4255367579974234,-4.18333957785666,1.1429644584819674
1759649974939544300,51.48654443359375,-0.8896066602677106,-5.820788219964504,1.268435296973586
1759649974949627400,51.49662744140625,-1.66852767098248,-7.541062444797157,1.6765698154017328
1759649974959710500,51.50671044921875,-2.6231740819156166,-9.196278214263916,2.3429820527896283
1759649974969793300,51.51679321289063,-3.5334289779365062,-10.667466034591197,3.0811788389280435
1759649974979876400,51.52687646484375,-4.112888908058404,-11.887505841708183,3.671113401313126
1759649974989959200,51.53695922851563,-4.225054567036032,-12.630969754594563,3.9323534772098063
1759649975000043500,51.54704345703125,-4.019039242494106,-12.71447572079897,3.696214232560992
1759649975010126300,51.557126220703125,-3.947552799907327,-12.26925708786249,3.1879289025977253
1759649975020209400,51.56720947265625,-4.196103197839856,-11.690334917879104,2.745812619590759
1759649975030292200,51.57729223632813,-4.62488039906323,-11.077830796289444,2.41594762801826
1759649975040375300,51.587375244140624,-4.9141035836458204,-10.509069954836368,2.289240525729954
1759649975050458000,51.5974580078125,-4.837327802479267,-9.764078686252237,2.329118362610042
1759649975060541400,51.60754150390625,-4.852135495510697,-8.46919611185789,2.3846717613972723
1759649975070624300,51.61762426757812,-5.588389915409683,-5.9595706677109,2.475549279282987
1759649975080708400,51.62770825195312,-6.173619661104679,-1.340423259341717,2.502256084422767
1759649975090791200,51.63779125976563,-4.882161800462007,6.145853117778897,1.4163241573698817
1759649975100874200,51.647874267578125,-2.7424533722907305,15.779021112573146,-2.3686589303597807
1759649975110957300,51.65795727539062,0.1167705224245786,17.633642433053254,-3.0612942810237405
1759649975121040400,51.668040283203126,2.315484097272157,9.83753613665104,2.029924695894122
1759649975131123200,51.67812329101562,4.293835842317343,5.6555158246994015,6.3387961947798726
1759649975141206300,51.68820629882813,6.911248876488209,7.043750636529922,7.684183214008808
1759649975151289300,51.69828930664063,9.16098595160842,9.889936185973882,7.717788546490668
1759649975161373400,51.70837353515625,8.468826694023608,11.79137186459899,6.101783089905977
1759649975171456300,51.71845629882812,5.020775321382284,12.0542056394279,2.628037596298754
1759649975181539300,51.72853930664063,1.9302187055170532,11.073130071252583,-0.7538413683854043
1759649975191622100,51.7386220703125,0.7102063709288835,9.87339655458331,-3.4654975974828
1759649975201705200,51.74870532226562,0.7167249590426683,8.59801304590702,-5.28113890670538
1759649975211788300,51.758788330078126,1.0905044226001948,7.0762611595124,-6.218180687364936
1759649975221871400,51.76887133789062,1.1236607692055405,5.418622546812892,-6.400268023830652
1759649975231954400,51.77895434570313,0.8974246405422687,3.768329036179185,-6.0774511972039935
1759649975242037200,51.78903735351562,0.69866849334836,2.197360406672954,-5.397472206756472
1759649975252121000,51.79912109375,0.434635864123702,0.8550666772842407,-4.622072063644231
1759649975262204200,51.8092041015625,0.2949824787616729,-0.3337123146504163,-4.0496109063684935
1759649975272287500,51.81928759765625,0.1689706652611494,-1.520252003225684,-3.682811437891424
1759649975282370300,51.82937036132813,0.0740456255502998,-2.5951298906922338,-3.5435885529011486
1759649975292453400,51.83945336914063,0.0441021765768527,-3.550562483566999,-3.611589491459727
1759649975302536200,51.8495361328125,-0.054185763695836,-4.398231451815367,-3.784222186359763
1759649975312619300,51.85961938476562,-0.2332476148605346,-5.123032165285944,-4.074998445603251
1759649975322702000,51.8697021484375,-0.5032645791918039,-5.796625838610529,-4.44042019598633
1759649975332786400,51.87978637695313,-0.7307546534389256,-6.306771409487724,-4.813899288357794
1759649975342869200,51.889869140625,-0.9087282709755002,-6.732368811631202,-5.2541690667152405
1759649975352952300,51.89995239257812,-1.117008617839962,-7.120792959678172,-5.743152022576332
1759649975363035100,51.91003515625,-1.1835597959816455,-7.488027020180225,-6.266852071553468
1759649975373118500,51.92011840820312,-1.1674591405302286,-7.809426965746283,-6.698885059702396
1759649975383201300,51.930201171875,-1.2496103311248123,-8.142502151536942,-7.108328030380607
1759649975393284400,51.940284423828125,-1.27059159822464,-8.53812819378674,-7.510418300208449
1759649975403367200,51.9503671875,-1.273980071619153,-8.968977525109052,-7.894314157176018
1759649975413450200,51.9604501953125,-1.3376947111606596,-9.3154967143625,-8.145735726630686
1759649975423534300,51.97053442382813,-1.4987062341108917,-9.276245484948156,-8.250511859878896
1759649975433617400,51.980617431640624,-1.8288968043759464,-8.605066471549868,-8.092498057439922
1759649975443700200,51.9907001953125,-2.668300048582256,-7.077904250544309,-7.541462842291593
1759649975453783300,52.000783203125,-3.686919165471196,-4.531614670866728,-7.054312947076559
1759649975463866000,52.0108662109375,-3.4387516293764118,-1.1941525016665455,-7.284474286359548
1759649975473949200,52.02094921875,-1.577497300622612,3.3229438145041463,-7.928415164220333
1759649975484032500,52.03103247070312,0.1596158308081328,10.927952369511129,-7.919456781738996
1759649975494115300,52.041115234375,-0.245438403391838,21.620524788308146,-3.131847242152691
1759649975504199200,52.05119921875,-1.3529600848317145,24.03386603322029,5.390730331280827
1759649975514282200,52.0612822265625,-1.0560288100898263,16.72669476188421,10.294921008199452
1759649975524365300,52.071365234375,2.25599467421025,10.635655184310671,10.509733971703051
1759649975534448400,52.08144848632813,4.410694043025374,7.953008922728896,8.685219035673141
1759649975544531500,52.09153149414063,3.93523692369163,7.403729026815295,6.481413690644502
1759649975554614300,52.1016142578125,2.188905297538638,8.377751753869653,3.957730495050549
1759649975564697300,52.111697265625,0.6002206863388418,9.752383572283389,1.7505723324626683
1759649975574780200,52.1217802734375,-0.9971285850927232,10.153734421920776,0.7684934324637055
1759649975584863200,52.13186328125,-1.820149726557732,8.871668074479699,1.6614993797808884
1759649975594947300,52.141947265625,-1.498480024139583,6.704392424947023,2.8367084037855266
1759649975605030400,52.152030517578126,-0.7761370790846646,4.486214271172881,3.12881006641388
1759649975615113200,52.16211328125,-0.2345478838041424,2.5627935552328824,2.714058467933536
1759649975625196300,52.1721962890625,0.1244083238266408,0.9252560657978056,2.0672224531531334
1759649975635279000,52.18227905273437,0.2657560920163989,-0.6798714384198188,1.473380946457386
1759649975645362400,52.19236254882812,0.3269077492021024,-2.2852947107136248,1.0861848789006472
1759649975655445200,52.2024453125,0.4554569722257554,-4.032019720098376,1.121485617123544
1759649975665528300,52.2125283203125,0.2953653405994176,-5.924313476368784,1.6337497875899076
1759649975675612200,52.22261206054687,-0.4252027037374675,-7.980130153888464,2.413465163552761
1759649975685695200,52.2326953125,-1.7777865026026962,-10.000001657801866,3.471372919256985
1759649975695778300,52.2427783203125,-3.3206086495548486,-11.723360404646396,4.562048972097039
1759649975705861400,52.252861328125,-4.76357867565751,-12.912315337669847,5.34805380359292
1759649975715944200,52.26294409179688,-5.63371666534543,-13.312387837934493,5.434081397229432
