time,seconds_elapsed,z,y,x
1759645047909605400,0.05360546875,5.958120468902588,7.573608039093017,-1.6859668815612792
1759645047919563500,0.0635634765625,5.907542958831787,7.5528084121704095,-1.7344494651794433
1759645047929521700,0.073521728515625,5.862801315307617,7.556698989868163,-1.7284639610290526
1759645047939478300,0.083478271484375,5.855917985534668,7.568071447753906,-1.7012299171447753
1759645047949436400,0.0934365234375,5.871330658721924,7.556399714660644,-1.6817770286560059
1759645047959393500,0.1033935546875,5.908590422058105,7.563432682037353,-1.6713023963928222
1759645047969351400,0.113351318359375,5.912480999755859,7.548020008850097,-1.7545009040832518
1759645047979308300,0.123308349609375,6.050297232818603,7.52063632736206,-1.8531120849609375
1759645047989266400,0.133266357421875,6.087108083343505,7.52078596496582,-1.8697218589782714
1759645047999224300,0.143224365234375,6.017825872802734,7.4874167793273925,-1.8070237030029295
1759645048009181400,0.153181396484375,5.973832417297363,7.5080667686462395,-1.7621324218749999
1759645048019139600,0.1631396484375,5.927295122528076,7.5465236328125,-1.7338509147644041
1759645048029096200,0.17309619140625,5.915473751831055,7.533056248474121,-1.7342998275756836
1759645048039054000,0.18305419921875,5.930437512207031,7.529315308380126,-1.7515081520080564
1759645048049011200,0.19301123046875,5.9479451118469235,7.544727981567382,-1.7675193756103516
1759645048058969300,0.20296923828125,5.932981351470947,7.56537797088623,-1.7699135772705077
1759645048068927000,0.212927001953125,5.9379193923950195,7.553556600189209,-1.7616835090637206
1759645048078884000,0.222884033203125,5.953930615997314,7.561038480377197,-1.7464204734802244
1759645048088842200,0.23284228515625,5.93133533782959,7.563283044433593,-1.7181389663696287
1759645048098799000,0.242799072265625,5.870732108306885,7.589768900299072,-1.732055263519287
1759645048108757200,0.25275732421875,5.875969424438476,7.581987744903564,-1.7938555938720702
1759645048118715100,0.262715087890625,5.899462528228759,7.54607472000122,-1.8158523216247557
1759645048128672000,0.272672119140625,5.875221236419677,7.541286316680908,-1.8166005096435547
1759645048138630100,0.282630126953125,5.884349130249023,7.541286316680908,-1.764676261138916
1759645048148587300,0.292587158203125,5.89901361541748,7.536797188568115,-1.7214309936523438
1759645048158545200,0.302545166015625,5.886743331909179,7.529614583587646,-1.6977882522583008
1759645048168502000,0.312501953125,5.898265427398681,7.526172918701171,-1.6534955215454101
1759645048178460200,0.322460205078125,5.86714080581665,7.524077992248535,-1.6977882522583008
1759645048188417300,0.332417236328125,5.857264723968505,7.551012760925293,-1.7851766128540039
1759645048198375200,0.342375244140625,5.90529839477539,7.572410938262939,-1.8345570220947265
1759645048208333300,0.352333251953125,5.937769754791259,7.606378674316406,-1.8273744171142576
1759645048218290200,0.362290283203125,5.925948384094238,7.601739908599853,-1.8133084823608396
1759645048228248000,0.372248046875,5.876119062042236,7.6002435325622555,-1.8414403518676756
1759645048238205200,0.382205078125,5.8648962417602535,7.570316011810302,-1.9188029930114745
1759645048248163300,0.392163330078125,5.909637885284424,7.6008420829772945,-1.923591396331787
1759645048258120000,0.402119873046875,5.908141509246826,7.641693148803711,-1.8836381561279296
1759645048268078000,0.412078125,5.886743331909179,7.645434088897705,-1.8089689918518066
1759645048278036200,0.4220361328125,5.859210012817383,7.625981200408935,-1.7826327735900878
1759645048287993000,0.4319931640625,5.8731263099670405,7.556399714660644,-1.820191812133789
1759645048297951200,0.441951171875,5.94390489654541,7.554753701019287,-1.8546084609985352
1759645048307908000,0.451908203125,5.963657060241699,7.560888842773437,-1.8477251312255858
1759645048317866000,0.461865966796875,5.890334634399414,7.573907314300537,-1.852663172149658
1759645048327823000,0.471822998046875,5.84828646774292,7.602338459014892,-1.860893240356445
1759645048337781200,0.48178125,5.875969424438476,7.61670366897583,-1.8567033874511718
1759645048347739100,0.4917392578125,5.92445200805664,7.570316011810302,-1.8936638755798338
1759645048357696000,0.501696044921875,5.97592734375,7.58438194656372,-1.887229458618164
1759645048367654100,0.511654052734375,5.94375525894165,7.601290995788574,-1.8062755149841307
1759645048377611300,0.521611328125,5.89961216583252,7.599794619750976,-1.7489643127441405
1759645048387569200,0.531569091796875,5.830329955291748,7.6099699768066404,-1.7949030570983886
1759645048397526000,0.541526123046875,5.846640454101562,7.548319284057617,-1.9008464805603027
1759645048407484200,0.551484130859375,5.815066919708252,7.551611311340332,-1.9078794479370116
1759645048417442000,0.561442138671875,5.754762965393066,7.639448584747314,-1.8197428993225098
1759645048427399200,0.571399169921875,5.690119520568848,7.688828993988037,-1.701978105163574
1759645048437357300,0.581357421875,5.677101049041748,7.68015001296997,-1.6488567558288574
1759645048447314000,0.59131396484375,5.718101752471924,7.64872611618042,-1.6514005950927733
1759645048457272000,0.60127197265625,5.784690486145019,7.614159829711913,-1.69823716506958
1759645048467229200,0.611229248046875,5.858162549591064,7.5716627502441405,-1.8113631935119627
1759645048477187000,0.62118701171875,5.8928784736633295,7.541286316680908,-1.887229458618164
1759645048487144200,0.631144287109375,5.878213988494872,7.542633055114746,-1.8960580772399902
1759645048497102000,0.64110205078125,5.821351699066161,7.588422161865234,-1.882740330505371
1759645048507060000,0.65106005859375,5.777657518768311,7.603834835052489,-1.8034324005126952
1759645048517017000,0.66101708984375,5.754014777374267,7.6087728759765625,-1.7536030784606933
1759645048526975200,0.670975341796875,5.7326166000366205,7.620294971466064,-1.769165389251709
1759645048536932400,0.680932373046875,5.711068785095215,7.605929761505126,-1.8611925155639648
1759645048546890200,0.69089013671875,5.79037671508789,7.59096600112915,-1.918503717803955
1759645048556847000,0.70084716796875,5.836465097045898,7.624035911560058,-1.9274819740295408
1759645048566805200,0.71080517578125,5.801000984954833,7.624035911560058,-1.905036333465576
1759645048576762000,0.72076220703125,5.768679262542724,7.612962728881835,-1.8697218589782714
1759645048586720300,0.73072021484375,5.748478186035156,7.649474304199218,-1.8218378257751464
1759645048596677000,0.740677001953125,5.743091232299804,7.682693852233887,-1.786224076080322
1759645048606635000,0.750635009765625,5.744587608337402,7.671471031951904,-1.8945617012023925
1759645048616593200,0.76059326171875,5.8077346771240235,7.575403690338134,-2.0726304496765136
1759645048626550300,0.77055029296875,5.8277861160278315,7.568669998168945,-2.128594913482666
1759645048636508200,0.780508056640625,5.800552072143554,7.650521767425537,-2.0632032806396485
1759645048646465000,0.790465087890625,5.80339518661499,7.677456536102294,-1.9473837753295897
1759645048656423200,0.800423095703125,5.787683238220215,7.688380081176757,-1.8209400001525877
1759645048666380300,0.81038037109375,5.799654246520996,7.672668132781982,-1.767818650817871
1759645048676338200,0.820338134765625,5.777208605957031,7.6765587104797355,-1.7717092285156248
1759645048686295000,0.830294921875,5.7523687637329095,7.676708348083496,-1.828421880340576
1759645048696253200,0.840253173828125,5.779153894805908,7.670722843933105,-1.9024924942016601
1759645048706210000,0.8502099609375,5.814917282104492,7.630769603729248,-1.9686323150634764
1759645048716168200,0.860168212890625,5.776460417938232,7.6182000450134275,-1.9934721572875975
1759645048726126000,0.8701259765625,5.7529673141479485,7.663540238952637,-1.9788076721191405
1759645048736083000,0.8800830078125,5.709422771453857,7.677306898498535,-1.9116203880310056
1759645048746041000,0.890041015625,5.706729294586181,7.678055086517333,-1.862239978790283
1759645048755998200,0.899998291015625,5.716306101226806,7.68044928817749,-1.8249802154541015
1759645048765956000,0.9099560546875,5.68817423171997,7.6738652336120605,-1.8436849159240722
1759645048775913200,0.919913330078125,5.72678073348999,7.663989151763915,-1.9253870475769042
1759645048785871000,0.92987109375,5.8096799659729,7.663540238952637,-2.0178630867004395
1759645048795828200,0.939828125,5.827037928009033,7.6382514839172355,-2.110488763427734
1759645048805786000,0.9497861328125,5.7715223770141595,7.6485764785766595,-2.118868469238281
1759645048815744300,0.959744140625,5.706878932189941,7.682993127441406,-2.0335750350952146
1759645048825701000,0.969701171875,5.672611920928955,7.668029367065429,-1.9170073417663573
1759645048835659000,0.979658935546875,5.710919147491455,7.642890249633789,-1.8492215072631835
1759645048845616000,0.9896162109375,5.729474210357665,7.638850034332275,-1.8707693222045898
1759645048855574000,0.999573974609375,5.675155760192871,7.650970680236816,-1.9384055191040037
1759645048865531100,1.00953125,5.602731159973144,7.729081509399413,-1.9834464378356933
1759645048875489300,1.0194892578125,5.634603969573974,7.767089460754394,-2.011877582550049
1759645048885446100,1.029446044921875,5.666776054382324,7.743446719360351,-1.9949685333251952
1759645048895404000,1.039404052734375,5.66258620147705,7.714417024230957,-1.9029414070129393
1759645048905361200,1.049361083984375,5.653907220458984,7.668478279876709,-1.8704700469970703
1759645048915319300,1.0593193359375,5.6863785804748535,7.6659344406127925,-1.8468273056030273
1759645048925276200,1.069276123046875,5.678148512268066,7.687332617950439,-1.8673276573181152
1759645048935234000,1.079234130859375,5.612756879425048,7.730727523040771,-1.865382368469238
1759645048945192200,1.089192138671875,5.6115597785949705,7.723245642852783,-1.9111714752197264
1759645048955149000,1.099149169921875,5.653159032440185,7.726836945343017,-1.915361328125
1759645048965107200,1.109107177734375,5.6580970733642575,7.770082212829589,-1.946485949707031
1759645048975064000,1.11906396484375,5.68862314453125,7.811831104278564,-1.9907786804199217
1759645048985022000,1.12902197265625,5.710919147491455,7.845050652313232,-2.061557266998291
1759645048994979000,1.13897900390625,5.704185455322265,7.8356234832763665,-2.063951468658447
1759645049004937200,1.148937255859375,5.66258620147705,7.8244006629943845,-2.011877582550049
1759645049014894300,1.158894287109375,5.670068081665039,7.819911534881592,-1.9490297889709471
1759645049024852000,1.16885205078125,5.617096369934082,7.81437494354248,-1.8755577255249023
1759645049034809300,1.178809326171875,5.542576843261719,7.761103956604003,-1.8439841911315917
1759645049044767500,1.188767578125,5.524620330810547,7.742399256134033,-1.795800882720947
1759645049054724400,1.198724365234375,5.529408734130859,7.768885111999511,-1.7360954788208007
1759645049064682200,1.20868212890625,5.611410140991211,7.740304329681396,-1.7247230209350586
1759645049074639400,1.218639404296875,5.635352157592773,7.728333321380615,-1.7494132255554198
1759645049084597200,1.22859716796875,5.634454331970215,7.742399256134033,-1.809268267059326
1759645049094555400,1.238555419921875,5.640589473724365,7.757363016510009,-1.8932149627685546
1759645049104512500,1.248512451171875,5.6563014221191406,7.732672811889648,-1.9123685760498046
1759645049114470100,1.25847021484375,5.68188945236206,7.719504702758789,-1.8975544532775879
1759645049124427300,1.26842724609375,5.70089342803955,7.731774986267089,-1.8722656982421875
1759645049134385400,1.278385498046875,5.716306101226806,7.716511950683593,-1.8351555725097655
1759645049144342500,1.288342529296875,5.674407572174072,7.700201451873779,-1.8339584716796873
1759645049154300400,1.298300537109375,5.625625713348389,7.716661588287353,-1.8537106353759765
1759645049164257300,1.30825732421875,5.590161601257324,7.77606771697998,-1.843086365509033
1759645049174215400,1.31821533203125,5.580435157012939,7.800458646392822,-1.8507178833007811
1759645049184172300,1.32817236328125,5.590760151672363,7.821258273315429,-1.8614917907714843
1759645049194130400,1.33813037109375,5.621435860443115,7.811831104278564,-1.8752584503173828
1759645049204087300,1.34808740234375,5.589862326049804,7.806144875335693,-1.8947113388061523
1759645049214045200,1.358045166015625,5.593453628540039,7.826046676635742,-1.9276316116333008
1759645049224002300,1.368002197265625,5.633556506347656,7.818864071655273,-1.8824410552978514
1759645049233960400,1.37796044921875,5.660341637420654,7.798662995147705,-1.8140566703796386
1759645049243917600,1.38791748046875,5.688772782135009,7.7401546920776365,-1.8321628204345701
1759645049253875200,1.397875244140625,5.673809021759033,7.70588768081665,-1.8891747474670408
1759645049263832300,1.407832275390625,5.609614489746093,7.757662291717529,-1.8596961395263671
1759645049273790500,1.41779052734375,5.615300718688965,7.7799582946777335,-1.8128595695495604
1759645049283748400,1.427748291015625,5.640290198516845,7.779210106658935,-1.7559972801208494
1759645049293705500,1.43770556640625,5.6678235176086424,7.732672811889648,-1.745522647857666
1759645049303663400,1.447663330078125,5.702539441680908,7.726238394927978,-1.8044798637390136
1759645049313620200,1.4576201171875,5.68203908996582,7.725939119720459,-1.875707363128662
1759645049323578400,1.467578369140625,5.628768103027343,7.742099980926513,-1.8740613494873046
1759645049333535500,1.477535400390625,5.615899269104004,7.764246346282959,-1.8549077362060546
1759645049343493400,1.487493408203125,5.646724615478515,7.752574613189696,-1.8347066596984862
1759645049353450200,1.4974501953125,5.652261206817626,7.757363016510009,-1.7823334983825683
1759645049363408400,1.507408447265625,5.679046337890624,7.740304329681396,-1.8282722427368163
1759645049373365500,1.517365478515625,5.6769514114379875,7.717409776306152,-1.8688240333557127
1759645049383323400,1.527323486328125,5.63071339187622,7.774720978546142,-1.8602946899414061
1759645049393280300,1.5372802734375,5.598092394256591,7.788038725280761,-1.8315642700195311
1759645049403238400,1.54723828125,5.594501091766357,7.786542349243164,-1.829768618774414
1759645049413195300,1.5571953125,5.628768103027343,7.7699325752258295,-1.8336591964721678
1759645049423153400,1.5671533203125,5.673060833740234,7.754669539642333,-1.8192939865112303
1759645049433110300,1.5771103515625,5.6769514114379875,7.765144171905517,-1.8345570220947265
1759645049443068200,1.587068115234375,5.6209869476318355,7.767388735961914,-1.8100164550781248
1759645049453025300,1.597025390625,5.574599290466308,7.79537096786499,-1.804779138946533
1759645049462983400,1.6069833984375,5.566369222259521,7.781155395507812,-1.8441338287353515
1759645049472940500,1.6169404296875,5.635801070404052,7.775169891357422,-1.9182044425964355
1759645049482898200,1.626898193359375,5.70762712020874,7.771578588867187,-1.9330185653686522
1759645049492855300,1.636855224609375,5.6947582862854,7.798962270355224,-1.9208979194641111
1759645049502813400,1.6468134765625,5.6401405609130855,7.817966246032714,-1.8764555511474608
1759645049512770300,1.656770263671875,5.588066674804687,7.812728929901122,-1.8260276786804197
1759645049522728400,1.666728515625,5.604077898406982,7.809736177825927,-1.7993921852111816
1759645049532686300,1.676686279296875,5.6304141166687005,7.769184387207031,-1.8581997634887695
1759645049542643200,1.686643310546875,5.655104321289063,7.730128972625732,-1.9084779983520506
1759645049552601300,1.696601318359375,5.6872764060974115,7.7224974548339835,-1.9220950202941893
1759645049562558500,1.706558349609375,5.635052882385254,7.723096005249023,-1.8959084396362305
1759645049572516400,1.716516357421875,5.606921012878417,7.744793457794189,-1.8267758666992187
1759645049582473200,1.72647314453125,5.620538034820556,7.734169187927246,-1.758241844177246
1759645049592431400,1.736431396484375,5.66902061843872,7.740902880096435,-1.7395371437072753
1759645049602388500,1.746388427734375,5.689969882965087,7.748085485076904,-1.767070462799072
1759645049612346400,1.756346435546875,5.655253958892822,7.758859392547607,-1.8748095375061034
1759645049622303200,1.76630322265625,5.673958659362793,7.76948366241455,-2.024896054077148
1759645049632261400,1.776261474609375,5.724536169433593,7.767538373565674,-2.072181536865234
1759645049642218200,1.78621826171875,5.697302125549316,7.773823152923583,-1.968781952667236
1759645049652176400,1.79617626953125,5.649418092346191,7.805995237731933,-1.8339584716796873
1759645049662133500,1.806133544921875,5.598391669464111,7.8058456001281735,-1.7628806098937988
1759645049672091100,1.816091064453125,5.547514884185791,7.786841624450683,-1.7369933044433592
1759645049682048300,1.82604833984375,5.548562347412109,7.762600332641601,-1.7431284461975096
1759645049692006400,1.83600634765625,5.52252540435791,7.751676787567138,-1.754351266479492
1759645049701963500,1.845963623046875,5.5647232086181635,7.781155395507812,-1.7485153999328613
1759645049711921400,1.85592138671875,5.585073922729491,7.770680763244629,-1.7733552421569823
1759645049721878300,1.865878173828125,5.6441807762146,7.754819177246094,-1.8543091857910154
1759645049731836400,1.87583642578125,5.724236894226074,7.755417727661133,-1.9373580558776855
1759645049741793300,1.885793212890625,5.723039793395996,7.7495818611145015,-1.9747674568176268
1759645049751751400,1.89575146484375,5.679046337890624,7.776965542602539,-1.9598036964416503
1759645049761708300,1.905708251953125,5.632658680725097,7.795819880676269,-1.8947113388061523
1759645049771666200,1.915666259765625,5.597344206237793,7.768585836791992,-1.8174983352661132
1759645049781623300,1.925623291015625,5.589862326049804,7.795969518280029,-1.7711106781005859
1759645049791581400,1.93558154296875,5.567715960693359,7.796568068695068,-1.7896657409667969
1759645049801538600,1.94553857421875,5.568763423919678,7.817367695617675,-1.8118121063232422
1759645049811496200,1.95549609375,5.580884069824219,7.817517333221435,-1.7916110298156738
1759645049821453300,1.965453369140625,5.584176097106933,7.826345951843261,-1.7634791603088378
1759645049831411500,1.975411376953125,5.594201816558837,7.803900311279296,-1.756446192932129
1759645049841368300,1.985368408203125,5.621136585235595,7.776815904998779,-1.7489643127441405
1759645049851326500,1.995326416015625,5.622483323669433,7.771428951263427,-1.7868226264953613
1759645049861283300,2.005283447265625,5.6501662803649895,7.788188362884521,-1.7648258987426757
1759645049871241200,2.0152412109375,5.656002146911621,7.772626052093505,-1.7521067024230956
1759645049881198300,2.0251982421875,5.666476779174804,7.7148659370422354,-1.7754501686096191
1759645049891156500,2.035156494140625,5.6501662803649895,7.730877160644531,-1.7631798851013183
1759645049901113300,2.04511328125,5.618892021179199,7.7224974548339835,-1.786972264099121
1759645049911071200,2.0550712890625,5.626224263763428,7.716811225891113,-1.7892168281555174
1759645049921028400,2.0650283203125,5.652560482025146,7.748085485076904,-1.757493656158447
1759645049930986500,2.074986572265625,5.6857800300598145,7.750928599548339,-1.7583914817810058
1759645049940943400,2.084943359375,5.673509746551513,7.746289833831787,-1.7509096015930175
1759645049950901200,2.0949013671875,5.6860793052673335,7.761852144622802,-1.7950526947021483
1759645049960858400,2.1048583984375,5.70732784500122,7.746289833831787,-1.7917606674194335
1759645049970816300,2.114816162109375,5.680841989135742,7.754968814849853,-1.7865233512878418
1759645049980773400,2.1247734375,5.6377463592529296,7.778312281036376,-1.792808130645752
1759645049990731300,2.134731201171875,5.656002146911621,7.767837648773193,-1.8116624687194822
1759645050000688400,2.1446884765625,5.649418092346191,7.7519760627746574,-1.8136077575683593
1759645050010646300,2.154646240234375,5.6495677299499505,7.745392008209228,-1.8154034088134765
1759645050020603400,2.164603271484375,5.705981106567383,7.734468463134765,-1.8145055831909178
1759645050030561800,2.174561767578125,5.72618218307495,7.754070989227294,-1.7788918334960937
1759645050040518700,2.1845185546875,5.684134016418457,7.757662291717529,-1.7399860565185545
1759645050050476800,2.194476806640625,5.635801070404052,7.752125700378418,-1.7573440185546874
1759645050060433700,2.20443359375,5.64388150100708,7.733271362304687,-1.81944362411499
1759645050070391600,2.2143916015625,5.7152586380004875,7.7407532424926755,-1.8432360031127928
1759645050080348700,2.2243486328125,5.717652839660644,7.738359040832519,-1.8070237030029295
1759645050090306800,2.234306884765625,5.680692351531982,7.751676787567138,-1.7649755363464354
1759645050100264000,2.244263916015625,5.670516994476318,7.751676787567138,-1.7323545387268064
1759645050110221600,2.2542216796875,5.648520266723632,7.755717002868652,-1.7170915031433105
1759645050120178700,2.2641787109375,5.652859757232665,7.755417727661133,-1.7610849586486816
1759645050130136800,2.27413671875,5.697451763153076,7.7304282478332516,-1.8655320060729979
1759645050140093700,2.28409375,5.68862314453125,7.746140196228027,-1.893514237976074
1759645050150051800,2.2940517578125,5.667075329589843,7.781753945922851,-1.8812439544677733
1759645050160008700,2.3040087890625,5.664531490325928,7.784297785186767,-1.8402432510375974
1759645050169966600,2.313966552734375,5.661389100646972,7.785195610809326,-1.7690157516479492
1759645050179923700,2.323923828125,5.691017346191406,7.764246346282959,-1.730708525085449
1759645050189881900,2.3338818359375,5.700294877624511,7.74404526977539,-1.7473182991027831
1759645050199838700,2.343838623046875,5.70164161605835,7.692420296478271,-1.8225860137939451
1759645050209796600,2.353796630859375,5.688922419738769,7.664886977386474,-1.900696842956543
1759645050219753700,2.363753662109375,5.6678235176086424,7.7218989044189446,-1.9009961181640624
1759645050229712000,2.3737119140625,5.663633664703369,7.7866919868469235,-1.8378490493774413
1759645050239668500,2.38366845703125,5.682338365173339,7.784297785186767,-1.802983487701416
1759645050249626600,2.393626708984375,5.692214447021484,7.79552060546875,-1.779939296722412
1759645050259583700,2.403583740234375,5.682637640380859,7.7985133575439445,-1.7995418228149413
1759645050269541600,2.413541748046875,5.655553234100341,7.783250321960449,-1.8851345321655273
1759645050279498800,2.423498779296875,5.627122089385986,7.764695259094238,-1.9077298103332518
1759645050289456600,2.43345654296875,5.566668497467041,7.772326776885986,-1.8795979408264158
1759645050299413800,2.443413818359375,5.537788439941406,7.812728929901122,-1.7790414710998534
1759645050309371600,2.45337158203125,5.562029731750488,7.820210810089111,-1.7266683097839355
1759645050319328800,2.463328857421875,5.57998624420166,7.775169891357422,-1.703923394012451
1759645050329287000,2.473286865234375,5.615899269104004,7.7419503433227534,-1.7194857048034666
1759645050339243800,2.483243896484375,5.613355429840087,7.737461215209961,-1.7568951057434081
1759645050349201700,2.49320166015625,5.571456900787354,7.7693340248107905,-1.7868226264953613
1759645050359158800,2.50315869140625,5.56113190612793,7.803750673675537,-1.8228852890014646
1759645050369116000,2.513115966796875,5.587168849182128,7.805097412109374,-1.8418892646789549
1759645050379073500,2.523073486328125,5.623381149291992,7.823053924560546,-1.8785504776000976
1759645050389030700,2.53303076171875,5.632957955932617,7.819163346862792,-1.8751088127136228
1759645050398988800,2.54298876953125,5.626224263763428,7.79552060546875,-1.8676269325256347
1759645050408946000,2.55294580078125,5.566069947052002,7.817367695617675,-1.8748095375061034
1759645050418903800,2.56290380859375,5.52895982131958,7.849839055633544,-1.8592472267150877
1759645050428860700,2.572860595703125,5.5467666961669915,7.862258976745605,-1.826626229095459
1759645050438818800,2.58281884765625,5.5912090644836425,7.87168614578247,-1.7968483459472655
1759645050448775700,2.592775634765625,5.590161601257324,7.874828535461425,-1.8079215286254882
1759645050458733800,2.60273388671875,5.591508339691162,7.859266224670409,-1.8810943168640135
1759645050468690700,2.612690673828125,5.5638253829956055,7.8627078895568845,-1.943493197631836
1759645050478648600,2.622648681640625,5.525667794036865,7.879467301177978,-1.9247884971618652
1759645050488605700,2.632605712890625,5.542427205657959,7.8523828948974606,-1.8945617012023925
1759645050498563800,2.642563720703125,5.584325734710693,7.829338703918457,-1.8136077575683593
1759645050508521000,2.65252099609375,5.62457825012207,7.823353199768066,-1.7215806312561035
1759645050518478600,2.662478515625,5.636549258422852,7.801057196807861,-1.6949451377868652
1759645050528435700,2.672435791015625,5.607369925689697,7.795819880676269,-1.7248726585388183
1759645050538393900,2.682393798828125,5.540481916809082,7.793276041412353,-1.7877204521179197
1759645050548350700,2.692350830078125,5.463418550872802,7.799560820770263,-1.8279729675292968
1759645050558308900,2.702308837890625,5.491550420379638,7.8347256576538085,-1.7993921852111816
1759645050568265700,2.712265625,5.539434453582763,7.8435542762756345,-1.7465701110839842
1759645050578223600,2.7222236328125,5.579088418579102,7.831134355163574,-1.7254712089538573
1759645050588180700,2.7321806640625,5.56083263092041,7.8149734939575195,-1.7369933044433592
1759645050598139000,2.742138916015625,5.561880094146728,7.812429654693603,-1.8110639183044432
1759645050608095700,2.752095703125,5.525069243621826,7.846846303558349,-1.8837877937316894
1759645050618053600,2.7620537109375,5.496039548492432,7.867197017669677,-1.9051859710693357
1759645050628010800,2.7720107421875,5.529109458923339,7.87198542098999,-1.8833388809204101
1759645050637969000,2.781968994140625,5.566668497467041,7.850287968444824,-1.8468273056030273
1759645050647925500,2.791925537109375,5.6097641273498535,7.837718409729003,-1.7808371223449706
1759645050657883600,2.801883544921875,5.5726540016174315,7.847444853973388,-1.7688661140441893
1759645050667840800,2.8118408203125,5.544522132110595,7.842806088256835,-1.8095675422668456
1759645050677798000,2.8217978515625,5.5069630935668945,7.830386167144775,-1.8625392539978027
1759645050687755800,2.831755859375,5.463717826080322,7.863755352783203,-1.8537106353759765
1759645050697712600,2.841712646484375,5.504419254302978,7.8815622276306145,-1.8324620956420898
1759645050707670800,2.8516708984375,5.541080467224121,7.873781072235107,-1.8032827629089354
1759645050717627600,2.861627685546875,5.571456900787354,7.8541785461425775,-1.758840394592285
1759645050727585800,2.871585693359375,5.5545478515625,7.856273472595214,-1.7561469177246092
1759645050737542700,2.881542724609375,5.529408734130859,7.838316960144042,-1.8014871116638183
1759645050747500500,2.89150048828125,5.499331575775146,7.832780368804931,-1.861641428375244
1759645050757457700,2.901457763671875,5.504718529510498,7.840561524200439,-1.8906711235046385
1759645050767415800,2.911415771484375,5.525667794036865,7.851634706878662,-1.8947113388061523
1759645050777373000,2.921373046875,5.567416685485839,7.826046676635742,-1.8664298316955565
1759645050787330600,2.93133056640625,5.594501091766357,7.790732202148437,-1.8237831146240233
1759645050797287700,2.94128759765625,5.5826797210693355,7.792827128601074,-1.774253067779541
1759645050807245800,2.951245849609375,5.572354726409912,7.808239801788329,-1.7576432937622068
1759645050817202700,2.96120263671875,5.559785167694091,7.794024229431152,-1.7950526947021483
1759645050827160800,2.971160888671875,5.5415293800354,7.8170684204101555,-1.8269255043029784
1759645050837117700,2.98111767578125,5.52895982131958,7.835324208068847,-1.8365023109436034
1759645050847075600,2.99107568359375,5.549909085845947,7.825448126220703,-1.8390461502075195
1759645050857032700,3.00103271484375,5.589114138031006,7.800608283996581,-1.8371008613586424
1759645050866989600,3.010989501953125,5.590760151672363,7.803002485656738,-1.7890671905517577
1759645050876947700,3.02094775390625,5.580584794616699,7.818265521240234,-1.786224076080322
1759645050886904800,3.03090478515625,5.578190592956543,7.823652474975585,-1.8089689918518066
1759645050896862700,3.04086279296875,5.594351454162597,7.8636057151794425,-1.852064621734619
1759645050906819800,3.05081982421875,5.6097641273498535,7.877372374725342,-1.8815432296752927
1759645050916777700,3.06077783203125,5.600935508728027,7.8532807205200195,-1.9425953720092772
1759645050926734600,3.070734619140625,5.568613786315917,7.830386167144775,-1.94079972076416
1759645050936692700,3.080692626953125,5.549011260223389,7.819312984466552,-1.8810943168640135
1759645050946649900,3.09064990234375,5.537040251922607,7.832780368804931,-1.7651251739501952
1759645050956607700,3.100607666015625,5.50950693283081,7.8149734939575195,-1.7203835304260253
1759645050966564600,3.110564697265625,5.479429774475097,7.7690347496032715,-1.7573440185546874
1759645050976522800,3.120522705078125,5.483918902587891,7.773374240112304,-1.7533038032531738
1759645050986479900,3.13047998046875,5.4613236244201655,7.828141603088379,-1.7428291709899901
1759645050996437800,3.140437744140625,5.486313104248047,7.828291240692138,-1.770362490081787
1759645051006394600,3.15039453125,5.536890614318847,7.837269496917724,-1.8148048583984373
1759645051016352800,3.160352783203125,5.558737704467773,7.819761897277831,-1.8861819953918455
1759645051026309600,3.1703095703125,5.560234080505371,7.794173867034911,-1.944091748046875
1759645051036266000,3.180265869140625,5.5720554512023925,7.8170684204101555,-1.9774609336853026
1759645051046224100,3.19022412109375,5.58627102355957,7.805396687316894,-1.9538181922912596
1759645051056181200,3.20018115234375,5.616797094726562,7.8058456001281735,-1.8908207611083983
1759645051066139000,3.210138916015625,5.578938780975341,7.822754649353027,-1.8659809188842773
1759645051076096000,3.220095947265625,5.569062699127197,7.828889791107177,-1.8203414497375487
1759645051086054100,3.23005419921875,5.56113190612793,7.866149554443359,-1.7872715393066405
1759645051096011300,3.24001123046875,5.559186617279052,7.893832511138916,-1.834257746887207
1759645051105969200,3.24996923828125,5.524919606018066,7.854477821350097,-1.8966566276550292
1759645051115926000,3.259926025390625,5.5181859138488765,7.829189066314697,-1.9834464378356933
1759645051125884200,3.26988427734375,5.536441701507568,7.870339407348633,-2.014870334625244
1759645051135841000,3.279841064453125,5.57953733139038,7.840860799407959,-2.00439570236206
1759645051145799200,3.289799072265625,5.641038386535644,7.819911534881592,-1.8755577255249023
1759645051155756000,3.299756103515625,5.644779326629639,7.803002485656738,-1.7782932830810545
1759645051165714000,3.3097138671875,5.63759672164917,7.7693340248107905,-1.7524059776306151
1759645051175671000,3.319671142578125,5.5798366065979,7.773224602508544,-1.76198278427124
1759645051185628200,3.329628173828125,5.5355438758850095,7.763797433471679,-1.7817349479675293
1759645051195586300,3.33958642578125,5.5157917121887206,7.752125700378418,-1.8480244064331053
1759645051205543200,3.349543212890625,5.515342799377441,7.78878691329956,-1.8719664230346678
1759645051215501000,3.3595009765625,5.558139154052734,7.797465894317627,-1.8676269325256347
1759645051225458200,3.369458251953125,5.6295162910461425,7.803301760864257,-1.8541595481872557
1759645051235416000,3.379416015625,5.664980403137207,7.784148147583007,-1.82587804107666
1759645051245373000,3.389373046875,5.6574985229492185,7.783998509979248,-1.867477294921875
1759645051255331000,3.3993310546875,5.621136585235595,7.814075668334961,-1.9111714752197264
1759645051265288200,3.4092880859375,5.617994195556641,7.82036044769287,-1.9265841484069823
1759645051275246000,3.41924609375,5.579387693786621,7.834576020050048,-1.9182044425964355
1759645051285203000,3.429202880859375,5.551255824279785,7.83981333618164,-1.890371848297119
1759645051295160000,3.43916015625,5.531204385375976,7.851933982086181,-1.8351555725097655
1759645051305118200,3.4491181640625,5.530007284545898,7.832930006408691,-1.8043302261352538
1759645051315075000,3.459074951171875,5.530755472564697,7.805995237731933,-1.786224076080322
1759645051325033200,3.469033203125,5.536890614318847,7.822156098937988,-1.7899650161743164
1759645051334990000,3.478989990234375,5.540182641601562,7.824550300598144,-1.820790362548828
1759645051344948000,3.488947998046875,5.522226129150391,7.817816608428955,-1.8115128311157225
1759645051354905000,3.498905029296875,5.5270145324707025,7.80779088897705,-1.8065747901916502
1759645051364863200,3.50886328125,5.524470693206787,7.780706482696533,-1.8427870903015136
1759645051374820000,3.518820068359375,5.510105483245849,7.807491613769531,-1.8496704200744627
1759645051384778000,3.528778076171875,5.516839175415039,7.825448126220703,-1.8486229568481445
1759645051394735000,3.538735107421875,5.550058723449706,7.816918782806396,-1.8596961395263671
1759645051404693200,3.548693359375,5.546467420959472,7.825148851013183,-1.8454805671691894
1759645051414650000,3.558650146484375,5.499331575775146,7.8269445022583,-1.8679262077331542
1759645051424607000,3.56860693359375,5.51609098739624,7.838466597747802,-1.8713678726196288
1759645051434565000,3.578565185546875,5.500079763793945,7.843703913879394,-1.8602946899414061
1759645051444522200,3.588522216796875,5.533598587036132,7.834276744842529,-1.8715175102233885
1759645051454480100,3.598480224609375,5.5446717697143555,7.81422530593872,-1.8701707717895506
1759645051464437000,3.60843701171875,5.5285109085083,7.827543052673339,-1.8581997634887695
1759645051474395100,3.61839501953125,5.536292063903808,7.823502837371826,-1.8332102836608886
1759645051484352000,3.62835205078125,5.562478644561767,7.792976766204833,-1.830367169189453
1759645051494310100,3.63831005859375,5.594950004577637,7.78280140914917,-1.8315642700195311
1759645051504267300,3.648267333984375,5.575946028900146,7.7866919868469235,-1.848922232055664
1759645051514225000,3.658224853515625,5.558139154052734,7.8058456001281735,-1.8905214859008788
1759645051524182000,3.66818212890625,5.577891317749023,7.813028205108642,-1.9032406822204588
1759645051534139100,3.67813916015625,5.612756879425048,7.843703913879394,-1.9002479301452635
1759645051544097300,3.68809716796875,5.606472100067139,7.874229985046386,-1.8900725730895995
1759645051554054100,3.69805419921875,5.578938780975341,7.863456077575683,-1.9156606033325194
1759645051564012000,3.708011962890625,5.553799663543701,7.857320935821533,-1.913266401672363
1759645051573969200,3.71796923828125,5.524321055603027,7.866149554443359,-1.8631378044128417
1759645051583927000,3.727927001953125,5.520131202697754,7.84026224899292,-1.7808371223449706
1759645051593884000,3.7378837890625,5.500678314208984,7.814075668334961,-1.7518074272155761
1759645051603842000,3.747842041015625,5.447108052062988,7.800009733581542,-1.7576432937622068
1759645051613799200,3.757799072265625,5.422866760253906,7.820210810089111,-1.7741034301757812
1759645051623756300,3.76775634765625,5.431246466064453,7.867795568084716,-1.792808130645752
1759645051633714200,3.777714111328125,5.474042820739745,7.866748104858398,-1.8183961608886718
1759645051643671000,3.787671142578125,5.505167442321777,7.874379622650146,-1.8855834449768065
1759645051653629200,3.797629150390625,5.519383014678954,7.859715137481689,-1.959205146026611
1759645051663586000,3.8075859375,5.570409437561035,7.860762600708007,-2.0063409912109376
1759645051673544200,3.817544189453125,5.59943913269043,7.851634706878662,-1.9770120208740234
1759645051683501000,3.8275009765625,5.5823804458618165,7.8709379577636716,-1.9150620529174804
1759645051693459000,3.837458984375,5.5449710449218745,7.882011140441894,-1.8779519271850584
1759645051703416000,3.847416015625,5.50935729522705,7.883058603668212,-1.8637363548278807
1759645051713374200,3.857374267578125,5.450250441741943,7.902661129760742,-1.8504186080932616
1759645051723331300,3.867331298828125,5.437531245422363,7.9035589553833,-1.8620903411865233
1759645051733288000,3.877287841796875,5.485714553833008,7.896376350402831,-1.8486229568481445
1759645051743246000,3.88724609375,5.4707507934570305,7.888744832611083,-1.85131643371582
1759645051753203200,3.897203125,5.44576131362915,7.880365126800537,-1.856553749847412
1759645051763161000,3.9071611328125,5.42062219619751,7.900865478515625,-1.8798972160339353
1759645051773118000,3.917117919921875,5.430049365234375,7.891737584686279,-1.8879776466369629
1759645051783076000,3.927076171875,5.474491733551025,7.894580699157714,-1.861641428375244
1759645051793033200,3.937033203125,5.551704737091064,7.8724343338012694,-1.8139070327758788
1759645051802991000,3.9469912109375,5.5659203094482415,7.842656450653076,-1.8218378257751464
1759645051812948000,3.956947998046875,5.516689537811279,7.821856823730468,-1.8177976104736326
1759645051822905000,3.966905029296875,5.461772537231445,7.838616235351562,-1.8082208038330077
1759645051832863000,3.976863037109375,5.410596476745605,7.874229985046386,-1.7776947326660155
1759645051844065300,3.988065185546875,5.409100100708008,7.871386870574951,-1.7706617652893066
1759645051854023000,3.99802294921875,5.486462741851806,7.888744832611083,-1.7546505416870115
1759645051863980000,4.00797998046875,5.531802935791015,7.9286980728149405,-1.7513585144042967
1759645051873938200,4.017938232421875,5.520430477905273,7.911190473175048,-1.8192939865112303
1759645051883895000,4.02789501953125,5.525967069244384,7.905204969024657,-1.868674395751953
1759645051893853200,4.037853271484375,5.514295336151123,7.89098939666748,-1.9144635025024412
1759645051903810000,4.04781005859375,5.475988109588623,7.8906901214599605,-1.90892691116333
1759645051913767200,4.05776708984375,5.479130499267578,7.887996644592285,-1.9020435813903807
1759645051923725000,4.06772509765625,5.511751496887206,7.883657154083251,-1.882141780090332
1759645051933682200,4.07768212890625,5.520280840301513,7.873631434631347,-1.853411360168457
1759645051943640000,4.08764013671875,5.524321055603027,7.876175273895263,-1.8197428993225098
1759645051953597200,4.09759716796875,5.501276864624023,7.889941933441162,-1.7814356727600096
1759645051963555000,4.10755517578125,5.461173986816406,7.865700641632079,-1.7763479942321776
1759645051973512200,4.11751220703125,5.457582684326171,7.858069123840331,-1.7510592391967772
1759645051983470000,4.127469970703125,5.457881959533691,7.86540136642456,-1.7489643127441405
1759645051993427000,4.137427001953125,5.449951166534423,7.8652517288208,-1.7827824111938475
1759645052003384000,4.147384033203125,5.463119275665283,7.847893766784668,-1.7808371223449706
1759645052013342200,4.15734228515625,5.513846423339843,7.874080347442627,-1.7904139289855956
1759645052023299300,4.16729931640625,5.498583387756347,7.856722385406494,-1.7851766128540039
1759645052033257000,4.177257080078125,5.4686558670043945,7.857320935821533,-1.8031331253051757
1759645052043214800,4.18721484375,5.46461565170288,7.87168614578247,-1.8052280517578123
1759645052053172700,4.1971728515625,5.452644643402099,7.894431061553955,-1.7922095802307128
1759645052063129900,4.2071298828125,5.464765289306641,7.8924857727050775,-1.8192939865112303
1759645052073086700,4.217086669921875,5.450400079345703,7.885153530120849,-1.815702684020996
1759645052083044900,4.227044921875,5.467907678985595,7.882908966064453,-1.8013374740600585
1759645052093001700,4.237001708984375,5.474042820739745,7.8912886718749995,-1.8281226051330566
1759645052102959900,4.2469599609375,5.464316376495361,7.8782702003479,-1.8222867385864256
1759645052112917000,4.2569169921875,5.475239921569824,7.87198542098999,-1.8204910873413085
1759645052122874600,4.26687451171875,5.496488461303711,7.8547770965576165,-1.799092910003662
1759645052132831700,4.276831787109375,5.519233377075195,7.856423110198974,-1.7953519699096678
1759645052142790000,4.286789794921875,5.525368518829345,7.854926734161377,-1.8083704414367674
1759645052152747000,4.2967470703125,5.5081601943969725,7.8547770965576165,-1.8394950630187987
1759645052162704000,4.306703857421875,5.494992085266113,7.874978173065185,-1.865382368469238
1759645052172661800,4.316661865234375,5.514594611358643,7.8739307098388664,-1.89620771484375
1759645052182619000,4.326618896484375,5.538536627960204,7.890241208648681,-1.9015946685791014
1759645052192576800,4.33657666015625,5.552452925109863,7.877970925140381,-1.8944120635986328
1759645052202534000,4.346533935546875,5.543923581695556,7.850736881256103,-1.8752584503173828
1759645052212491800,4.35649169921875,5.508309832000732,7.847893766784668,-1.8276736923217773
1759645052222449000,4.366448974609375,5.504419254302978,7.880215489196777,-1.7549498168945312
1759645052232406000,4.376406005859375,5.448454790496826,7.872284696197509,-1.7214309936523438
1759645052242364000,4.386364013671875,5.3868040977478024,7.840112611389159,-1.741033519744873
1759645052252320800,4.39632080078125,5.366154108428955,7.88455497970581,-1.7806874847412109
1759645052262279000,4.40627880859375,5.391592501068115,7.898172001647949,-1.8198925369262695
1759645052272235800,4.41623583984375,5.458330872344971,7.929745536041259,-1.8306664443969725
1759645052282194000,4.42619384765625,5.514744248962402,7.9396216178894035,-1.8382979621887205
1759645052292150800,4.43615087890625,5.530456197357178,7.912088298797607,-1.8822914176940917
1759645052302108700,4.446108642578125,5.502025052642822,7.911789023590088,-1.9234417587280273
1759645052312065800,4.456065673828125,5.474940646362304,7.927500971984863,-1.9367595054626463
1759645052322023000,4.46602294921875,5.449202978515625,7.9283987976074215,-1.9355624046325683
1759645052331981000,4.47598095703125,5.45877978515625,7.9286980728149405,-1.9101240119934082
1759645052341937700,4.485937744140625,5.462221450042724,7.931541187286377,-1.8792986656188964
1759645052351895800,4.495895751953125,5.455338120269775,7.930942636871338,-1.8766051887512205
1759645052361853000,4.50585302734375,5.41373886642456,7.922413293457031,-1.8894740226745603
1759645052371810800,4.515810791015625,5.395183803558349,7.926154233551025,-1.8837877937316894
1759645052381767700,4.525767578125,5.402665683746338,7.9381252418518065,-1.8644845428466796
1759645052391725800,4.535725830078125,5.391442863464355,7.9289973480224605,-1.8269255043029784
1759645052401683000,4.545682861328125,5.392340689086914,7.924508219909668,-1.8148048583984373
1759645052411639800,4.555639892578125,5.408501550292969,7.924358582305908,-1.840692163848877
1759645052421598000,4.565597900390625,5.394285977935791,7.902661129760742,-1.8288707931518553
1759645052431554800,4.575554931640625,5.381117868804932,7.886649906158447,-1.8062755149841307
1759645052441512700,4.5855126953125,5.392789601898193,7.894131786346435,-1.8529624473571775
1759645052451469800,4.5954697265625,5.366603021240234,7.870189769744872,-1.9008464805603027
1759645052461428000,4.605427978515625,5.354332737731934,7.932738288116455,-1.945887399291992
1759645052471384800,4.615384765625,5.425111324310302,7.9007158409118645,-1.95995333404541
1759645052481342700,4.6253427734375,5.444564212799072,7.910891197967529,-1.8733131614685057
1759645052491299800,4.6352998046875,5.4792801368713375,7.971943340301514,-1.7886182777404784
1759645052501257000,4.645257080078125,5.503970341491699,7.941267631530761,-1.804779138946533
1759645052511214800,4.65521484375,5.40715481185913,7.911639385986327,-1.8673276573181152
1759645052521171700,4.665171630859375,5.364657732391357,7.93573104019165,-1.9378069686889647
1759645052531129900,4.6751298828125,5.374084901428223,7.999327021789551,-1.976712745666504
1759645052541087000,4.6850869140625,5.396979454803467,8.015787158203125,-2.0222025772094727
1759645052551044900,4.695044921875,5.467758041381836,7.9472531356811515,-2.041655465698242
1759645052561001700,4.705001708984375,5.525967069244384,7.948001323699951,-2.025045691680908
1759645052570960000,4.7149599609375,5.501725777435302,7.92301184387207,-1.9867384651184081
1759645052580917000,4.7249169921875,5.456834496307373,7.904905693817138,-1.9122189384460448
1759645052590873900,4.734873779296875,5.3944356155395505,7.877073099517822,-1.8478747688293455
1759645052600831700,4.744831787109375,5.386355184936523,7.879018388366699,-1.8167501472473144
1759645052610788900,4.754788818359375,5.326051230621338,7.934234664154053,-1.802983487701416
1759645052620746800,4.764746826171875,5.3013610260009765,7.959373781585693,-1.8094179046630858
1759645052630703900,4.774703857421875,5.322759203338623,7.914931413269042,-1.8795979408264158
1759645052640662000,4.784662109375,5.4236149482727045,7.87183578338623,-1.896806265258789
1759645052650619000,4.794618896484375,5.44591095123291,7.889493020629883,-1.8792986656188964
1759645052660576800,4.80457666015625,5.4707507934570305,7.868394118499755,-1.8748095375061034
1759645052670534000,4.814533935546875,5.453093556213378,7.859565499877929,-1.8851345321655273
1759645052680490800,4.82449072265625,5.353584549713134,7.887098818969726,-1.857152300262451
1759645052690448600,4.83444873046875,5.277718284606934,7.939920893096923,-1.8486229568481445
1759645052700405800,4.84440576171875,5.3293432579040525,7.924807495117187,-1.8676269325256347
1759645052710364000,4.854364013671875,5.408202275085449,7.908347358703613,-1.8677765701293945
1759645052720321000,4.864321044921875,5.505167442321777,7.889343383026122,-1.8713678726196288
1759645052730278700,4.874278564453125,5.504718529510498,7.882310415649414,-1.9180548049926758
1759645052740235800,4.88423583984375,5.483320352172851,7.883208241271972,-1.942745009613037
1759645052750194000,4.89419384765625,5.414636692047119,7.873631434631347,-1.954865655517578
1759645052760150800,4.90415087890625,5.4013189453125,7.890241208648681,-1.936310592651367
1759645052770109000,4.91410888671875,5.391442863464355,7.887697369384765,-1.8646341804504394
1759645052780065800,4.924065673828125,5.415833792877197,7.873032884216308,-1.8396447006225585
1759645052790023000,4.93402294921875,5.457433046722412,7.839364423370361,-1.8267758666992187
1759645052799980800,4.943980712890625,5.4433671119689935,7.834576020050048,-1.8423381774902343
1759645052809938000,4.95393798828125,5.444713850402832,7.848941230010986,-1.847575493621826
1759645052819895800,4.963895751953125,5.4779333984375,7.901613666534423,-1.9035399574279783
1759645052829853000,4.97385302734375,5.494842447662354,7.898022364044189,-1.933766753387451
1759645052839810800,4.983810791015625,5.502773240661621,7.9186723533630365,-1.9457377616882323
1759645052849768000,4.993767822265625,5.431994654083252,7.939322342681884,-1.959354783630371
1759645052859726000,5.00372607421875,5.427804801177978,7.920318367004394,-1.9512743530273435
1759645052869682700,5.0136826171875,5.4327428421020505,7.9035589553833,-1.9502268898010253
1759645052879639800,5.023639892578125,5.457732321929932,7.8900915710449215,-1.922992845916748
1759645052889598000,5.033597900390625,5.446359864044189,7.9086466339111325,-1.8465280303955076
1759645052899554800,5.043554931640625,5.40715481185913,7.885452805328368,-1.8210896377563475
1759645052909512700,5.0535126953125,5.384110620880127,7.859565499877929,-1.82587804107666
1759645052919469800,5.0634697265625,5.351639260864258,7.855974197387694,-1.8365023109436034
1759645052929428000,5.073427978515625,5.357175852203369,7.871386870574951,-1.8414403518676756
1759645052939384800,5.083384765625,5.41388850402832,7.884106066894531,-1.8441338287353515
1759645052949343000,5.093343017578125,5.467009853363037,7.873781072235107,-1.8709189598083495
1759645052959299800,5.1032998046875,5.492298608398437,7.853879270935058,-1.9182044425964355
1759645052969257700,5.1132578125,5.539135178375243,7.838316960144042,-1.9738696311950683
1759645052979214800,5.12321484375,5.509207657623291,7.848342679595947,-2.029684457397461
1759645052989171700,5.133171630859375,5.434388855743408,7.858817311859131,-2.042254016113281
1759645052999129900,5.1431298828125,5.400121844482421,7.892785047912597,-1.9801544105529785
1759645053009086700,5.153086669921875,5.3868040977478024,7.906102794647216,-1.8983026412963866
1759645053019044900,5.163044921875,5.430947190856934,7.904456781005859,-1.8426374526977538
1759645053029002000,5.173001953125,5.4607250740051265,7.882609690856933,-1.821538550567627
1759645053038959600,5.182959716796875,5.445162763214111,7.891438309478759,-1.8658312812805176
1759645053048916500,5.19291650390625,5.416133068084717,7.878719113159179,-1.9608511596679685
1759645053058874400,5.202874267578125,5.418976182556152,7.88470461730957,-2.0337246726989746
1759645053068831500,5.21283154296875,5.411943215179443,7.9001172904968255,-2.053177561187744
1759645053078789400,5.222789306640625,5.45863014755249,7.899069827270507,-1.9921254188537596
1759645053088746500,5.23274658203125,5.505317079925537,7.87168614578247,-1.8836381561279296
1759645053098703400,5.242703369140625,5.514444973754882,7.822754649353027,-1.8405425262451172
1759645053108661500,5.25266162109375,5.474940646362304,7.832780368804931,-1.824680940246582
1759645053118618400,5.262618408203125,5.4418707359313965,7.83352855682373,-1.8770541015625
1759645053128576500,5.272576416015625,5.4242134986877435,7.812130379486083,-1.958157682800293
1759645053138533600,5.28253369140625,5.493645346832275,7.835473845672607,-1.9823989746093749
1759645053148491300,5.2924912109375,5.495740273284912,7.8709379577636716,-1.9728221679687499
1759645053158448400,5.302448486328125,5.474641371154785,7.877522012329101,-1.9556138435363768
1759645053168406500,5.312406494140625,5.491251145172119,7.850287968444824,-1.9334674781799315
1759645053178363600,5.32236376953125,5.512499684906006,7.855076371765136,-1.8891747474670408
1759645053188321500,5.332321533203125,5.53524460067749,7.825148851013183,-1.8710685974121093
1759645053198278400,5.3422783203125,5.504419254302978,7.824849575805664,-1.9173066169738768
1759645053208235500,5.352235595703125,5.516689537811279,7.800907559204101,-1.988683753967285
1759645053218193400,5.362193359375,5.522675041961669,7.825747401428222,-2.03671742477417
1759645053228150300,5.372150390625,5.493196434020995,7.858218761444092,-2.0233996780395507
1759645053238108400,5.3821083984375,5.4610243492126465,7.8639049903869624,-1.946635587310791
1759645053248065500,5.3920654296875,5.481973613739013,7.842057900238037,-1.8860323577880858
1759645053258023400,5.4020234375,5.521627578735351,7.822904286956787,-1.8418892646789549
1759645053267980500,5.41198046875,5.5632268325805665,7.835773120880127,-1.85131643371582
1759645053277938400,5.4219384765625,5.538237352752685,7.802104660034179,-1.9349638542175291
1759645053287895600,5.4318955078125,5.514893886566162,7.821407910919189,-2.047640969848633
1759645053297853400,5.441853515625,5.518036276245117,7.868394118499755,-2.089988411712646
1759645053307810600,5.451810546875,5.559336254882812,7.8709379577636716,-2.0479402450561524
1759645053317768400,5.4617685546875,5.576095666503906,7.883956429290771,-1.9943699829101562
1759645053327725300,5.471725341796875,5.572354726409912,7.869591219329833,-1.9578584075927734
1759645053337682400,5.481682373046875,5.511003308868408,7.875875998687744,-1.9149124153137207
1759645053347640600,5.491640625,5.49708701171875,7.874529260253905,-1.9056348838806152
1759645053357597700,5.50159765625,5.494992085266113,7.874229985046386,-1.9364602302551268
1759645053367555300,5.511555419921875,5.494543172454834,7.877073099517822,-1.9608511596679685
1759645053377512400,5.521512451171875,5.531952573394775,7.888295919799805,-1.9692308654785156
1759645053387470600,5.531470703125,5.527912358093261,7.902661129760742,-1.9436428352355957
1759645053397427500,5.541427490234375,5.507711281585693,7.915829238891601,-1.9237410339355467
1759645053407385600,5.551385498046875,5.502473965454101,7.930792999267577,-1.9526210914611815
1759645053417342500,5.561342529296875,5.501127227020263,7.9192709037780755,-1.9934721572875975
1759645053427300400,5.57130029296875,5.452644643402099,7.916278151702881,-2.0061913536071776
1759645053437257500,5.581257568359375,5.4321442916870115,7.92929662322998,-1.9803040481567382
1759645053447215600,5.591215576171875,5.457881959533691,7.9286980728149405,-1.9415479087829588
1759645053457172500,5.60117236328125,5.444115299987793,7.911789023590088,-1.9014450309753417
1759645053467129300,5.61112939453125,5.446808776855469,7.864952453613281,-1.8764555511474608
1759645053477087500,5.62108740234375,5.433640667724609,7.864952453613281,-1.8819921424865722
1759645053487044600,5.631044677734375,5.443217474365234,7.930942636871338,-1.8327613708496093
1759645053497002200,5.641002197265625,5.493495709228515,7.931690824890136,-1.8586486763000487
1759645053506959400,5.65095947265625,5.457433046722412,7.933935388946533,-1.8555062866210936
1759645053516917500,5.66091748046875,5.414935967254638,7.972242615509033,-1.8263269538879394
1759645053526874600,5.67087451171875,5.382763882446289,7.968052762603759,-1.8977040908813476
1759645053536832500,5.68083251953125,5.36899722290039,7.998578833770751,-1.9246388595581054
1759645053546789400,5.690789306640625,5.360767154693603,8.013991506958007,-1.9180548049926758
1759645053556747500,5.70074755859375,5.296722260284423,7.9752353675842285,-1.8561048370361326
1759645053566704400,5.710704345703125,5.273977344512939,7.973140441131592,-1.821538550567627
1759645053576661500,5.72066162109375,5.223399834442138,7.9283987976074215,-1.7796400215148924
1759645053586619400,5.730619384765625,5.207089335632324,7.868244480895996,-1.77485161819458
1759645053596576500,5.740576416015625,5.336675500488281,7.872284696197509,-1.757493656158447
1759645053606534400,5.750534423828125,5.3782747543334954,7.858368399047851,-1.6742951484680175
1759645053616491500,5.760491455078125,5.368249034881591,7.836371671295166,-1.6865654319763184
1759645053626449700,5.77044970703125,5.316923336791992,7.809586540222168,-1.753004528045654
1759645053636406500,5.780406494140625,5.289988568115234,7.818415158843994,-1.8412907142639159
1759645053646364400,5.790364501953125,5.261258148193359,7.836970221710205,-1.9170073417663573
1759645053656321500,5.800321533203125,5.227888962554931,7.818564796447753,-1.9436428352355957
1759645053666279700,5.81027978515625,5.163095880126953,7.819312984466552,-1.9370587806701658
1759645053676236300,5.820236328125,5.137956762695312,7.8067434257507315,-1.9111714752197264
1759645053686194400,5.8301943359375,5.089923091888427,7.816918782806396,-1.8734627990722654
1759645053696151600,5.840151611328125,5.065382524871826,7.820958998107909,-1.8463783927917479
1759645053706109400,5.850109375,5.02438182144165,7.813028205108642,-1.8173486976623534
1759645053716066300,5.86006640625,4.98562568206787,7.81467421875,-1.8124106567382812
1759645053726023400,5.8700234375,4.908711953735351,7.779210106658935,-1.8345570220947265
1759645053735981600,5.879981689453125,4.829553661346435,7.689726819610596,-1.885284169769287
1759645053745938400,5.8899384765625,4.764610941314697,7.601590270996093,-1.9039888702392578
1759645053755896600,5.899896484375,4.748898992919922,7.523928354644775,-1.8510171585083006
1759645053765853400,5.909853515625,4.7369279846191406,7.451653392028808,-1.8191443489074706
1759645053775811300,5.919811279296875,4.712537055206298,7.426663912200928,-1.7477672119140624
1759645053785768400,5.9297685546875,4.697274019622802,7.417536018371582,-1.6953940505981444
1759645053795726600,5.9397265625,4.66061280670166,7.490708806610107,-1.6042647499084473
1759645053805683500,5.949683349609375,4.6815620712280275,7.576002240753174,-1.5236100814819336
1759645053815641300,5.959641357421875,4.707599014282226,7.647229740142822,-1.4959271247863768
1759645053825598500,5.969598388671875,4.69248561630249,7.7121724601745605,-1.5267524711608886
1759645053835555600,5.9795556640625,4.640711005401611,7.786991262054443,-1.6641197914123533
1759645053845513500,5.989513427734375,4.612130223083496,7.847145578765868,-1.7992425476074219
1759645053855470300,5.99947021484375,4.498555281829834,7.9001172904968255,-1.9493290641784666
1759645053865428500,6.009428466796875,4.43106872253418,7.8621093391418455,-2.11961665725708
1759645053875385600,6.019385498046875,4.423736479949951,7.7964184310913085,-2.173785469818115
1759645053885343500,6.029343505859375,4.425382493591308,7.656956184387207,-2.210147407531738
1759645053895300400,6.03930029296875,4.394856422424316,7.669076830291748,-2.1670517776489255
1759645053905258500,6.049258544921875,4.234893824005127,7.618050407409667,-2.093579714202881
1759645053915215600,6.059215576171875,4.034229797363281,7.577348979187011,-2.0383634384155274
1759645053925173500,6.069173583984375,3.971830916595459,7.735216651153564,-1.9156606033325194
1759645053935130400,6.07913037109375,3.8512230079650878,7.880365126800537,-1.797147621154785
1759645053945088500,6.089088623046875,3.7796962333679196,8.01234549331665,-1.6834230422973633
1759645053955045400,6.09904541015625,3.7280712600708004,8.118139279174803,-1.6130933685302733
1759645053965003500,6.10900341796875,3.7879263015747067,8.196699021148682,-1.586457875061035
1759645053974960600,6.118960693359375,3.851073370361328,8.225429441070556,-1.5664064361572265
1759645053984917500,6.12891748046875,3.8988077659606932,8.186074751281739,-1.6098013412475585
1759645053994875400,6.13887548828125,3.981856636047363,8.121431306457518,-1.7152958518981933
1759645054004832500,6.14883251953125,4.1097967872619625,8.002020498657226,-1.8499696952819824
1759645054014790700,6.158790771484375,4.221426439666748,7.86585027923584,-1.9321207397460936
1759645054024747300,6.168747314453125,4.2019735511779785,7.82679486465454,-1.974019268798828
1759645054034705400,6.178705322265625,4.1100960624694824,7.805097412109374,-1.9964649093627929
1759645054044662300,6.188662353515625,3.9950247451782226,7.8338278320312495,-2.044797855377197
1759645054054620200,6.1986201171875,3.930082025146484,7.913435037231445,-2.048089882659912
1759645054064577300,6.208577392578125,3.890428060150146,8.04975489425659,-2.0157681602478026
1759645054074535400,6.218535400390625,3.9366660797119137,8.143128759002686,-2.044049667358398
1759645054084492300,6.2284921875,3.9552211425781247,8.185775476074218,-2.1529858428955078
1759645054094449400,6.238449462890625,3.9585131698608396,8.224681253051758,-2.2572832527160642
1759645054104407300,6.2484072265625,4.004900827026367,8.27421129989624,-2.31743756942749
1759645054114364200,6.2583642578125,4.037821099853516,8.266729419708252,-2.3222259727478027
1759645054124322000,6.268322021484375,3.9631519355773923,8.276156588745117,-2.24097275390625
1759645054134279200,6.278279052734375,3.867084593963623,8.301744618988037,-2.1633108375549317
1759645054144237300,6.2882373046875,3.796605282592773,8.320748594665528,-2.123656872558594
1759645054154194400,6.2981943359375,3.704727793884277,8.343792785644531,-2.127697087860107
1759645054164152300,6.30815234375,3.6017771224975585,8.38883370437622,-2.1300912895202635
1759645054174109200,6.318109130859375,3.632153556060791,8.434922086334227,-2.1818659004211423
1759645054184067300,6.3280673828125,3.7042788810729976,8.413673546600341,-2.1992238624572753
1759645054194024400,6.3380244140625,3.7671266746520993,8.33780728149414,-2.2043115409851075
1759645054203982300,6.347982421875,3.761440445709228,8.245331242370606,-2.2026655273437497
1759645054213939200,6.357939208984375,3.709965110015869,8.16527512435913,-2.154482218933105
1759645054223897300,6.3678974609375,3.7234324943542476,8.115445802307129,-2.1206641204833985
1759645054233854200,6.377854248046875,3.7223850311279296,8.070853796386718,-2.1883003173828124
1759645054243811300,6.387811279296875,3.6725557090759273,8.01877991027832,-2.340032847595215
1759645054253769200,6.397769287109375,3.675847736358642,8.03179838180542,-2.4609400314331054
1759645054263726300,6.407726318359375,3.6584897743225095,8.028356716918944,-2.5194483345031737
1759645054273684200,6.417684326171875,3.690811496734619,8.029553817749022,-2.4902690017700193
1759645054283641300,6.427641357421875,3.5767876426696774,7.981370509338379,-2.3644237770080565
1759645054293599500,6.437599609375,3.427299676513672,7.997381732940673,-2.204610816192627
1759645054303556000,6.44755615234375,3.1982045051574706,8.100332404327393,-2.0774188529968263
1759645054313514200,6.45751416015625,3.0698154411315914,8.135946154022216,-1.9847931762695312
1759645054323471400,6.467471435546875,2.9780875900268553,8.15285520324707,-1.9289783500671385
1759645054333429200,6.47742919921875,2.7834090675354,8.182633086395263,-1.871218235015869
1759645054343386000,6.48738623046875,2.603544667816162,8.228122917938231,-1.8806454040527343
1759645054353343200,6.49734326171875,2.4435820693969723,8.336310905456543,-1.8546084609985352
1759645054363301400,6.50730126953125,2.267458609771728,8.391227906036377,-1.7528548904418944
1759645054373258200,6.51725830078125,2.069787335205078,8.49687205429077,-1.6512509574890135
1759645054383216400,6.52721630859375,1.7221791816711425,8.75978532409668,-1.463904677581787
1759645054393173200,6.53717333984375,1.4915876342773438,9.049184449768067,-1.3549685020446776
1759645054403131100,6.547131103515625,1.507299582672119,9.342174877929686,-1.4939818359375
1759645054413088300,6.557088134765625,1.6814777534484862,9.475651620483397,-1.7681179260253905
1759645054423046400,6.56704638671875,2.1633108375549317,9.357138638305663,-2.044348942565918
1759645054433003300,6.577003173828125,2.860921346282959,9.1799677154541,-2.3211785095214843
1759645054442961200,6.586961181640625,2.89204596786499,8.894159892272949,-2.5315689804077146
1759645054452918300,6.596918212890625,2.422932080078125,8.664765445709229,-2.526331664276123
1759645054462876400,6.60687646484375,1.7387889556884764,8.658031753540039,-2.4256255569458007
1759645054472833300,6.616833251953125,0.8958803337097168,8.863184908294677,-2.223016241455078
1759645054482790100,6.6267900390625,0.40761283264160153,9.115922821044922,-1.9698294158935545
1759645054492748300,6.636748291015625,0.46462475967407224,9.18715032043457,-1.67908355178833
1759645054502705400,6.646705322265625,0.764199242401123,9.178172064208983,-1.4149731811523436
1759645054512663300,6.656663330078125,0.8827122245788573,9.166201055908203,-1.3064859184265136
1759645054522620200,6.6666201171875,0.9039607643127441,9.072827191162109,-1.5474024604797363
1759645054532578300,6.676578369140625,0.8607154968261719,9.018209465789795,-2.071134073638916
1759645054542535400,6.686535400390625,0.7577648254394531,9.200916979980468,-2.4756045166015626
1759645054552493300,6.696493408203125,0.5178957466125488,9.497498710632323,-2.736123584747314
1759645054562450200,6.7064501953125,0.3087023765563965,9.715969612121581,-2.769043857574463
1759645054572408300,6.716408203125,0.3981856636047363,9.867702142333984,-2.543689626312256
1759645054582365200,6.726365234375,0.6428431457519531,9.901370603179931,-2.2123919715881346
1759645054592323300,6.7363232421875,0.6223427940368652,9.83178911743164,-1.8589479515075682
1759645054602280400,6.746280517578125,0.4676175117492676,9.73617068862915,-1.7106570861816406
1759645054612237300,6.7562373046875,0.23582886352539062,9.616610243225097,-1.8058266021728515
1759645054622195200,6.7661953125,-0.07272387542724609,9.692925421142577,-1.9545663803100586
1759645054632152300,6.77615234375,-0.201112939453125,9.761010530853271,-2.159120984649658
1759645054642110500,6.7861103515625,-0.14859014053344727,9.765649296569825,-2.3569418968200684
1759645054652067000,6.796067138671875,0.11596914291381835,9.759214879608153,-2.4753052413940426
1759645054662025200,6.806025146484375,0.3145382431030273,9.871891995239258,-2.461388944244385
1759645054671982300,6.815982421875,0.40940848388671874,9.95942999343872,-2.5576059234619137
1759645054681940200,6.825940185546875,0.3993827644348144,10.047117629241942,-2.7712884216308593
1759645054691897000,6.83589697265625,0.2727893516540527,10.205134938812256,-2.915090158843994
1759645054701855200,6.845855224609375,0.15696984634399413,10.322899732971191,-2.983324906158447
1759645054711812400,6.855812255859375,0.06150105514526367,10.39322940673828,-2.9979893913269042
1759645054721769200,6.865769287109375,0.09038111267089843,10.402357300567626,-2.970456072235107
1759645054731727400,6.875727294921875,0.17432780838012693,10.378714559173583,-2.9501053581237793
1759645054741684200,6.885684326171875,0.29777883148193357,10.426598592376708,-2.9032687881469723
1759645054751642000,6.89564208984375,0.4542997650146484,10.461613791656493,-2.835931866455078
1759645054761599200,6.90559912109375,0.6232406196594238,10.603919152832031,-2.7500398818969725
1759645054771556400,6.915556396484375,0.8678981018066406,10.740239009857177,-2.664297534942627
1759645054781514200,6.92551416015625,1.1936591651916504,10.767024140930175,-2.6014497413635254
1759645054791471400,6.935471435546875,1.483058290863037,10.806827743530272,-2.571522220611572
1759645054801429200,6.94542919921875,1.6719009468078612,10.810718321228027,-2.616263864135742
1759645054811386400,6.955386474609375,1.7755998062133789,10.829871934509276,-2.6958710693359373
1759645054821344300,6.96534423828125,1.7871219017028808,10.852467212677002,-2.8131869506835936
1759645054831301000,6.975301025390625,1.8136077575683593,10.769418342590331,-2.953846298217773
1759645054841259300,6.98525927734375,1.7999907356262206,10.631153196716308,-3.089417967224121
1759645054851216400,6.99521630859375,1.7362451164245605,10.481515592956542,-3.1694740852355956
1759645054861174300,7.00517431640625,1.681028840637207,10.382754774475098,-3.1753099517822263
1759645054871131100,7.015131103515625,1.725620846557617,10.294917501068115,-3.136853087615967
1759645054881089300,7.02508935546875,1.8550573738098144,10.204536388397216,-3.0729578308105467
1759645054891046400,7.03504638671875,2.0364181495666505,10.066869792938231,-2.954594486236572
1759645054901003300,7.045003173828125,2.3225252479553222,9.931597399139404,-2.8417677330017086
1759645054910961200,7.054961181640625,2.6689363006591798,9.843011937713623,-2.6912323036193846
1759645054920918300,7.064918212890625,2.9486089820861814,9.783306533813477,-2.5502736808776856
1759645054930876200,7.074876220703125,3.107823392486572,9.719860189819336,-2.4944588546752926
1759645054940833300,7.084833251953125,3.1919197257995604,9.655216744995117,-2.4628853202819823
1759645054950791400,7.09479150390625,3.303250102996826,9.638008420562743,-2.5213936233520506
1759645054960748300,7.104748291015625,3.413084104156494,9.61481459197998,-2.668038475036621
1759645054970706200,7.1147060546875,3.5799300323486327,9.644891750335693,-2.8574796813964842
1759645054980663300,7.124663330078125,3.7467759605407713,9.686640641784667,-3.0214824951171875
1759645054990621400,7.134621337890625,3.9324762268066404,9.70968483276367,-3.135506349182129
1759645055000578000,7.144578125,4.09872360458374,9.744400756835937,-3.17291575012207
1759645055010535200,7.15453515625,4.276642715454101,9.760561618041992,-3.1919197257995604
1759645055020493300,7.164493408203125,4.410867646026611,9.708787007141114,-3.1848867584228513
1759645055030450400,7.174450439453125,4.403984316253662,9.716119249725342,-3.1371523628234863
1759645055040408600,7.18440869140625,4.375403533935547,9.765798934173583,-3.103184626770019
1759645055050365400,7.194365478515625,4.413561122894287,9.789591313171385,-3.0774469589233395
1759645055060323600,7.204323486328125,4.422539379119873,9.740809454345703,-3.07714768371582
1759645055070280400,7.214280517578125,4.448127409362793,9.624391398620604,-3.1241338912963865
1759645055080238600,7.224238525390625,4.48179587020874,9.488819729614256,-3.158700177764892
1759645055090195500,7.234195556640625,4.541501274108886,9.402329194641112,-3.1344588859558105
1759645055100153300,7.2441533203125,4.473565802001953,9.286509689331055,-3.0828339126586912
1759645055110110500,7.2541103515625,4.39859736251831,9.16799670715332,-3.0445266860961913
1759645055120067600,7.264067626953125,4.3339539176940916,9.015067076110839,-3.021632132720947
1759645055130025700,7.274025634765625,4.180425736236572,8.858546142578124,-3.0069676475524902
1759645055139982300,7.283982421875,3.969885627746582,8.74018279800415,-2.9153894340515136
1759645055149940500,7.2939404296875,3.789123402404785,8.595034322357177,-2.8139351387023925
1759645055159897600,7.303897705078125,3.7000890281677243,8.521711896514892,-2.6702830390930172
1759645055169855500,7.31385546875,3.6872201942443845,8.469338735198974,-2.556259185028076
1759645055179812400,7.323812255859375,3.7114614860534667,8.377012333679199,-2.559251937103271
1759645055189770500,7.3337705078125,3.7383962547302243,8.298003678894043,-2.5966613380432126
1759645055199727600,7.3437275390625,3.887584945678711,8.195950833129883,-2.5858874305725097
1759645055209684700,7.353684814453125,4.080916729736328,8.092401611328125,-2.587383806610107
1759645055219642400,7.363642333984375,4.23309817276001,8.023269038391113,-2.4984990699768064
1759645055229599500,7.373599609375,4.4577042160034175,8.029404180145264,-2.4417864181518554
1759645055239557600,7.3835576171875,4.618115727233887,7.9457567596435545,-2.531868255615234
1759645055249514500,7.393514404296875,4.7283986412048336,7.8727336090087885,-2.653373989868164
1759645055259472600,7.40347265625,4.881028997039794,7.827543052673339,-2.7521348083496093
1759645055269429500,7.413429443359375,5.026776023101807,7.752125700378418,-2.8291981742858887
1759645055279387400,7.423387451171875,5.157110375976562,7.740453967285156,-2.8685528640747067
1759645055289344500,7.433344482421875,5.261707061004638,7.802703210449218,-2.8673557632446287
1759645055299302700,7.443302734375,5.307945080566406,7.924807495117187,-2.8679543136596677
1759645055309259500,7.453259521484375,5.329193620300293,8.098686390686035,-2.8788778587341306
1759645055319216400,7.46321630859375,5.297620085906982,8.227524367523193,-2.9703064346313477
1759645055329174500,7.473174560546875,5.156362187957764,8.36309603652954,-3.060687547302246
1759645055339131600,7.483131591796875,5.073762230682373,8.441356503295898,-3.1554081504821774
1759645055349089500,7.493089599609375,5.074061505889892,8.437914838409423,-3.220949420928955
1759645055359046400,7.50304638671875,4.988468796539307,8.430432958221434,-3.191470812988281
1759645055369004500,7.513004638671875,4.895394207000732,8.346486262512206,-3.1124621582031247
1759645055378961700,7.522961669921875,4.822071781158447,8.249970008087157,-2.9670144073486324
1759645055388918300,7.532918212890625,4.779275426483154,8.228422193145752,-2.773981898498535
1759645055398876400,7.54287646484375,4.800224691009521,8.19639974594116,-2.6005519157409664
1759645055408833500,7.55283349609375,4.923974989318848,8.17126062850952,-2.537255209350586
1759645055418791400,7.56279150390625,5.028122761535644,8.166023312377929,-2.5754127983093262
1759645055428748500,7.57274853515625,5.083039762115479,8.13983673171997,-2.6786627449035643
1759645055438706400,7.58270654296875,5.063437236022949,8.109609935760497,-2.8124387626647946
1759645055448663600,7.59266357421875,4.980986916351318,8.041375188446045,-2.909403929901123
1759645055458621400,7.602621337890625,4.8686090759277345,8.010549842071534,-3.0207343070983885
1759645055468578600,7.61257861328125,4.6912885154724115,7.97418790435791,-3.0201357566833495
1759645055478535400,7.622535400390625,4.576366835784912,7.918223440551757,-2.9372365242004395
1759645055488493600,7.63249365234375,4.54569112701416,7.921814743041992,-2.8055554328918455
1759645055498450400,7.642450439453125,4.578312124633789,7.940669081115722,-2.6240450195312497
1759645055508408600,7.65240869140625,4.709993215942383,7.899668377685546,-2.5100211654663083
1759645055518365700,7.66236572265625,4.848108724212646,7.850886518859863,-2.4993968955993653
1759645055528323300,7.6723232421875,4.928314479827881,7.8261963142395015,-2.497601244354248
1759645055538280400,7.682280517578125,4.949413381958007,7.802254297637939,-2.5502736808776856
1759645055548237600,7.692237548828125,4.968566995239257,7.820958998107909,-2.6081834335327145
1759645055558195700,7.70219580078125,4.956595986938476,7.848193041992187,-2.6964696197509763
1759645055568152300,7.71215234375,4.894646018981933,7.8652517288208,-2.720411636352539
1759645055578110500,7.7221103515625,4.83942974319458,7.883357878875732,-2.6535236274719236
1759645055588067600,7.732067626953125,4.78795440750122,7.951592626190185,-2.5555109970092773
1759645055598025500,7.742025390625,4.805312369537353,8.02476541442871,-2.455253802490234
1759645055607982300,7.751982421875,4.849156187438965,8.064269741821288,-2.4347534507751463
1759645055617939500,7.761939453125,4.9275662918090815,8.124723333740233,-2.452410688018799
1759645055627897600,7.771897705078125,4.977545251464844,8.20358235092163,-2.551021868896484
1759645055637854500,7.7818544921875,4.97335539855957,8.244882329559326,-2.6397569679260253
1759645055647812600,7.7918125,4.922628250885009,8.32523772277832,-2.7090391784667966
1759645055657769500,7.80176953125,4.9286137550354,8.334215979003906,-2.805106520080566
1759645055667727400,7.811727294921875,4.88417138671875,8.341548221588134,-2.8661586624145508
1759645055677684500,7.8216845703125,4.847809449005126,8.34349351043701,-2.8903999542236325
1759645055687642600,7.831642578125,4.8329953262329095,8.31236888885498,-2.8912977798461914
1759645055697599500,7.841599609375,4.798728314971924,8.264035942840575,-2.8553847549438474
1759645055707556600,7.851556640625,4.82656090927124,8.22902074356079,-2.7959786262512205
1759645055717514500,7.861514404296875,4.874594580078124,8.19176098022461,-2.7240029388427733
1759645055727471600,7.8714716796875,4.86471849822998,8.14612151107788,-2.689735927581787
1759645055737429500,7.881429443359375,4.886565588378906,8.070404883575439,-2.6843489738464354
1759645055747386400,7.891386474609375,4.895244569396972,8.054692935180663,-2.6589105812072753
1759645055757343500,7.901343505859375,4.908711953735351,8.058433875274657,-2.6164135017395016
1759645055767301600,7.911301513671875,4.892850367736816,8.040028450012207,-2.5483283920288082
1759645055777258500,7.921258544921875,4.895992757415772,7.985410724639892,-2.5387515853881832
1759645055787216400,7.93121630859375,4.8786347953796385,7.92286220626831,-2.5629928771972654
1759645055797173500,7.941173583984375,4.779873976898193,7.9035589553833,-2.5692776565551756
1759645055807131600,7.951131591796875,4.64101028060913,7.930194448852538,-2.5501240432739256
1759645055817088500,7.961088623046875,4.560654887390136,7.958625593566894,-2.5501240432739256
1759645055827045400,7.97104541015625,4.521449835205078,7.977629569244384,-2.539499773406982
1759645055837003500,7.98100341796875,4.5307273666381835,7.975684280395507,-2.5465327407836913
1759645055846961400,7.99096142578125,4.508581001281738,8.013991506958007,-2.569576931762695
1759645055856918500,8.00091845703125,4.435258575439453,8.078186038970946,-2.6005519157409664
1759645055866875400,8.01087548828125,4.401889389801025,8.162432009887695,-2.6322750877380368
1759645055876833500,8.02083349609375,4.412064746856689,8.249221820068358,-2.63661457824707
1759645055886790400,8.030790283203125,4.426130681610108,8.312668164062499,-2.6665420989990234
1759645055896748500,8.04074853515625,4.420893365478515,8.351424303436279,-2.721010186767578
1759645055906705700,8.05070556640625,4.455160376739502,8.372822480773925,-2.7474960426330566
1759645055916663300,8.060663330078125,4.463689720153808,8.425644554901123,-2.7448025657653807
1759645055926620400,8.070620361328125,4.457404940795898,8.453776424407959,-2.7527333587646483
1759645055936577500,8.08057763671875,4.423437204742432,8.474276776123046,-2.800168479156494
1759645055946535700,8.09053564453125,4.3628339752197265,8.495525315856932,-2.8576293190002438
1759645055956492500,8.100492431640625,4.296245241546631,8.50435393447876,-2.9144916084289547
1759645055966450400,8.110450439453125,4.2226235404968255,8.52994196472168,-2.94292275314331
1759645055976407600,8.120407470703125,4.1654619758605955,8.607154968261717,-2.9290064559936524
1759645055986364700,8.13036474609375,4.094084838867187,8.652644799804687,-2.8892028533935545
1759645055996322600,8.140322509765625,4.031985233306885,8.608501706695556,-2.841468457794189
1759645056006279400,8.150279541015625,4.007295028686523,8.609100257110596,-2.7947815254211426
1759645056016237600,8.160237548828125,4.04739790649414,8.52904413909912,-2.7727847976684568
1759645056026194700,8.170194580078125,4.02210915145874,8.477718441009522,-2.7533319091796873
1759645056036152600,8.180152587890625,3.9929298187255857,8.489988724517822,-2.788796021270752
1759645056046109400,8.190109375,3.9227497825622555,8.481010468292236,-2.8571804061889647
1759645056056066600,8.200066650390625,3.8142625198364257,8.532785079193115,-2.883965537261963
1759645056066024400,8.2100244140625,3.8028900619506834,8.530241239929198,-2.8788778587341306
1759645056075981300,8.219981201171874,3.803787887573242,8.52246008453369,-2.8446108474731444
1759645056085939500,8.229939453125,3.796605282592773,8.483404669952392,-2.7877485580444334
1759645056095896600,8.239896484375,3.7817911598205565,8.483853582763672,-2.7078420776367187
1759645056105853400,8.249853515625,3.744531396484375,8.49776987991333,-2.663399709320068
1759645056115811600,8.2598115234375,3.719541916656494,8.513182553100586,-2.638110954284668
1759645056125768400,8.2697685546875,3.643077101135254,8.49776987991333,-2.697367445373535
1759645056135726300,8.279726318359375,3.6079122642517087,8.49836843032837,-2.7858032691955565
1759645056145683500,8.289683349609374,3.6037224113464355,8.541164785003662,-2.8399720817565917
1759645056155640300,8.299640380859374,3.6305075424194335,8.569745567321776,-2.8918963302612304
1759645056165598500,8.309598388671875,3.6845267173767087,8.574833245849609,-2.925265515899658
1759645056175555600,8.3195556640625,3.6706104202270504,8.56824919128418,-2.947561518859863
1759645056185513500,8.329513427734375,3.7008372161865233,8.561964411926269,-2.8932430686950683
1759645056195470600,8.339470703125,3.7389948051452633,8.528295951080322,-2.846855411529541
1759645056205428500,8.349428466796875,3.651157531738281,8.572588681793212,-2.799121015930176
1759645056215385300,8.35938525390625,3.5652655471801755,8.60580822982788,-2.7802666778564453
1759645056225342500,8.369342529296874,3.4458547393798824,8.59338830871582,-2.855235117340088
1759645056235300600,8.379300537109375,3.390788101196289,8.603414028167725,-2.9116484939575193
1759645056245257500,8.389257568359374,3.3735797767639157,8.62496184310913,-2.9345430473327636
1759645056255215400,8.39921533203125,3.346645008087158,8.652345524597168,-2.939331450653076
1759645056265172500,8.40917236328125,3.351283773803711,8.645761470031738,-2.981978167724609
1759645056275129600,8.419129638671874,3.42176308517456,8.660725230407714,-3.0639795745849607
1759645056285087500,8.42908740234375,3.442263436889648,8.688108911895752,-3.086125939941406
1759645056295044400,8.43904443359375,3.405452586364746,8.722675198364257,-3.046322337341308
1759645056305002500,8.44900244140625,3.3797149185180664,8.736142582702636,-3.0000843177795407
1759645056314959600,8.458959716796874,3.3060932174682613,8.709357451629637,-2.9767408515930174
1759645056324916500,8.46891650390625,3.2793080863952633,8.7087589012146,-2.9596821647644043
1759645056334874400,8.478874267578124,3.3159692993164063,8.660126679992675,-3.0015806938171385
1759645056344831500,8.48883154296875,3.3297359588623046,8.633341548919677,-3.0349498794555663
1759645056354789400,8.498789306640624,3.3201591522216796,8.578125273132324,-3.0410850212097165
1759645056364746500,8.50874658203125,3.275716783905029,8.66386762008667,-2.991704611968994
1759645056374704400,8.518704345703124,3.282151200866699,8.743025912475586,-2.89204596786499
1759645056384661500,8.52866162109375,3.295768222808838,8.712050928497314,-2.8948890823364257
1759645056394618600,8.53861865234375,3.193565739440918,8.683919058990478,-2.9234698646545407
1759645056404576500,8.548576416015624,3.0891186920166014,8.737938233947753,-2.9131448699951172
1759645056414533400,8.558533447265624,3.142988229370117,8.857199404144287,-2.8857611885070797
1759645056424491500,8.568491455078124,3.272574394226074,8.980201514434814,-2.825756509399414
1759645056434448400,8.578448486328124,3.341557329559326,8.966434854888915,-2.7712884216308593
1759645056444405500,8.588405517578124,3.388693174743652,8.806322618865966,-2.807799996948242
1759645056454363600,8.59836376953125,3.4299931533813472,8.762628438568115,-2.8220155693054196
1759645056464320500,8.608320556640624,3.4096424392700193,8.808118270111084,-2.8431144714355465
1759645056474278400,8.6182783203125,3.357418915557861,8.85435628967285,-2.8440122970581054
1759645056484235500,8.628235595703124,3.2855928657531734,8.879495407104491,-2.870198877716064
1759645056494192400,8.6381923828125,3.1967081291198727,8.865429472351074,-2.9058126274108886
1759645056504150300,8.648150390625,3.185186033630371,8.871414976501464,-2.9459155052185055
1759645056514107400,8.658107421875,3.1664813331604003,8.903138148498535,-2.936189060974121
1759645056524065500,8.6680654296875,3.1349077987670895,8.930821105194092,-2.9507039085388183
1759645056534022700,8.678022705078124,3.131466133880615,8.948328704833983,-2.9798832412719727
1759645056543980300,8.687980224609374,3.1274259185791013,8.938452622985839,-3.0297125633239745
1759645056553937400,8.6979375,3.1293712074279783,8.916006982421875,-3.0288147377014156
1759645056563894500,8.70789453125,3.1305683082580567,8.874707003784179,-3.0431799476623533
1759645056573852400,8.717852294921874,3.19221900100708,8.841936368560791,-3.015347353363037
1759645056583809300,8.727809326171876,3.1681273468017577,8.8229323928833,-2.9625252792358396
1759645056593767400,8.737767333984374,3.1287726570129393,8.805724068450926,-2.934842322540283
1759645056603724500,8.747724609375,3.107374479675293,8.810811746978759,-2.895188357543945
1759645056613681700,8.757681640625,3.064877400207519,8.7846251663208,-2.867206125640869
1759645056623639600,8.7676396484375,3.051260378265381,8.756792572021483,-2.825008321380615
1759645056633596400,8.777596435546876,3.0448259613037107,8.724770124816894,-2.818124991607666
1759645056643554600,8.787554443359374,3.023128508758545,8.75260271911621,-2.7913398605346678
1759645056653511400,8.797511474609376,2.966116581726074,8.816348338317871,-2.755875748443603
1759645056663469600,8.807469482421874,2.9650691184997555,8.819490727996826,-2.7801170402526854
1759645056673426400,8.817426513671874,2.991704611968994,8.828020071411132,-2.8296470870971677
1759645056683383600,8.827383544921876,3.0570962448120116,8.865579109954833,-2.8576293190002438
1759645056693341400,8.837341552734374,3.0843302886962887,8.84837078552246,-2.880673509979248
1759645056703298600,8.847298583984376,3.0469208877563476,8.84777223510742,-2.8983307472229
1759645056713256400,8.85725634765625,3.030760026550293,8.857049766540527,-2.8788778587341306
1759645056723213300,8.86721337890625,3.0077158355712887,8.875305554199219,-2.839672806549072
1759645056733170400,8.87717041015625,2.9885622222900388,8.887426200103759,-2.7884967460632324
1759645056743128600,8.887128662109374,2.9575872383117674,8.902240322875976,-2.7762264625549316
1759645056753085400,8.89708544921875,2.920926025390625,8.898050469970702,-2.7985224655151364
1759645056763043300,8.907043212890626,2.9044658889770507,8.908525102233886,-2.809745285797119
1759645056773000400,8.91700048828125,2.9056629898071287,8.901043222045898,-2.8239608581542965
1759645056782958600,8.92695849609375,2.9046155265808102,8.883535622406006,-2.84086990737915
1759645056792915500,8.93691552734375,2.9339444969177246,8.85435628967285,-2.8297967247009277
1759645056802872300,8.946872314453126,2.9474118812561034,8.858995055389403,-2.8262054222106934
1759645056812830500,8.95683056640625,2.9746459251403805,8.86782367401123,-2.8336873023986815
1759645056822787600,8.96678759765625,2.966266219329834,8.869320050048827,-2.8281507110595703
1759645056832745500,8.976745361328126,3.0009821434020996,8.878597581481934,-2.814832964324951
1759645056842702300,8.986702392578126,3.0297125633239745,8.861838169860839,-2.8272528854370114
1759645056852660500,8.996660400390626,3.063829936981201,8.84223564376831,-2.8453590354919434
1759645056862617600,9.00661767578125,3.0973487602233885,8.813056311035156,-2.8309938255310056
1759645056872574500,9.016574462890626,3.115005997467041,8.818592902374267,-2.8426655586242675
1759645056882532400,9.026532470703126,3.0992940490722654,8.839841442108154,-2.8508956268310546
1759645056892489500,9.036489501953126,3.0002339553833006,8.849717523956299,-2.849249613189697
1759645056902447400,9.046447265625,2.9097032051086424,8.869320050048827,-2.854337291717529
1759645056912404500,9.056404541015626,2.884414450073242,8.907178363800048,-2.859574607849121
1759645056922361300,9.066361328125,2.8903999542236325,8.945635227966308,-2.839672806549072
1759645056932319500,9.076319580078126,2.9300539192199704,8.951620732116698,-2.8407202697753906
1759645056942276400,9.0862763671875,2.9926024375915525,8.935459870910645,-2.86017315826416
1759645056952234500,9.096234375,3.061286097717285,8.923488862609863,-2.881421697998047
1759645056962191600,9.106191650390626,3.114108171844482,8.876951567840576,-2.9056629898071287
1759645056972149200,9.116149169921876,3.2116718894958494,8.815600150299073,-2.8936919815063473
1759645056982106400,9.1261064453125,3.2095769630432125,8.801833490753173,-2.897133646392822
1759645056992063500,9.1360634765625,3.155258512878418,8.799588926696776,-2.880074959564209
1759645057002021600,9.146021728515626,3.0823849998474118,8.824578406524658,-2.8302456375122067
1759645057011978500,9.155978515625,3.0131027893066404,8.819041815185546,-2.7864018196105955
1759645057021936400,9.165936279296876,2.983923456573486,8.82951644744873,-2.7501895195007324
1759645057031893500,9.1758935546875,2.977638677215576,8.817395801544189,-2.7425580017089843
1759645057041852200,9.18585205078125,3.0027777946472165,8.825027319335938,-2.744054377746582
1759645057051809300,9.195809326171876,3.040785746002197,8.859294330596923,-2.759167775726318
1759645057061766100,9.20576611328125,3.065027037811279,8.830264635467529,-2.8069021713256834
1759645057071724300,9.215724365234376,3.0973487602233885,8.847472959899902,-2.869749964904785
1759645057081681200,9.22568115234375,3.09001651763916,8.849118973541259,-2.909403929901123
1759645057091639300,9.235639404296874,3.0856770271301266,8.883685260009765,-2.888155390167236
1759645057101596400,9.245596435546876,3.0743045692443847,8.895805905914306,-2.837877155303955
1759645057111554300,9.25555419921875,3.090764705657959,8.845976583862305,-2.7807155906677243
1759645057121511200,9.26551123046875,3.10273571395874,8.799738564300537,-2.775777549743652
1759645057131468300,9.27546826171875,3.125929542541504,8.791358858489989,-2.770240958404541
1759645057141426400,9.285426513671876,3.110965782165527,8.805275155639649,-2.77083950881958
1759645057151383000,9.295383056640626,3.124582804107666,8.805125518035888,-2.788646383666992
1759645057161341200,9.305341064453126,3.1268273681640624,8.835202676391601,-2.768894219970703
1759645057171298300,9.31529833984375,3.0967502098083495,8.860790706634521,-2.715323957824707
1759645057181256200,9.325256103515626,3.127725193786621,8.838494703674316,-2.731784094238281
1759645057191213300,9.33521337890625,3.1126117958068846,8.814403049468993,-2.731933731842041
1759645057201170200,9.345170166015626,3.111564332580566,8.835352313995362,-2.7397148872375485
1759645057211128300,9.35512841796875,3.1479262702941893,8.847323322296143,-2.759317413330078
1759645057221085200,9.365085205078126,3.123236065673828,8.865429472351074,-2.7635072662353513
1759645057231043300,9.375043212890626,3.0954034713745116,8.876951567840576,-2.7465982170104977
1759645057241000200,9.385000244140626,3.104681002807617,8.842834194183348,-2.7219080123901365
1759645057250958000,9.3949580078125,3.058592620849609,8.815300875091552,-2.6925790420532225
1759645057260915200,9.404915283203126,3.0443770484924313,8.814103774261474,-2.708739903259277
1759645057270872300,9.414872314453126,3.08358210067749,8.806771531677246,-2.722955475616455
1759645057280830500,9.42483056640625,3.0624831985473633,8.820687828826903,-2.711433380126953
1759645057290787300,9.434787353515626,3.0726585556030273,8.846575134277343,-2.6783634696960448
1759645057300745200,9.4447451171875,3.088220866394043,8.876801930236816,-2.6605565948486327
1759645057310702300,9.454702392578126,3.0551509559631347,8.87395881576538,-2.633322550964355
1759645057320660500,9.464660400390626,3.0469208877563476,8.845078758239746,-2.665494635772705
1759645057330617000,9.4746171875,3.0692168907165525,8.84881969833374,-2.724900764465332
1759645057340574200,9.48457421875,3.1022868011474607,8.84881969833374,-2.7214590995788575
1759645057350532400,9.494532470703126,3.1166520111083984,8.837297602844238,-2.7287913421630856
1759645057360489500,9.504489501953126,3.136104899597168,8.857797954559326,-2.712031930541992
1759645057370447000,9.514447021484376,3.165583507537842,8.894758442687987,-2.6913819412231446
1759645057380404200,9.524404296875,3.1446342430114744,8.89924757080078,-2.701258023071289
1759645057390362400,9.5343623046875,3.086874127960205,8.909123652648926,-2.7256489524841307
1759645057400319200,9.5443193359375,3.042132484436035,8.896254818725586,-2.752434083557129
1759645057410276000,9.554276123046876,3.025522710418701,8.875155916595459,-2.7789199394226074
1759645057420234200,9.564234130859376,3.0636802993774412,8.8612396194458,-2.742109088897705
1759645057430191400,9.57419140625,3.081786449432373,8.926930527496337,-2.688389189147949
1759645057440149200,9.584149169921876,3.0820857246398923,8.873509902954101,-2.6596587692260742
1759645057450106400,9.5941064453125,3.0948049209594726,8.8489693359375,-2.661005507659912
1759645057460064300,9.604064208984376,3.0651766754150387,8.874707003784179,-2.6349685646057126
1759645057470021000,9.614021240234376,3.127725193786621,8.862436720275879,-2.6191069786071774
1759645057479978200,9.623978271484376,3.11545491027832,8.873659540557862,-2.618807703399658
1759645057489936400,9.633936279296876,3.0693665283203124,8.895656268310546,-2.657713480377197
1759645057499893200,9.643893310546876,3.0400375579833985,8.88757583770752,-2.7084406280517577
1759645057509851100,9.65385107421875,3.0629321113586423,8.889371488952635,-2.7636569038391112
1759645057519808300,9.663808349609376,3.1090204933166503,8.865429472351074,-2.7584195877075195
1759645057529766400,9.673766357421876,3.0966005722045895,8.853159188842772,-2.7780221138000485
1759645057539723300,9.68372314453125,3.027168724060058,8.892064965820312,-2.7913398605346678
1759645057549680000,9.69368017578125,2.9574376007080074,8.92498523864746,-2.7576713996887205
1759645057559638300,9.70363818359375,2.9439702163696286,8.918101908874512,-2.7144261322021483
1759645057569595400,9.713595458984376,2.963423104858398,8.89969648361206,-2.603544667816162
1759645057579553300,9.72355322265625,3.0400375579833985,8.903886336517333,-2.536656658935547
1759645057589510100,9.73351025390625,3.01983648147583,8.904484886932373,-2.4268226577758787
1759645057599468300,9.74346826171875,3.097199122619629,8.864531646728516,-2.3554455207824705
1759645057609425400,9.75342529296875,3.130867583465576,8.857199404144287,-2.4226328048706054
1759645057619382300,9.76338232421875,3.1292215698242187,8.860341793823242,-2.5885809074401855
1759645057629340200,9.773340087890626,3.0419828468322754,8.890119676971436,-2.7180174346923827
1759645057639297300,9.78329736328125,2.9842227317810055,8.89281315383911,-2.825606871795654
1759645057649255200,9.793255126953126,2.954744123840332,8.84268455657959,-2.859574607849121
1759645057659212300,9.80321240234375,2.974496287536621,8.820837466430664,-2.870348515319824
1759645057669170400,9.81317041015625,2.969408609008789,8.862287082672118,-2.7659014678955076
1759645057679127300,9.823127197265626,2.9881133094787597,8.885480911254882,-2.662950796508789
1759645057689084400,9.83308447265625,2.9900585983276367,8.87485664138794,-2.6325743629455567
1759645057699042300,9.843042236328126,3.0060698219299313,8.882039246368407,-2.629880886077881
1759645057708999200,9.852999267578125,3.052307841491699,8.877849393463134,-2.6027964797973633
1759645057718957300,9.862957275390626,3.079841160583496,8.870666788482666,-2.6069863327026366
1759645057728914200,9.8729140625,3.0348002418518063,8.914959519195556,-2.6159645889282226
1759645057738872300,9.882872314453126,3.032106764984131,8.917652996063232,-2.710236279296875
1759645057748829400,9.892829345703126,3.0262708984374997,8.920196835327149,-2.796876451873779
1759645057758786300,9.902786376953125,2.995595189666748,8.952518557739257,-2.8094460105895993
1759645057768744200,9.912744140625,2.996792290496826,8.98828194503784,-2.8143840515136715
1759645057778701300,9.922701416015625,2.996941928100586,8.975263473510742,-2.806453258514404
1759645057788659500,9.932659423828126,2.990806786346435,8.923488862609863,-2.7629087158203123
1759645057798616000,9.942615966796875,2.9884125846862792,8.901641772460938,-2.6981156333923337
1759645057808574200,9.95257421875,3.0009821434020996,8.934711682891844,-2.621501180267334
1759645057818531300,9.96253125,3.0514100158691404,8.951620732116698,-2.5694272941589356
1759645057828489200,9.9724892578125,3.052457479095459,8.923638500213622,-2.581099027252197
1759645057838446300,9.9824462890625,3.0172926422119137,8.926032701873778,-2.632724000549316
1759645057848403200,9.9924033203125,2.9975404785156248,8.92543415145874,-2.7014076606750486
1759645057858361300,10.002361328125,3.0002339553833006,8.911218579101561,-2.7500398818969725
1759645057868318200,10.012318115234375,2.9975404785156248,8.902539598083495,-2.7928362365722657
1759645057878276400,10.0222763671875,3.0090625740051267,8.879495407104491,-2.843563384246826
1759645057888233200,10.032233154296875,2.9619267288208007,8.91885009689331,-2.8380267929077148
1759645057898191000,10.042191162109376,2.948459344482422,8.916006982421875,-2.795679351043701
1759645057908148200,10.052148193359375,2.9378350746154784,8.907926551818846,-2.7335797454833983
1759645057918105300,10.062105224609375,2.9330466712951657,8.919897560119628,-2.659209856414795
1759645057928063200,10.072063232421876,2.9321488456726073,8.923638500213622,-2.6192566162109374
1759645057938020400,10.082020263671875,2.922123126220703,8.90702872619629,-2.60474176864624
1759645057947978200,10.091978271484376,2.9351415977478026,8.890418952178955,-2.613720024871826
1759645057957935400,10.101935302734375,2.9204771125793454,8.888024750518799,-2.650231600189209
1759645057967893200,10.111893310546876,2.935291235351562,8.88054287033081,-2.6560674667358395
1759645057977850000,10.12185009765625,2.9123966819763183,8.914061693572998,-2.6861446250915524
1759645057987807200,10.13180712890625,2.8983307472229,8.901941047668457,-2.7015572982788085
1759645057997765400,10.141765380859376,2.890848867034912,8.931868568420409,-2.717718159484863
1759645058007722500,10.151722412109375,2.8899510414123535,8.943540301513671,-2.7226562004089354
1759645058017680100,10.16168017578125,2.870947065734863,8.945635227966308,-2.7076924400329587
1759645058027637200,10.17163720703125,2.8911481422424314,8.953566020965576,-2.701706935882568
1759645058037595400,10.181595458984376,2.9123966819763183,8.93830298538208,-2.7021558486938475
1759645058047551700,10.1915517578125,2.9224224014282223,8.937105884552002,-2.703053674316406
1759645058057510000,10.201510009765625,2.94950680770874,8.916455895233154,-2.711283742523193
1759645058067466800,10.211466796875,2.94307239074707,8.953117108154297,-2.712630480957031
1759645058077423900,10.221423828125,2.9013234992980954,8.943390663909911,-2.7412112632751464
1759645058087381800,10.2313818359375,2.8782793083190916,8.922291761779785,-2.7633576286315917
1759645058097339000,10.2413388671875,2.850596351623535,8.934262770080565,-2.7320833694458004
1759645058107297000,10.251297119140625,2.85373874130249,8.938901535797118,-2.6815058593749996
1759645058117254000,10.26125390625,2.876633294677734,8.949076892852784,-2.6241946571350097
1759645058127211800,10.271211669921875,2.85373874130249,8.941295737457274,-2.6312276245117188
1759645058137169000,10.2811689453125,2.9314006576538083,8.874557366180419,-2.703203311920166
1759645058147126000,10.2911259765625,2.9523499221801757,8.883236347198485,-2.722955475616455
1759645058157083600,10.301083740234375,2.924666965484619,8.93171893081665,-2.7211598243713375
1759645058167040800,10.311040771484375,2.9056629898071287,8.923339225006103,-2.7123312057495115
1759645058176999000,10.3209990234375,2.9608792655944822,8.902240322875976,-2.701108385467529
1759645058186956000,10.3309560546875,2.9794343284606932,8.946084140777588,-2.711283742523193
1759645058196914000,10.340913818359375,2.961627453613281,8.965985942077635,-2.7449522033691403
1759645058206870800,10.350870849609375,2.9409774642944333,8.949226530456542,-2.807799996948242
1759645058216828000,10.360827880859375,2.948908257293701,8.941445375061035,-2.8369793296813963
1759645058226785800,10.370785888671875,2.9480104316711424,8.903736698913574,-2.8101941986083983
1759645058236742700,10.38074267578125,2.938732900238037,8.901043222045898,-2.7506384323120114
1759645058246700800,10.39070068359375,2.953247747802734,8.938452622985839,-2.7199627235412596
1759645058256658000,10.400657958984375,2.9248166030883787,8.946682691192626,-2.7225065628051754
1759645058266615800,10.41061572265625,2.9138930580139157,8.934412407684325,-2.7465982170104977
1759645058276573000,10.420572998046875,2.8770822074890137,8.901043222045898,-2.7256489524841307
1759645058286529800,10.43052978515625,2.825008321380615,8.89969648361206,-2.7323826446533204
1759645058296488000,10.440488037109375,2.8553847549438474,8.906879088592529,-2.7283424293518066
1759645058306444800,10.45044482421875,2.9129952323913573,8.889670764160156,-2.7439047401428223
1759645058316403000,10.46040283203125,2.9427731155395507,8.88144069595337,-2.8094460105895993
1759645058326359800,10.47035986328125,2.971952448272705,8.871863889312744,-2.8520927276611325
1759645058336317700,10.480317626953125,3.0086136611938477,8.865429472351074,-2.8272528854370114
1759645058346274800,10.49027490234375,2.991106061553955,8.896404456329345,-2.8015152175903317
1759645058356233000,10.50023291015625,2.9513024589538572,8.914809881591797,-2.787449282836914
1759645058366190000,10.510190185546875,2.9091046546936035,8.914959519195556,-2.788646383666992
1759645058376146700,10.520146728515625,2.8770822074890137,8.915258794403076,-2.79014275970459
1759645058386104800,10.530104736328125,2.8143840515136715,8.907328001403808,-2.7896938468933103
1759645058396062000,10.54006201171875,2.813486225891113,8.913912055969238,-2.770240958404541
1759645058406019800,10.550019775390625,2.8685528640747067,8.906280538177489,-2.765003642272949
1759645058415976700,10.559976806640625,2.911947769165039,8.910769666290284,-2.749590969085693
1759645058425934800,10.569934814453125,2.947112606048584,8.921693211364746,-2.752434083557129
1759645058435892000,10.57989208984375,3.001131781005859,8.91929900970459,-2.76440509185791
1759645058445848800,10.589848876953125,2.999336129760742,8.907328001403808,-2.799121015930176
1759645058455806700,10.599806640625,2.9327473960876462,8.889970039367675,-2.833986577606201
1759645058465763800,10.609763916015625,2.8802245971679685,8.922142124176025,-2.8178257164001463
1759645058475721700,10.6197216796875,2.908805379486084,8.90702872619629,-2.8317420135498046
1759645058485678800,10.629678955078125,2.9420249275207517,8.901192859649658,-2.7741315361022947
1759645058495637000,10.639636962890625,2.9243676902770996,8.93156929321289,-2.734477571105957
1759645058505593900,10.64959375,2.897881834411621,8.873509902954101,-2.718915260314941
1759645058515551700,10.6595517578125,2.921524575805664,8.885331273651122,-2.704400412750244
1759645058525508900,10.6695087890625,2.8960861831665037,8.894459167480468,-2.7096377288818356
1759645058535466000,10.679466064453125,2.895936545562744,8.85510447769165,-2.7617116149902343
1759645058545424000,10.689423828125,2.914341970825195,8.89386061706543,-2.7545290100097652
1759645058555380700,10.699380615234375,2.9405285514831543,8.904335249328613,-2.7660511054992676
1759645058565339000,10.7093388671875,2.973897737121582,8.88084214553833,-2.766350380706787
1759645058575296000,10.7192958984375,3.0021792442321775,8.889221851348877,-2.7919384109497067
1759645058585254000,10.72925390625,3.0066683723449703,8.917952271270751,-2.804059056854248
1759645058595210800,10.739210693359375,3.008912936401367,8.90702872619629,-2.8112416618347167
1759645058605167900,10.74916796875,2.9728502738952636,8.884134172821044,-2.8206688308715817
1759645058615126000,10.7591259765625,2.8948890823364257,8.90553235015869,-2.807201446533203
1759645058625082600,10.76908251953125,2.89848038482666,8.871863889312744,-2.7967268142700195
1759645058635040800,10.779040771484375,2.855235117340088,8.948777617645263,-2.7287913421630856
1759645058644998000,10.788997802734375,2.837278604888916,8.97601166152954,-2.714725407409668
1759645058654955800,10.798955810546875,2.8579285942077637,8.942343200683593,-2.7347768463134763
1759645058664913000,10.808912841796875,2.889651766204834,8.884583085632324,-2.7540800971984862
1759645058674869800,10.818869873046875,2.965667668914795,8.845826946258544,-2.7412112632751464
1759645058684828000,10.828827880859375,2.9836241813659665,8.866925848388671,-2.753032633972168
1759645058694784800,10.83878466796875,2.9385832626342774,8.92498523864746,-2.788197470855713
1759645058704743000,10.848742919921875,2.868403226470947,8.93725552215576,-2.801365579986572
1759645058714699800,10.85869970703125,2.846855411529541,8.936507334136962,-2.8070518089294434
1759645058724657000,10.868656982421875,2.8405706321716306,8.929324729156493,-2.798372827911377
1759645058734614000,10.878614013671875,2.92391877746582,8.905681987762451,-2.801814492797851
1759645058744572000,10.888572021484375,2.9602807151794432,8.885480911254882,-2.7837083427429197
1759645058754528800,10.89852880859375,2.9652187561035155,8.88667801208496,-2.7666496559143066
1759645058764487000,10.90848681640625,2.9384336250305174,8.91840118408203,-2.762459803009033
1759645058774443800,10.91844384765625,2.9062615402221676,8.943540301513671,-2.758569225311279
1759645058784402000,10.92840185546875,2.8739398178100584,8.907178363800048,-2.775328636932373
1759645058794358800,10.93835888671875,2.8758851066589353,8.902389960479736,-2.765003642272949
1759645058804316000,10.94831591796875,2.854337291717529,8.905681987762451,-2.7582699501037595
1759645058814273800,10.958273681640625,2.8866590141296387,8.90583162536621,-2.7611130645751953
1759645058824231000,10.96823095703125,2.906560815429687,8.903587061309814,-2.765003642272949
1759645058834189000,10.97818896484375,2.9746459251403805,8.935609508514403,-2.7733833480834957
1759645058844145700,10.988145751953125,2.7858032691955565,8.897451919555664,-2.814234413909912
1759645058854103800,10.998103759765625,2.5399486862182616,8.901941047668457,-2.883366986846924
1759645058864061000,11.00806103515625,2.6996120094299316,8.928127628326415,-2.765452555084228
1759645058874018800,11.018018798828125,2.900575311279297,8.959850800323485,-2.7455507537841797
1759645058883975700,11.0279755859375,3.136553812408447,8.904484886932373,-2.774580448913574
1759645058893932800,11.037932861328125,3.1652842323303223,8.858097229766845,-2.8004677543640133
1759645058903891000,11.047890869140625,3.0885201416015624,8.851662812805175,-2.811690574645996
1759645058913847800,11.057847900390625,3.043628860473633,8.857947592163086,-2.8591256950378416
1759645058923806000,11.067805908203125,2.9830256309509275,8.868871137237548,-2.888305027770996
1759645058933762800,11.0777626953125,2.925115878295898,8.869768962860107,-2.8473043243408203
1759645058943720700,11.087720703125,2.8821698860168454,8.877250843048095,-2.813635863494873
1759645058953677800,11.097677734375,2.9204771125793454,8.88054287033081,-2.7904420349121093
1759645058963635000,11.107635009765625,2.97524447555542,8.91271495513916,-2.7756279121398926
1759645058973592800,11.1175927734375,2.9426234779357907,8.910769666290284,-2.790591672515869
1759645058983550000,11.127550048828125,2.9697078842163083,8.887875112915038,-2.845508673095703
