time,seconds_elapsed,z,y,x
1757863381602047200,0.010047119140625,2.9144916084289547,8.916006982421875,-2.9091046546936035
1757863381612033000,0.020032958984375,2.9792846908569333,9.021202217864989,-2.6102783599853514
1757863381622018300,0.030018310546875,3.0533553047180173,8.988431582641601,-2.3542484199523925
1757863381632003300,0.04000341796875,2.991106061553955,9.088539139556884,-2.1398177337646485
1757863381641989000,0.049989013671875,3.0003835929870606,8.966584492492675,-1.9897312171936035
1757863381651974100,0.05997412109375,3.084779201507568,8.833855937957763,-2.0031986015319823
1757863381661960200,0.069960205078125,2.9254151535034176,8.90702872619629,-2.0094833808898924
1757863381671945200,0.0799453125,3.5250130317687987,8.7846251663208,-1.8025345748901367
1757863381681930200,0.08993017578125,3.61344885559082,9.414599478149414,-1.6934487617492675
1757863381691916300,0.099916259765625,2.5854385177612302,9.39784006652832,-1.7030255683898925
1757863381701901300,0.1099013671875,3.2525229553222657,9.012972149658202,-1.6416741508483885
1757863381711887000,0.11988720703125,3.271078018188476,9.306860403442382,-1.2056301734924315
1757863381721872400,0.129872314453125,3.1509190223693846,9.459939672088623,-0.7118260810852051
1757863381731857400,0.139857421875,3.8298248306274414,10.697891567993164,-1.3358148887634276
1757863381741843200,0.14984326171875,1.0298059890747069,9.956886154174803,-2.2547394134521483
1757863381751828200,0.159828125,1.792658493041992,8.269722171783446,-2.9644705680847165
1757863381761814000,0.16981396484375,4.048894282531738,7.786093436431885,-3.6496611557006835
1757863381771799300,0.17979931640625,3.8236896888732907,8.327781562042237,-3.535038751220703
1757863381781784300,0.189784423828125,3.3680431854248045,9.05876125640869,-3.0629321113586423
1757863381791770000,0.19977001953125,2.7449522033691403,9.239822756958008,-2.546233465576172
1757863381801755100,0.209755126953125,2.3157915557861326,9.090035515594481,-2.436100189208984
1757863381811741200,0.2197412109375,2.291400626373291,8.865130197143554,-2.6122236488342283
1757863381821726200,0.229726318359375,2.5555109970092773,8.582913676452636,-2.79627790145874
1757863381831711200,0.239711181640625,2.6836007858276365,8.531139065551757,-2.6767174560546874
1757863381841697300,0.249697265625,2.5891794578552245,8.826673332977295,-2.471414663696289
1757863381851682300,0.259682373046875,2.5103204406738278,8.968080868530272,-2.258629991149902
1757863381861668400,0.26966845703125,2.6219500930786133,8.973467822265624,-2.2022166145324706
1757863381871653400,0.2796533203125,2.7130793937683104,8.853159188842772,-2.192340532684326
1757863381881638400,0.289638427734375,2.830694550323486,8.690802388763426,-2.3041198226928707
1757863381891624200,0.299624267578125,2.8239608581542965,8.74601866455078,-2.68120658416748
1757863381901609200,0.309609130859375,2.6625018836975096,8.94997471847534,-3.125779904937744
1757863381911595300,0.31959521484375,2.8241104957580565,9.086444213104247,-3.2625486747741697
1757863381921580300,0.329580322265625,3.0555998687744137,9.008931934356688,-2.7412112632751464
1757863381931565300,0.3395654296875,2.7733833480834957,9.243114784240722,-1.8160019592285155
1757863381941551000,0.349551025390625,3.021781770324707,9.00773483352661,-1.3115735969543456
1757863381951536000,0.3595361328125,3.4293946029663083,8.70172593383789,-1.2361562446594239
1757863381961522400,0.3695224609375,3.2960674980163573,8.707262525177,-1.5707459266662598
1757863381971507200,0.379507080078125,2.9384336250305174,9.120860861968994,-2.0687398719787597
1757863381981493200,0.3894931640625,2.6177602401733395,9.452607429504393,-2.51555775680542
1757863381991478300,0.399478271484375,2.6487352241516113,8.996661650848388,-2.581996852874756
1757863382001463300,0.40946337890625,2.454056701660156,8.583362589263915,-2.4549545272827147
1757863382011449300,0.419449462890625,2.5972598884582516,8.575431796264647,-2.232443410491943
1757863382021434400,0.429434326171875,2.8535891036987304,8.681375219726561,-1.6910545600891111
1757863382031420200,0.439420166015625,2.775029361724853,9.018658378601074,-1.2596493484497069
1757863382041405200,0.4494052734375,2.7416601760864254,9.286659326934814,-1.4088380393981932
1757863382051390200,0.45939013671875,2.7211598243713375,9.401880281829833,-1.9042881454467773
1757863382061376300,0.469376220703125,2.769492770385742,9.39095673675537,-2.4999954460144043
1757863382071361300,0.479361328125,2.8905495918273925,9.240271669769287,-2.8151322395324705
1757863382081347300,0.489347412109375,2.808697822570801,9.27543650665283,-2.7850550811767576
1757863382091332000,0.49933203125,2.830694550323486,9.395445864868163,-2.508524789428711
1757863382101317000,0.509317138671875,3.066373776245117,9.419687156677245,-2.2623709312438964
1757863382111303400,0.519303466796875,3.1721675621032714,9.44228243484497,-2.0890905860900877
1757863382121288200,0.5292880859375,3.0500632774353025,9.430909976959228,-2.065298207092285
1757863382131274200,0.539274169921875,2.9397803634643553,9.426869761657715,-2.1480478019714355
1757863382141259300,0.54925927734375,2.818124991607666,9.36581761932373,-2.2486042716979977
1757863382151244300,0.559244384765625,2.710685192108154,9.165901780700683,-2.4652795219421386
1757863382161230300,0.569230224609375,2.7720366096496583,8.962544277191162,-2.6426000823974607
1757863382171215400,0.57921533203125,2.7670985687255856,9.015964901733398,-2.5655367164611813
1757863382181201200,0.589201171875,2.703053674316406,9.014019612884521,-2.239476377868652
1757863382191186200,0.599186279296875,2.6315268997192383,8.907178363800048,-1.8695722213745116
1757863382201171200,0.609171142578125,2.4301146850585935,8.939948999023438,-1.5728408531188964
1757863382211157200,0.6191572265625,2.388365793609619,9.052326839447021,-1.424849263000488
1757863382221142300,0.629142333984375,2.4785972686767574,9.179219527435302,-1.5942390304565428
1757863382231128300,0.63912841796875,2.4768016174316405,9.37868645324707,-1.9629460861206054
1757863382241113000,0.649113037109375,2.4953566802978515,9.318232861328125,-2.2372318138122558
1757863382251098000,0.65909814453125,2.4109610717773435,9.214683639526367,-2.2821230949401854
1757863382261084400,0.66908447265625,2.3995886138916016,9.021202217864989,-2.225560080718994
1757863382271069200,0.679069091796875,2.512864279937744,8.998756577301025,-2.0988170303344726
1757863382281055200,0.68905517578125,2.5616461387634275,9.146897805023192,-1.9490297889709471
1757863382291040300,0.699040283203125,2.565387078857422,9.133580058288574,-1.9099743743896482
1757863382301025300,0.709025390625,2.5100211654663083,9.099013771820069,-1.919850456237793
1757863382311011300,0.71901123046875,2.3835773902893065,9.140613025665283,-1.9491794265747069
1757863382320996400,0.728996337890625,2.354398057556152,9.111732968139648,-2.0341735855102536
1757863382330982100,0.738982177734375,2.4076690444946287,9.133879333496093,-2.0979192047119137
1757863382340967200,0.74896728515625,2.552368607330322,9.269451002502441,-1.8734627990722654
1757863382350953200,0.758953125,2.600252640533447,9.32122561340332,-1.6186299598693847
1757863382360938200,0.768938232421875,2.477849080657959,9.303867651367186,-1.6581342872619629
1757863382370923300,0.77892333984375,2.4440309822082518,9.264961874389648,-1.9633949989318846
1757863382380909300,0.788909423828125,2.5561095474243163,9.274538681030274,-2.258031440734863
1757863382390894000,0.79889404296875,2.6325743629455567,9.361178853607177,-2.3144448173522947
1757863382400880400,0.80888037109375,2.6397569679260253,9.433453816223144,-2.226308268737793
1757863382410865400,0.818865478515625,2.6325743629455567,9.367613270568848,-2.073528275299072
1757863382420850200,0.82885009765625,2.6503812377929687,9.303119463348388,-1.8619407035827635
1757863382430836200,0.838836181640625,2.6651953605651855,9.185803582000732,-1.743427721405029
1757863382440821200,0.8488212890625,2.6910826660156246,8.986187018585204,-1.7972972587585447
1757863382450807300,0.858807373046875,2.7192145355224606,9.015515988922118,-1.7622820594787596
1757863382460792300,0.868792236328125,2.6906337532043456,9.22515827178955,-1.6129437309265136
1757863382470777300,0.87877734375,2.5725696838378904,9.342324515533447,-1.657386099243164
1757863382480763100,0.88876318359375,2.4260744697570797,9.12370397644043,-2.2762872283935547
1757863382490748200,0.898748046875,2.5008932716369627,9.026738809204101,-2.906560815429687
1757863382500734200,0.908734130859375,2.546682378387451,9.208398860168456,-2.7865514572143555
1757863382510719200,0.91871923828125,2.6173113273620605,9.253589416503905,-2.377591886138916
1757863382520704300,0.928704345703125,2.718915260314941,9.18685104522705,-2.0026000511169433
1757863382530690300,0.938690185546875,2.786850732421875,9.291298092651367,-1.615936483001709
1757863382540675000,0.948675048828125,2.8375778800964353,9.528024781799315,-0.9778817405700683
1757863382550661400,0.958661376953125,2.7488427810668945,9.420136069488525,-0.8355763793945312
1757863382560646400,0.968646484375,2.6683377502441403,9.073575379180907,-1.3329717742919922
1757863382570631200,0.978631103515625,2.6478373985290524,9.081206896972656,-1.6213234367370604
1757863382580617200,0.9886171875,2.6587609436035153,9.186701407623291,-1.7539023536682128
1757863382590602200,0.998602294921875,2.736722135162353,9.226654647827148,-1.7422306205749511
1757863382600588300,1.00858837890625,2.736722135162353,9.26930136489868,-1.6240169136047362
1757863382610573300,1.0185732421875,2.7980735527038574,9.34127705230713,-1.591695191192627
1757863382620558300,1.028558349609375,2.6574142051696774,9.345317267608642,-1.9039888702392578
1757863382630544100,1.038544189453125,2.537105571746826,9.188646696472167,-3.0080151107788082
1757863382640529200,1.048529052734375,2.644395733642578,8.86064106903076,-3.949983826446533
1757863382650515200,1.05851513671875,2.4583961921691895,8.923488862609863,-3.810072666931152
1757863382660500200,1.068500244140625,2.69422505569458,9.102904349517821,-3.117400199127197
1757863382670485200,1.0784853515625,2.9707553474426267,9.004442806243896,-2.392854921722412
1757863382680471300,1.08847119140625,2.971952448272705,8.953566020965576,-1.7157447647094726
1757863382690456000,1.0984560546875,2.893991256713867,9.111134417724609,-1.2388497215270995
1757863382700442400,1.1084423828125,2.7795184898376464,9.243862972259521,-0.8819640365600585
1757863382710427400,1.118427490234375,2.7474960426330566,9.183259742736816,-0.7565677246093749
1757863382720413200,1.1284130859375,2.7492916938781735,9.280973097991943,-0.7664438064575195
1757863382730398200,1.138398193359375,2.7563246612548826,9.443778810882568,-0.8595183959960937
1757863382740383200,1.14838330078125,2.786102544403076,9.357288275909424,-1.1104606575012206
1757863382750369300,1.158369384765625,2.714725407409668,9.25688144378662,-1.3299790222167969
1757863382760354300,1.168354248046875,2.6396073303222654,9.145251791381835,-1.5358803649902344
1757863382770341000,1.178341064453125,2.623147193908691,9.010727585601806,-2.028188081359863
1757863382780326100,1.188326171875,2.6581623931884764,8.917054445648192,-2.586037068176269
1757863382790311200,1.198311279296875,2.6701334014892577,9.07163009033203,-2.77727392578125
1757863382800297000,1.208296875,2.73268191986084,9.268553176879882,-2.66220260848999
1757863382810282000,1.218281982421875,2.740762350463867,9.30805750427246,-2.289904250335693
1757863382820268000,1.22826806640625,2.7540800971984862,9.256282893371582,-1.8394950630187987
1757863382830253000,1.238253173828125,2.7932851493835447,9.126696728515624,-1.560869844818115
1757863382840238000,1.248238037109375,2.8501474388122556,8.94383957672119,-1.5819687469482422
1757863382850224000,1.25822412109375,2.733879020690918,9.028983373260498,-1.794603781890869
1757863382860209000,1.268208984375,2.6788123825073242,9.095721744537354,-2.057816326904297
1757863382870195200,1.2781953125,2.738068873596191,9.103353262329101,-2.1152771667480468
1757863382880180200,1.28818017578125,2.743306189727783,9.201066617584228,-1.8884265594482421
1757863382890165000,1.2981650390625,2.750488794708252,9.253439778900146,-1.597979970550537
1757863382900151000,1.308151123046875,2.728492066955566,9.208548497772217,-1.3799579818725585
1757863382910136300,1.31813623046875,2.727145328521728,9.146149617004394,-1.3775637802124023
1757863382920122000,1.3281220703125,2.801365579986572,9.203011906433105,-1.5637129592895507
1757863382930107100,1.338107177734375,2.845658310699463,9.249249925994873,-1.8263269538879394
1757863382940092200,1.348092041015625,2.80914673538208,9.22545754699707,-2.0567688636779784
1757863382950078000,1.358077880859375,2.769492770385742,9.056516692352295,-2.301725621032715
1757863382960063200,1.368063232421875,2.7130793937683104,9.076867406463622,-2.4537574264526367
1757863382970049000,1.378049072265625,2.7090391784667966,9.108889853668213,-2.2922984519958494
1757863382980034000,1.388033935546875,2.7684453071594235,9.113678256988525,-1.9334674781799315
1757863382990019000,1.39801904296875,2.780565953063965,9.21243907546997,-1.5809212837219238
1757863383000005000,1.408005126953125,2.7443536529541013,9.263914411163329,-1.4233528869628906
1757863383009990100,1.417990234375,2.7118822929382325,9.243414059448241,-1.6784850013732908
1757863383019976200,1.42797607421875,2.7310359062194824,9.214683639526367,-1.974019268798828
1757863383029961200,1.437961181640625,2.744054377746582,9.21962168045044,-2.1245546981811523
1757863383039947000,1.447947021484375,2.7627590782165528,9.241169495391846,-2.1101894882202146
1757863383049932000,1.45793212890625,2.729988442993164,9.207650672149658,-1.9563620315551757
1757863383059917300,1.467917236328125,2.7226562004089354,9.126696728515624,-1.8034324005126952
1757863383069903000,1.477903076171875,2.721608737182617,9.105148913574219,-1.732055263519287
1757863383079888100,1.48788818359375,2.7633576286315917,9.157671712493896,-1.7151462142944336
1757863383089874000,1.4978740234375,2.7724855224609373,9.192237998962401,-1.7099088981628416
1757863383099859000,1.50785888671875,2.699911284637451,9.14884309387207,-1.7989432723999021
1757863383109844200,1.51784423828125,2.6063877822875976,9.13642317276001,-1.9437924728393554
1757863383119830000,1.527830078125,2.6431986328124997,9.105148913574219,-2.0579659645080564
1757863383129815000,1.53781494140625,2.7023054862976075,9.084199649047852,-2.110638401031494
1757863383139801000,1.547801025390625,2.766948931121826,9.109189128875732,-2.05587103805542
1757863383149786000,1.5577861328125,2.793734062194824,9.175628224945068,-1.8641852676391601
1757863383159771100,1.567771240234375,2.7525837211608883,9.220519506072998,-1.672050584411621
1757863383169757200,1.577757080078125,2.720411636352539,9.21258871307373,-1.6207248863220214
1757863383179742200,1.5877421875,2.697367445373535,9.18086554107666,-1.7229273696899412
1757863383189728000,1.59772802734375,2.6783634696960448,9.150189832305907,-1.9400515327453611
1757863383199713000,1.607713134765625,2.70050983505249,9.158719175720215,-2.1251532485961913
1757863383209698300,1.6176982421875,2.6734254287719725,9.189544522094726,-2.210147407531738
1757863383219684000,1.62768408203125,2.699312734222412,9.189245246887207,-2.1951836471557615
1757863383229669000,1.637669189453125,2.748543505859375,9.187299958038329,-2.0515315475463867
1757863383239655000,1.647655029296875,2.7543793724060057,9.20690248413086,-1.831713907623291
1757863383249640000,1.657639892578125,2.7636569038391112,9.21887349243164,-1.6262614776611328
1757863383259625200,1.667625244140625,2.6966192573547363,9.25134485244751,-1.5367781906127929
1757863383269611000,1.677611083984375,2.6982652709960937,9.16814634475708,-1.5683517250061034
1757863383279596000,1.687595947265625,2.7295395301818846,9.156025698852538,-1.6641197914123533
1757863383289582000,1.69758203125,2.7371710479736326,9.184905756378173,-1.7603367706298827
1757863383299567000,1.707567138671875,2.7213094619750975,9.099013771820069,-1.998859111022949
1757863383309553200,1.71755322265625,2.6810569465637206,9.02703808441162,-2.265812596130371
1757863383319538200,1.7275380859375,2.6625018836975096,9.099313047027588,-2.429067221832275
1757863383329523200,1.737523193359375,2.709937004089355,9.176226775360107,-2.335394081878662
1757863383339509000,1.747509033203125,2.7385177864074706,9.198522778320312,-2.01756381149292
1757863383349494300,1.757494384765625,2.812887675476074,9.243862972259521,-1.6757915245056152
1757863383359480000,1.76747998046875,2.874987281036377,9.253290141296386,-1.425597451019287
1757863383369465000,1.777465087890625,2.840271356964111,9.213187263488768,-1.331774673461914
1757863383379450000,1.7874501953125,2.6969185325622558,9.043049308013915,-1.5803227333068848
1757863383389436000,1.797435791015625,2.6837504234313965,8.911966767120362,-2.015618522644043
1757863383399421200,1.807421142578125,2.6910826660156246,9.125200352478027,-2.2183774757385253
1757863383409407200,1.8174072265625,2.717119609069824,9.293692294311523,-2.2164321868896484
1757863383419392000,1.82739208984375,2.7459996665954587,9.30192236251831,-2.089988411712646
1757863383429377000,1.837376953125,2.7617116149902343,9.290998817443848,-1.8854338073730468
1757863383439363000,1.847363037109375,2.788197470855713,9.255833980560302,-1.6309002433776854
1757863383449348000,1.85734814453125,2.798223190307617,9.210044873809814,-1.5508441253662109
1757863383459334100,1.867334228515625,2.6741736167907715,9.132532595062255,-1.8100164550781248
1757863383469319200,1.877319091796875,2.670582314300537,8.856600853729248,-2.449118660736084
1757863383479304200,1.88730419921875,2.7163714210510252,8.89999575881958,-2.77727392578125
1757863383489290000,1.8972900390625,2.756773574066162,9.12280615081787,-2.6108769104003904
1757863383499275300,1.907275146484375,2.8317420135498046,9.088539139556884,-2.250250285339355
1757863383509261000,1.917260986328125,2.750937707519531,9.099612322235107,-1.9225439331054686
1757863383519246000,1.92724609375,2.6500819625854493,9.102006523895263,-1.7685668388366698
1757863383529232100,1.937232177734375,2.6785131072998047,9.062053283691405,-1.7874211769104003
1757863383539217000,1.947216796875,2.764854004669189,9.147795630645751,-1.76198278427124
1757863383549202200,1.9572021484375,2.7910405853271483,9.313145182800293,-1.6479589302062987
1757863383559188200,1.967188232421875,2.8010663047790527,9.419836794281006,-1.5508441253662109
1757863383569173000,1.977173095703125,2.8152818771362305,9.395595502471924,-1.5930419296264648
1757863383579159000,1.987158935546875,2.7397148872375485,9.279327084350586,-1.8025345748901367
1757863383589144000,1.99714404296875,2.6651953605651855,9.126696728515624,-2.103006883239746
1757863383599129000,2.007129150390625,2.6491841369628903,9.026439533996582,-2.3766940605163573
1757863383609115100,2.017115234375,2.6957214317321774,8.998457302093506,-2.3759458724975584
1757863383619100200,2.02710009765625,2.724152576446533,9.090634066009521,-2.1089923873901366
1757863383629086000,2.0370859375,2.7492916938781735,9.156923524475097,-1.8950106140136718
1757863383639071000,2.047071044921875,2.7404630752563475,9.092130442047118,-1.9289783500671385
1757863383649056300,2.05705615234375,2.7914894981384277,9.07163009033203,-2.046892781829834
1757863383659042000,2.0670419921875,2.7870003700256345,9.09661957015991,-2.0515315475463867
1757863383669027000,2.077027099609375,2.7391163368225095,9.159168088531494,-1.9717747047424314
1757863383679013000,2.08701318359375,2.7660511054992676,9.178471339416504,-1.8570026626586913
1757863383688998100,2.096998046875,2.7412112632751464,9.147346717834472,-1.7621324218749999
1757863383698983200,2.106983154296875,2.760065601348877,9.156474611663818,-1.7449240974426268
1757863383708969200,2.11696923828125,2.823212670135498,9.16754779434204,-1.812560294342041
1757863383718954000,2.1269541015625,2.8452093978881834,9.217227478790283,-1.9674352142333984
1757863383728940000,2.13693994140625,2.7672482063293455,9.274837956237793,-2.1555296821594236
1757863383738925300,2.14692529296875,2.702455123901367,9.144353965759278,-2.259378179168701
1757863383748910000,2.15691015625,2.685246799468994,9.12295578842163,-2.2076035682678223
1757863383758896000,2.166896240234375,2.701258023071289,9.140463388061523,-2.0063409912109376
1757863383768880400,2.17688037109375,2.7720366096496583,9.110685504913329,-1.7628806098937988
1757863383778866200,2.1868662109375,2.741510538482666,9.1799677154541,-1.5456068092346191
1757863383788851200,2.196851318359375,2.7220576499938964,9.182661192321778,-1.5243582695007323
1757863383798837500,2.20683740234375,2.781164503479004,9.189544522094726,-1.7257704841613768
1757863383808822300,2.216822265625,2.7416601760864254,9.234435803222656,-2.0223522148132322
1757863383818807300,2.226807373046875,2.6734254287719725,9.152135121154785,-2.3924060089111325
1757863383828793300,2.23679345703125,2.727294966125488,9.000252953338622,-2.546083827972412
1757863383838778400,2.2467783203125,2.729838805389404,8.97002615737915,-2.4346038131713867
1757863383848764400,2.256764404296875,2.731933731842041,9.115024995422363,-2.076371389770508
1757863383858749400,2.26674951171875,2.7760768249511716,9.200916979980468,-1.6448165405273436
1757863383868734500,2.276734375,2.810942386627197,9.211092337036133,-1.3482348098754882
1757863383878720300,2.28672021484375,2.7883471084594724,9.149591281890869,-1.4558242469787597
1757863383888705300,2.296705322265625,2.7525837211608883,9.037662354278565,-1.9589058708190916
1757863383898691300,2.30669140625,2.6785131072998047,9.114426445007323,-2.2878093238830566
1757863383908676400,2.31667626953125,2.7343279335021973,9.208398860168456,-2.361431024932861
1757863383918661400,2.326661376953125,2.748393868255615,9.274987593841551,-2.195034009552002
1757863383928647200,2.336647216796875,2.7617116149902343,9.280224909973144,-1.8885761970520019
1757863383938632200,2.346632080078125,2.8021137680053707,9.259724558258057,-1.5734394035339354
1757863383948618500,2.356618408203125,2.8459575859069823,9.27004955291748,-1.3699322624206542
1757863383958603300,2.366603271484375,2.844311572265625,9.256133255767821,-1.3262380821228026
1757863383968588300,2.37658837890625,2.756623936462402,9.143156864929198,-1.5267524711608886
1757863383978574300,2.38657421875,2.6439468208312986,8.921693211364746,-2.1589713470458984
1757863383988559400,2.396559326171875,2.6440964584350586,8.987084844207763,-2.5776573623657226
1757863383998545400,2.40654541015625,2.7334301078796384,9.037213441467285,-2.616263864135742
1757863384008530400,2.416530517578125,2.833238389587402,8.966883767700194,-2.4685715492248534
1757863384018516200,2.42651611328125,2.7418098136901854,9.012523236846924,-2.29214881439209
1757863384028501200,2.436501220703125,2.7697920455932614,9.120411949157715,-2.0241478660583496
1757863384038486300,2.446486328125,2.8890532157897946,9.151536570739745,-1.7821838607788085
1757863384048472300,2.456472412109375,2.8480525123596188,9.208099584960937,-1.6038158370971678
1757863384058457300,2.466457275390625,2.730586993408203,9.197624952697753,-1.553986515045166
1757863384068443400,2.476443359375,2.6529250770568846,9.020154754638671,-1.8396447006225585
1757863384078428200,2.48642822265625,2.6779145568847653,9.038859455108643,-2.193687271118164
1757863384088413200,2.4964130859375,2.7379192359924316,9.144503603363036,-2.277933242034912
1757863384098399500,2.5063994140625,2.806602896118164,9.036315615844726,-2.122908684539795
1757863384108384300,2.51638427734375,2.864811923980713,8.951620732116698,-1.868075845336914
1757863384118370300,2.526370361328125,2.768894219970703,9.013570700073242,-1.5972317825317381
1757863384128355300,2.536355224609375,2.6982652709960937,9.070582627105713,-1.3461398834228515
1757863384138340400,2.54634033203125,2.695571794128418,8.99441708679199,-1.349581548309326
1757863384148326400,2.556326416015625,2.711283742523193,8.971372895812987,-1.524507907104492
1757863384158311400,2.5663115234375,2.812139487457275,8.978854776000976,-1.632396619415283
1757863384168297200,2.576297119140625,2.914940521240234,8.971672171020508,-1.6958429634094236
1757863384178282200,2.5862822265625,2.929156093597412,8.914510606384276,-1.802384937286377
1757863384188268500,2.5962685546875,2.814234413909912,8.930671467590331,-1.9587562332153319
1757863384198253300,2.60625341796875,2.6548703659057615,9.018957653808593,-2.0413561904907227
1757863384208238300,2.61623828125,2.487425887298584,9.015515988922118,-2.1651064888000486
1757863384218224400,2.626224365234375,2.4958055931091305,8.920645748138428,-2.243366955566406
1757863384228209200,2.636209228515625,2.5561095474243163,8.920196835327149,-2.159719535064697
1757863384238195500,2.646195556640625,2.570325119781494,9.042600395202637,-1.882740330505371
1757863384248180500,2.656180419921875,2.657863117980957,9.141810126495361,-1.5780781692504882
1757863384258165200,2.666165283203125,2.637961316680908,9.164555042266846,-1.3150152618408202
1757863384268151300,2.6761513671875,2.4506150367736814,9.137620273590088,-1.1956044540405273
1757863384278136300,2.68613623046875,2.4441806198120117,9.088389501953124,-1.4028525352478027
1757863384288122400,2.696122314453125,2.5392004981994627,9.101707248687744,-1.7140987510681152
1757863384298107400,2.706107421875,2.407519406890869,9.25762963180542,-2.0401590896606443
1757863384308092400,2.716092529296875,2.297086855316162,9.399486080169677,-2.466775897979736
1757863384318078200,2.726078125,2.3282114768981934,9.336937561798095,-2.5074773262023924
1757863384328063200,2.736063232421875,2.291250988769531,9.332448433685302,-2.18979669342041
1757863384338049500,2.746049560546875,2.3222259727478027,9.356839363098144,-1.974019268798828
1757863384348034300,2.756034423828125,2.1829133636474607,9.287257877349854,-1.950376527404785
1757863384358020400,2.766020263671875,2.027589530944824,9.057115242767333,-2.060809078979492
1757863384368005400,2.77600537109375,1.9826982498168944,8.95655877304077,-2.064550019073486
1757863384377990100,2.785990234375,1.9587562332153319,8.888174388122557,-2.0874445724487303
1757863384387976400,2.7959765625,1.9795558601379393,8.801234940338134,-2.173785469818115
1757863384397961500,2.80596142578125,1.8981530036926269,8.789114294433594,-1.898003366088867
1757863384407947300,2.815947265625,1.894860976409912,8.78507407913208,-1.649604943847656
1757863384417932300,2.825932373046875,1.8656816436767576,8.83639977722168,-1.2565069587707518
1757863384427917300,2.835917236328125,1.8323124580383299,8.639476690673828,-1.2937667221069336
1757863384437903400,2.8459033203125,1.6165350334167479,8.314314177703857,-1.679682102203369
1757863384447888400,2.855888427734375,1.5574281799316405,7.985410724639892,-2.10046304397583
1757863384457874200,2.865874267578125,1.5183727653503416,7.732972087097168,-2.4001871643066406
1757863384467859200,2.875859130859375,1.569848101043701,7.532457698059082,-2.501342184448242
1757863384477844200,2.88584423828125,1.5254057327270507,7.3937436393737785,-2.1345804176330567
1757863384487830500,2.89583056640625,1.4022539848327635,7.22076256942749,-1.6724994972229004
1757863384497815300,2.905815185546875,1.3386580032348632,6.870460939025879,-1.2003928573608398
1757863384507801300,2.91580126953125,1.2318167541503906,6.468683972930908,-0.936581761932373
1757863384517786400,2.925786376953125,1.092354507446289,6.282834069061279,-0.5945101997375488
1757863384527772400,2.9357724609375,0.7912836486816406,6.0233624641418455,-0.356885684967041
1757863384537757400,2.94575732421875,0.5069722015380859,5.851728132629394,-0.030974983978271482
1757863384547742500,2.955742431640625,0.2442085693359375,5.827636478424072,0.30960020217895506
1757863384557728300,2.965728271484375,0.06120177993774414,5.695656111907959,0.6162076522827148
1757863384567713300,2.97571337890625,-0.10818798751831055,5.695656111907959,0.6854898628234863
1757863384577699300,2.98569921875,-0.43978491744995113,5.797708957672119,0.49545010604858397
1757863384587684400,2.995684326171875,-0.7311293319702148,5.7453357963562,0.0570119270324707
1757863384597669400,3.00566943359375,-0.8728361427307129,5.522226129150391,-0.5125087928771972
1757863384607655200,3.0156552734375,-1.5257050079345702,5.495740273284912,-0.7417536018371581
1757863384617640200,3.02564013671875,-1.8363526733398436,5.150077408599853,-0.9515455223083495
1757863384627626500,3.03562646484375,-1.560271294403076,4.5617023506164545,-1.017685343170166
1757863384637611300,3.045611328125,-1.7666215499877929,4.601505953216552,-0.6528688652038573
1757863384647596300,3.05559619140625,-1.9074305351257324,4.37944374923706,-0.43230303726196284
1757863384657582300,3.065582275390625,-2.115127529144287,3.867832781982422,-0.45055882492065424
1757863384667567400,3.0755673828125,-2.550572956085205,3.658938687133789,-0.19602526092529296
1757863384677553400,3.085553466796875,-2.9390321754455564,3.825335702514648,0.1906383071899414
1757863384687538400,3.095538330078125,-3.425952938079834,4.159177196502685,0.618003303527832
1757863384697524200,3.105524169921875,-3.775207105255127,4.525639688110351,1.036090768432617
1757863384707509200,3.11550927734375,-3.9169139160156248,5.18389550704956,1.1195885513305663
1757863384717494300,3.125494384765625,-4.054430873870849,5.944353809356689,0.8490437637329101
1757863384727480300,3.135480224609375,-4.0924388252258295,6.769006643676757,0.5591957252502441
1757863384737465300,3.14546533203125,-4.272452862548828,7.904905693817138,0.7154173835754394
1757863384747451400,3.155451416015625,-4.45605820236206,9.039009092712401,1.006163247680664
1757863384757436200,3.165436279296875,-4.573822996520996,9.895385099029541,1.387290224456787
1757863384767422000,3.175421875,-4.509029914093017,10.077494062805176,1.777994007873535
1757863384777408000,3.185407958984375,-4.4930186904907226,9.816226806640625,1.9823989746093749
1757863384787393000,3.19539306640625,-4.895543844604492,9.328707493591308,1.6566379112243652
1757863384797379000,3.205379150390625,-5.232976641082764,8.916605532836913,1.4040496360778807
1757863384807364000,3.215364013671875,-5.3287447074890135,8.840140717315673,1.4936825607299804
1757863384817350000,3.225349853515625,-5.22250200881958,9.089436965179443,1.622221262359619
1757863384827335000,3.2353349609375,-5.10114591217041,9.248801013183593,1.682824491882324
1757863384837320200,3.2453203125,-5.097704247283935,9.317484673309325,1.8929156875610351
1757863384847306000,3.255305908203125,-5.347748683166504,9.307907866668701,2.2692542610168456
1757863384857291000,3.265291015625,-5.536441701507568,9.113977532196044,2.408866145324707
1757863384867276800,3.27527685546875,-5.9591679321289055,9.292495193481445,2.7914894981384277
1757863384877261800,3.28526171875,-6.314557241058349,9.568726210021971,3.4754829849243163
1757863384887247000,3.2952470703125,-6.264877556610107,9.718812726593017,3.299808438110351
1757863384897233000,3.30523291015625,-6.172251879882812,10.096498038482665,2.8630162727355954
1757863384907218000,3.315218017578125,-5.959616844940185,10.264092154693603,2.5387515853881832
1757863384917204000,3.325203857421875,-5.564573571014404,10.253916797637938,2.3350948066711426
1757863384927189000,3.33518896484375,-5.295674797058105,10.224887102508545,2.3431752372741697
1757863384937174000,3.345174072265625,-5.351938536071777,10.240748688507079,2.5438392639160154
1757863384947160000,3.35516015625,-5.822099887084961,10.239850862884522,2.7067946144104003
1757863384957145000,3.36514501953125,-6.430526383972167,10.29791025314331,2.7211598243713375
1757863384967131000,3.375130859375,-7.119607549285888,10.585962640380858,2.9234698646545407
1757863384977116000,3.385115966796875,-7.867496292877197,10.91636246948242,2.7257985900878903
1757863384987101200,3.39510107421875,-8.570194480133056,11.083657310485838,2.0000562118530274
1757863384997087000,3.4050869140625,-8.872312802124023,10.964246502685546,1.3238438804626464
1757863385007072000,3.415072021484375,-8.45946265335083,10.530896002197265,1.1893196746826171
1757863385017057800,3.425057861328125,-7.484424027252197,10.09335564880371,1.7770961822509765
1757863385027042800,3.435042724609375,-6.63358461227417,10.022277787017822,2.9595325271606443
1757863385037029000,3.445029052734375,-6.257694951629638,10.130316136932372,4.362085787200927
1757863385047014000,3.455013916015625,-6.282385156249999,10.512789852142333,5.483469989776611
1757863385056999000,3.4649990234375,-6.410325307464599,10.969334181213378,5.73949992980957
1757863385066985000,3.47498486328125,-6.532130316925048,11.125106926727295,5.0014872680664055
1757863385076970000,3.484969970703125,-6.621912879180908,10.845434245300293,3.7874773887634277
1757863385086956000,3.4949560546875,-6.536769082641602,10.463110167694092,2.9147908836364746
1757863385096941000,3.504941162109375,-6.4225955909729,10.306738871765136,2.6632500717163086
1757863385106926000,3.514926025390625,-6.507140837097167,10.308235247802735,2.6632500717163086
1757863385116911900,3.524911865234375,-6.8031240173339835,10.333524002838134,2.8130373130798336
1757863385126897200,3.534897216796875,-7.281964349365234,10.411185919189453,3.151367935180664
1757863385136883000,3.544883056640625,-7.761552869415283,10.351630152893065,3.323600817108154
1757863385146868000,3.554867919921875,-8.121580944061279,10.192266104888915,3.4317888046264646
1757863385156854000,3.56485400390625,-8.388684066772461,9.868899243164062,3.72208575592041
1757863385166838800,3.5748388671875,-8.43372498550415,9.468917928314209,3.9733272926330563
1757863385176824000,3.584823974609375,-8.208370754241942,9.248801013183593,4.263923519134521
1757863385186810000,3.59481005859375,-7.515249373626709,9.08449892425537,4.480449131774902
1757863385196795000,3.604794921875,-6.6051534675598145,9.054571403503417,4.640411730194091
1757863385206781000,3.614781005859375,-5.621136585235595,8.98259571609497,4.685452648925781
1757863385216766000,3.624765869140625,-4.83942974319458,8.933963494873046,4.2317514343261715
1757863385226751000,3.6347509765625,-4.176385520935058,9.207201759338378,3.299808438110351
1757863385236737000,3.644737060546875,-3.2558149826049805,10.662876368713379,2.6218004554748533
1757863385246722000,3.65472216796875,-2.0407576400756833,13.557166900634765,2.4166473007202147
1757863385256707800,3.664707763671875,-1.1559504890441894,16.79038660507202,2.1095909378051756
1757863385266692900,3.67469287109375,-1.8245313026428223,18.045397187805175,1.3784616058349608
1757863385276678100,3.68467822265625,-3.42176308517456,17.24363890686035,-0.0022445640563964844
1757863385286664000,3.694663818359375,-5.4141877792358395,14.83806478881836,-1.7702128524780272
1757863385296649000,3.70464892578125,-6.312013401794434,11.854739882659912,-3.656694123077392
1757863385306635000,3.714635009765625,-4.999242704010009,9.737068514251709,-4.94731845550537
1757863385316619800,3.724619873046875,-2.094627177429199,8.997409838867187,-4.258686203002929
1757863385326606000,3.734606201171875,-0.11596914291381835,8.296656940460204,-2.677016731262207
1757863385336591000,3.744591064453125,0.045938744354248044,7.307253104400634,-1.0519523544311522
1757863385346576000,3.754575927734375,-0.4296095603942871,6.309619200134277,0.10504559783935546
1757863385356562000,3.76456201171875,-1.0829273384094238,5.693261910247802,0.877175633239746
1757863385366547000,3.774546875,-1.485602130126953,5.436334144592285,1.722478456878662
1757863385376533000,3.784532958984375,-1.66636435546875,5.820004960632324,2.539649411010742
1757863385386518000,3.79451806640625,-1.7274164978027342,6.74177259979248,3.225288911437988
1757863385396503000,3.8045029296875,-1.3946224670410154,7.874229985046386,3.653701371002197
1757863385406488800,3.81448876953125,-0.8149263900756836,8.896105181121825,3.6508582565307615
1757863385416473900,3.824473876953125,-0.6833949363708496,9.80021558303833,2.887407202148437
1757863385426460000,3.8344599609375,-0.7175123100280761,10.614693060302734,1.703324843597412
1757863385436445000,3.84444482421875,-0.8901941047668457,11.251999614715576,0.2914940521240234
1757863385446431000,3.854430908203125,-1.355417414855957,11.381585779571532,-1.1827356201171875
1757863385456416000,3.864416015625,-1.9122189384460448,11.173739147949219,-2.6927286796569825
1757863385466401000,3.874401123046875,-2.3446716133117675,10.791415070343017,-3.8371570732116695
1757863385476387000,3.884386962890625,-2.2896049751281735,10.1644335105896,-4.445433932495117
1757863385486372000,3.8943720703125,-1.6834230422973633,9.655815295410155,-4.012233069610596
1757863385496358000,3.90435791015625,-0.8288426872253417,9.341576327514648,-2.9219734886169433
1757863385506343000,3.914343017578125,-0.2507926239013672,9.192537274169922,-1.7209820808410643
1757863385516328200,3.924328125,0.09352350234985352,9.07851342010498,-0.6715735656738281
1757863385526314000,3.93431396484375,0.3372831588745117,9.036764528656006,0.04683656997680664
1757863385536299000,3.944299072265625,0.31663316955566406,9.137769911193848,0.4242226066589355
1757863385546284800,3.954284912109375,0.2332850242614746,9.344868354797363,0.455197590637207
1757863385556269800,3.964269775390625,0.2742857276916504,9.803956523132324,0.11552023010253906
1757863385566255000,3.974255126953125,0.5545569595336913,10.455628287506103,-0.5371989974975586
1757863385576241000,3.984240966796875,1.1198878265380858,11.325920590972899,-1.1264718811035155
1757863385586226000,3.994225830078125,1.3612532814025877,11.974749240875244,-1.7833809616088867
1757863385596212000,4.0042119140625,1.2822446266174317,11.813290266418456,-2.721758374786377
1757863385606197000,4.014197021484375,1.0824784255981446,11.339088700103758,-3.6118028419494626
1757863385616183000,4.02418310546875,0.843956085205078,10.871321550750732,-4.248361208343505
1757863385626168000,4.03416796875,0.955136824798584,10.21456210784912,-4.5145665054321285
1757863385636153000,4.044153076171875,1.2771569480895995,9.686191728973387,-4.415805686950684
1757863385646139000,4.054138916015625,1.7235259201049804,9.381828842926025,-4.058770364379883
1757863385656124000,4.0641240234375,2.282572007751465,9.177573513793945,-3.493589134979248
1757863385666110000,4.07410986328125,2.6008511909484864,8.955511309814453,-2.8459575859069823
1757863385676095000,4.084094970703125,2.5758617111206052,8.623016554260253,-2.2444144187927244
1757863385686081000,4.0940810546875,2.1383213577270506,8.42130506439209,-1.9629460861206054
1757863385696065800,4.104065673828125,1.6403274124145506,8.068160319519043,-2.1562778701782226
1757863385706050800,4.11405078125,1.421856510925293,7.741501430511474,-2.4779987182617185
1757863385716037000,4.124037109375,1.473481484222412,7.831283992767333,-2.65576819152832
1757863385726022000,4.13402197265625,1.5779285316467284,8.094496537780762,-2.747196767425537
1757863385736008000,4.144008056640625,1.5671546241760252,8.383596388244628,-2.6722283279418946
1757863385745993000,4.153992919921875,1.4864999557495115,8.61284119720459,-2.5851392425537107
1757863385755978000,4.16397802734375,1.451784031677246,8.732252005004883,-2.6536732650756836
1757863385765963000,4.173962890625,1.3932757286071777,8.979902239227295,-2.7029040367126465
1757863385775948000,4.183947998046875,1.4047978240966796,9.17428148651123,-2.8731916297912594
1757863385785934300,4.193934326171875,1.3819032707214354,9.326014016723633,-2.9536966606140136
1757863385795919000,4.203919189453125,1.3359645263671873,9.447519750976562,-2.8667572128295897
1757863385805904100,4.213904052734375,1.4408604866027832,9.407716148376464,-2.9824270805358886
1757863385815890200,4.22389013671875,1.7597382202148437,9.610774376678465,-2.461089669036865
1757863385825875000,4.233875,2.2014684265136717,9.639953709411621,-2.000355487060547
1757863385835861200,4.243861328125,2.507178050994873,9.781510882568359,-1.525256095123291
1757863385845846300,4.25384619140625,2.8853122756958007,9.9591307182312,-1.204732347869873
1757863385855832000,4.26383203125,2.797026089477539,9.925162982177733,-1.6223708999633788
1757863385865817000,4.273817138671875,2.7705402336120604,9.4358480178833,-2.4293664970397946
1757863385875802000,4.283802001953125,2.7283424293518066,8.952069644927978,-3.07729732131958
1757863385885788200,4.2937880859375,2.522441086578369,8.62541075592041,-3.427150038909912
1757863385895773200,4.303773193359375,2.495655955505371,8.386888415527343,-3.708169458770752
1757863385905759000,4.313759033203125,2.6497826873779293,8.053495834350585,-4.099322154998779
1757863385915744000,4.323743896484375,2.657264567565918,8.326883736419678,-3.3446997192382812
1757863385925729000,4.33372900390625,2.4838345848083496,8.105120807647705,-2.5842414169311523
1757863385935715000,4.343715087890625,2.2131401596069336,7.884106066894531,-2.2822727325439454
1757863385945700000,4.3537001953125,2.282422370147705,8.238148637390136,-1.7805378471374511
1757863385955686100,4.36368603515625,2.588281632232666,8.381202186584472,-1.6186299598693847
1757863385965671200,4.373671142578125,3.1118636077880857,8.213159157562256,-1.4691419937133787
1757863385975657200,4.3836572265625,3.5953427055358884,8.16542476196289,-1.378311968231201
1757863385985642200,4.393642333984375,3.5980361824035643,8.264185580444336,-1.2048819854736328
1757863385995627300,4.403627197265625,3.5609260566711423,8.35681125717163,-0.6323685134887695
1757863386005613000,4.413613037109375,3.960757733917236,8.441057228088379,-0.19467852249145506
1757863386015598000,4.42359814453125,3.7611411705017086,8.724620487213134,-1.0217255584716796
1757863386025584000,4.433584228515625,3.9715316413879393,8.284237019348144,-2.3018752586364744
1757863386035569200,4.443569091796875,4.416104962158203,7.808838352203368,-3.3687913734436035
1757863386045554200,4.45355419921875,4.461594793701171,7.987505651092529,-4.180276098632812
1757863386055540000,4.4635400390625,4.398148449707031,7.9183730781555175,-4.559158511352539
1757863386065525000,4.47352490234375,4.385279615783691,7.983615073394775,-4.165162700653076
1757863386075511300,4.48351123046875,4.509778102111816,8.168118238830566,-3.3699884742736814
1757863386085496000,4.49349609375,4.755183772277832,8.08955849685669,-2.8275521606445313
1757863386095482000,4.503482177734375,4.8686090759277345,7.937377053833007,-2.833388027191162
1757863386105467100,4.513467041015625,4.937442373657226,8.05708713684082,-3.147028444671631
1757863386115452200,4.5234521484375,5.15875638961792,8.067412131500244,-3.438073583984375
1757863386125438200,4.533438232421875,5.202600207519531,7.919719816589355,-3.3324294357299804
1757863386135423200,4.54342333984375,5.197213253784179,7.84026224899292,-2.929904281616211
1757863386145409000,4.553408935546875,5.206041872406005,7.730278610229492,-2.459144380187988
1757863386155394000,4.56339404296875,5.277568647003173,7.932439012908935,-2.0018518630981443
1757863386165379000,4.573379150390625,5.354931288146973,8.057984962463378,-2.2786814300537106
1757863386175365000,4.583365234375,4.97335539855957,8.078634951782226,-2.860771708679199
1757863386185350100,4.59335009765625,4.8883612396240235,8.123376595306397,-3.218255944061279
1757863386195336200,4.603336181640625,4.949413381958007,8.232013495635986,-3.197306679534912
1757863386205321000,4.613321044921875,4.902427174377441,8.266280506896972,-2.8130373130798336
1757863386215307300,4.623307373046875,4.876390231323242,8.18562583847046,-2.4548048896789547
1757863386225292300,4.633292236328125,4.857086980438232,8.219443936920166,-2.174533657836914
1757863386235277000,4.643277099609375,4.8786347953796385,8.38239928741455,-1.7720085037231443
1757863386245263000,4.65326318359375,4.84556488494873,8.380005085754394,-1.6868647071838379
1757863386255248100,4.663248046875,4.760421088409424,8.333617428588866,-1.7603367706298827
1757863386265234200,4.673234130859375,4.644003032684326,8.17904178390503,-2.052429373168945
1757863386275219200,4.68321923828125,4.486135360717773,8.174552655792235,-2.4034791915893554
1757863386285204200,4.693204345703125,4.318541244506836,8.35681125717163,-2.600402278137207
1757863386295190000,4.70318994140625,4.481496595001221,8.448988021087645,-2.7178677970886227
1757863386305175000,4.713175048828125,4.49466470413208,8.520365158081054,-2.559251937103271
1757863386315161300,4.723161376953125,4.347421302032471,8.435520636749267,-2.3855226791381834
1757863386325146000,4.73314599609375,4.248510845947266,8.37521668243408,-2.2508488357543945
1757863386335132200,4.743132080078125,4.3263223999023435,8.407688042449951,-2.2328923233032225
1757863386345117200,4.7531171875,4.32841732635498,8.585906428527831,-2.4034791915893554
1757863386355102000,4.76310205078125,4.025700453948974,8.482357206726073,-2.4537574264526367
1757863386365088300,4.773088134765625,4.263474606323242,8.528744863891601,-2.236034712982178
1757863386375073300,4.7830732421875,4.4942157913208005,8.475174601745605,-2.473210314941406
1757863386385059000,4.79305908203125,4.477755654907226,8.556577458190917,-2.2291513832092282
1757863386395044000,4.803044189453125,4.359093035125732,8.571690856170655,-1.995716721343994
1757863386405029000,4.813029052734375,4.298789080810547,8.582315126037598,-1.9541174674987791
1757863386415015200,4.82301513671875,4.13703083114624,8.675240077972411,-1.6274585784912108
1757863386425000200,4.833000244140625,4.207809417724609,8.59952345046997,-1.8498200576782224
1757863386434986200,4.842986328125,4.426579594421386,8.548048114776611,-2.2671593345642087
1757863386444971000,4.852970947265625,4.544045113372802,8.431181146240235,-2.522441086578369
1757863386454957300,4.862957275390625,4.684704460906982,7.95473501586914,-2.7569232116699216
1757863386464942300,4.8729423828125,4.7370776222229,7.896675625610351,-2.839074256134033
1757863386474927000,4.882927001953125,4.415656049346923,8.237101174163818,-2.6026468421936033
1757863386484913200,4.8929130859375,4.178181172180175,8.263437392425537,-2.3720552947998046
1757863386494898200,4.902898193359375,4.153191692352294,8.289474335479737,-2.225560080718994
1757863386504884200,4.91288427734375,4.236689475250244,8.260145365142822,-2.052579010772705
1757863386514869200,4.922869140625,4.40518141708374,8.31251852645874,-1.8158523216247557
1757863386524854300,4.932854248046875,4.625148694610595,8.509142337799071,-1.5409680435180664
1757863386534840000,4.942840087890625,4.7572786987304685,8.454075699615478,-1.2105682144165038
1757863386544825000,4.9528251953125,4.615422250366211,8.384943126678467,-0.9127893829345702
1757863386554811100,4.96281103515625,4.430021259307861,8.383596388244628,-1.2217910346984862
1757863386564796200,4.972796142578125,4.46907667388916,8.399457974243164,-1.6864157943725584
1757863386574781200,4.98278125,4.602254141235352,8.463203593444824,-1.990030492401123
1757863386584767000,4.99276708984375,4.58399835357666,8.386589140319824,-2.356492984008789
1757863386594752000,5.002751953125,4.6167689888000485,8.253262035369872,-2.342127774047851
1757863386604738300,5.01273828125,4.452466899871826,8.347683363342284,-2.418293314361572
1757863386614723300,5.022723388671875,4.462043706512451,8.258200076293944,-2.5016414596557617
1757863386624709000,5.032709228515625,4.696675469207763,8.147767524719237,-2.225560080718994
1757863386634694100,5.042694091796875,4.846163435363769,8.300248242950438,-1.8688240333557127
1757863386644679200,5.05267919921875,4.815038813781738,8.35696089477539,-1.6524480583190917
1757863386654665200,5.062665283203125,4.551227718353271,8.757840035247803,-2.4283190338134766
1757863386664650200,5.072650146484375,3.5277065086364745,8.831162461090088,-4.2314521591186525
1757863386674636000,5.082635986328125,3.5782840187072753,7.110030742645264,-2.8932430686950683
1757863386684621000,5.09262109375,5.0583495574951165,8.42115542678833,-2.3464672645568845
1757863386694607400,5.102607421875,5.301809938812256,8.6061075050354,-2.8624177223205565
1757863386704592100,5.112592041015625,5.095758958435058,7.954435740661621,-2.851194902038574
1757863386714577200,5.1225771484375,4.452167624664306,8.322394608306885,-2.2713491874694824
1757863386724563200,5.132563232421875,4.07927071609497,8.359654371643066,-1.4800655387878416
1757863386734548000,5.1425478515625,4.21349564666748,8.429535132598877,-1.1604396171569824
1757863386744534300,5.1525341796875,4.386476716613769,8.338705107116699,-1.196502279663086
1757863386754519300,5.162519287109375,4.433911837005615,8.34349351043701,-1.3153145370483397
1757863386764504300,5.17250439453125,4.386775991821289,8.464251056671142,-1.7366940292358397
1757863386774491000,5.182490966796875,4.3725604194641114,8.422801440429687,-2.2294506584167477
1757863386784476000,5.192475830078125,4.276642715454101,8.340800033569336,-2.643797183227539
1757863386794461700,5.202461669921875,4.319738345336914,8.45931301574707,-2.8118402122497557
1757863386804446700,5.21244677734375,4.388422005462647,8.670900587463379,-2.6659435485839844
1757863386814431700,5.222431640625,4.11174207611084,8.615983586883544,-2.3368904579162595
1757863386824417800,5.232417724609375,4.244021717834473,8.585457515716552,-1.9987094734191893
1757863386834402800,5.24240283203125,4.582053064727783,8.636035025787352,-1.719934617614746
1757863386844388600,5.252388671875,4.827159459686279,8.443750704956054,-1.7597382202148437
1757863386854373600,5.26237353515625,4.66061280670166,8.25565623703003,-1.8359037605285644
1757863386864359700,5.272359619140625,4.3920133079528805,8.196250108337402,-1.9975123725891113
1757863386874344700,5.2823447265625,4.361786511993408,8.36997936630249,-2.070984436035156
1757863386884329700,5.292329833984375,4.36073904876709,8.432078971862792,-2.231994497680664
1757863386894315800,5.302315673828125,4.4662335594177245,8.269572534179687,-2.3795371749877927
1757863386904300800,5.31230078125,4.5036429603576655,8.305485559082031,-2.2849662094116208
1757863386914286600,5.32228662109375,4.382137226104736,8.434323535919189,-2.0968717414855957
1757863386924271900,5.33227197265625,4.3807904876708985,8.380603636169432,-2.1089923873901366
1757863386934257700,5.342257568359375,4.492120864868164,8.302792082214355,-2.260724917602539
1757863386944242700,5.35224267578125,4.469525586700439,8.249820370483398,-2.389562894439697
1757863386954227700,5.362227783203125,4.373607882690429,8.27301419906616,-2.5854385177612302
1757863386964213800,5.3722138671875,4.385429253387451,8.377910159301758,-2.546832015991211
1757863386974198800,5.38219873046875,4.479551306152343,8.358307633209227,-2.4097639709472656
1757863386984184800,5.392184814453125,4.524442587280273,8.37012900390625,-2.2834698333740233
1757863386994169600,5.402169677734375,4.493766878509521,8.400505437469482,-2.095375365447998
1757863387004154600,5.412154541015625,4.460846605682373,8.29336491317749,-2.0904373245239256
1757863387014141000,5.422140869140625,4.42448466796875,8.273762387084961,-2.223016241455078
1757863387024125700,5.432125732421875,4.393808959197997,8.346785537719725,-2.3301567657470703
1757863387034111700,5.44211181640625,4.3342531929016115,8.432378247070313,-2.47096575088501
1757863387044096800,5.4520966796875,4.408323806762695,8.409932606506347,-2.540098323822021
1757863387054081800,5.462081787109375,4.39859736251831,8.339154019927978,-2.467673723602295
1757863387064067800,5.47206787109375,4.460098417663574,8.422202890014647,-2.233790148925781
1757863387074052900,5.482052978515625,4.55870959854126,8.442852879333495,-2.015618522644043
1757863387084038700,5.49203857421875,4.534169031524658,8.445995269012451,-1.8987515541076658
1757863387094023700,5.502023681640625,4.466682472229004,8.43387462310791,-1.935712042236328
1757863387104009700,5.512009765625,4.324077835845947,8.375366320037841,-2.0575170516967773
1757863387113994800,5.521994873046875,4.304924222564697,8.341398583984375,-2.1773767723083495
1757863387123979800,5.531979736328125,4.378246648406982,8.303091357421874,-2.2958897544860837
1757863387133965800,5.5419658203125,4.417601338195801,8.352322129058837,-2.3892636192321777
1757863387143950600,5.55195068359375,4.4279263328552245,8.466944533538818,-2.4877251625061034
1757863387153936600,5.5619365234375,4.466682472229004,8.38224964981079,-2.4703672004699704
1757863387163922000,5.571921875,4.326172762298584,8.39496884613037,-2.3403321228027343
1757863387173907700,5.58190771484375,4.228908319854736,8.43372498550415,-2.2104466827392577
1757863387183892700,5.591892822265625,4.406827430725097,8.306383384704588,-2.1061492729187012
1757863387193877800,5.601877685546875,4.507533538055419,8.316409104156493,-2.022950765228271
1757863387203863600,5.611863525390625,4.506186799621582,8.35007756500244,-2.0374656127929685
1757863387213848800,5.621848876953125,4.448426684570312,8.35726016998291,-2.1345804176330567
1757863387223835000,5.6318349609375,4.447528858947754,8.38883370437622,-2.3493103790283203
1757863387233819600,5.641819580078125,4.500650208282471,8.415319560241699,-2.461239306640625
1757863387243804700,5.6518046875,4.414907861328125,8.519616970062255,-2.4097639709472656
1757863387253790700,5.661790771484375,4.433762199401855,8.505700672912598,-2.311900978088379
1757863387263775700,5.671775634765625,4.504091873168945,8.44045867767334,-2.160617360687256
1757863387273761800,5.68176171875,4.46279189453125,8.435071723937988,-2.0724808120727536
1757863387283746800,5.691746826171875,4.409670545196533,8.326285186004638,-2.1306898399353025
1757863387293731600,5.701731689453125,4.349366590881347,8.360552197265624,-2.095375365447998
1757863387303717600,5.711717529296875,4.404283591461182,8.429086219787598,-2.247856083679199
1757863387313703000,5.721702880859375,4.497657456207275,8.463951781463622,-2.4492682983398435
1757863387323688700,5.731688720703125,4.390367294311523,8.509142337799071,-2.442684243774414
1757863387333673700,5.741673828125,4.428075970458984,8.415469197845459,-2.3389853843688964
1757863387343659500,5.751659423828125,4.480299494171143,8.30009860534668,-2.0950760902404784
1757863387353644800,5.761644775390625,4.476708191680908,8.27346311187744,-1.8644845428466796
1757863387363629800,5.7716298828125,4.425083218383789,8.2743609375,-1.884535981750488
1757863387373615600,5.78161572265625,4.410418733215332,8.233958784484862,-2.0108301193237303
1757863387383600600,5.7916005859375,4.422090466308593,8.226626541900634,-2.161814461517334
1757863387393586700,5.801586669921875,4.4093712699890135,8.44674345703125,-2.3020248962402343
1757863387403572000,5.811572021484375,4.446631033325195,8.469787648010254,-2.5474305664062498
1757863387413557800,5.821557861328125,4.429572346496582,8.464849607086181,-2.5336639068603515
1757863387423542800,5.831542724609375,4.249408671569824,8.516474580383301,-2.4111107093811035
1757863387433527800,5.84152783203125,4.336497756958008,8.452130410766602,-2.344970888519287
1757863387443513600,5.851513671875,4.546888227844238,8.393472470092773,-2.1417630226135254
1757863387453499000,5.861498779296875,4.572027345275878,8.40828659286499,-2.1525369300842283
1757863387463484700,5.871484619140625,4.464737183380127,8.405593115997315,-2.3789386245727537
1757863387473469700,5.8814697265625,4.383184689331054,8.394370295715332,-2.4516625
1757863387483454700,5.891454833984375,4.331559716033936,8.407538404846191,-2.390161444854736
1757863387493440500,5.9014404296875,4.374505708312988,8.399607611846923,-2.283020920562744
1757863387503425800,5.91142578125,4.422838654327393,8.457966277313233,-2.064101106262207
1757863387513411800,5.921411865234375,4.394706784820556,8.466944533538818,-1.9321207397460936
1757863387523396600,5.931396728515625,4.510975202941895,8.431779696655273,-1.950376527404785
1757863387533382700,5.941382568359375,4.5875896560668945,8.362796761322022,-2.028936269378662
1757863387543367700,5.95136767578125,4.5121723037719725,8.272116373443604,-2.2432173179626465
1757863387553353000,5.96135302734375,4.4391491531372065,8.202085974884033,-2.475903791809082
1757863387563338800,5.9713388671875,4.437802414703369,8.282142092895507,-2.4735095901489257
1757863387573323800,5.98132373046875,4.4382513275146485,8.378508709716796,-2.3783400741577148
1757863387583309600,5.9913095703125,4.421641553497314,8.511536539459229,-2.21523508605957
1757863387593294600,6.001294677734375,4.415656049346923,8.489839086914062,-2.0603601661682127
1757863387603280000,6.01127978515625,4.435557850646973,8.444049980163573,-1.9955670837402342
1757863387613265700,6.021265625,4.45022233581543,8.297405128479003,-2.122160496520996
1757863387623250700,6.031250732421875,4.496161080169678,8.21660082244873,-2.2480057212829587
1757863387633236700,6.04123681640625,4.467281022644043,8.347533725738526,-2.247856083679199
1757863387643221500,6.051221435546875,4.470273774719238,8.404695290374756,-2.281823819732666
1757863387653207800,6.061207763671875,4.518606720733643,8.406640579223632,-2.3077111251831055
1757863387663192800,6.07119287109375,4.44303973083496,8.370278641510009,-2.2943933784484862
1757863387673177600,6.081177490234375,4.387374542236328,8.441805416107178,-2.176329309082031
1757863387683163600,6.09116357421875,4.390666569519043,8.451681497955322,-2.1025579704284665
1757863387693148700,6.101148681640625,4.441842630004882,8.383746025848389,-2.133084041595459
1757863387703134700,6.111134765625,4.530128816223145,8.313865264892577,-2.109441300201416
1757863387713119700,6.12111962890625,4.4382513275146485,8.352771041870117,-2.109441300201416
1757863387723104800,6.131104736328125,4.386177441406249,8.281693180084227,-2.261173830413818
1757863387733090600,6.141090576171875,4.4193969894409175,8.295908752441406,-2.289904250335693
1757863387743075800,6.151075927734375,4.43032053451538,8.479663729858398,-2.228702470397949
1757863387753062000,6.161061767578125,4.451569074249267,8.448988021087645,-2.252494849395752
1757863387763046700,6.171046630859375,4.45635747756958,8.425046004486083,-2.2375310890197753
1757863387773032400,6.181032470703125,4.410418733215332,8.450334759521484,-2.182165175628662
1757863387783017500,6.191017578125,4.401739752197265,8.412925358581543,-2.205807917022705
1757863387793002200,6.201002197265625,4.425681768798828,8.375964870452881,-2.1646575759887696
1757863387802988500,6.210988525390625,4.39889663772583,8.300547518157959,-2.088192760467529
1757863387812973600,6.2209736328125,4.403385765838623,8.224830890655516,-2.084451820373535
1757863387822959400,6.23095947265625,4.459948780059814,8.26224029159546,-2.1121347770690915
1757863387832944400,6.2409443359375,4.558111048126221,8.321796057891845,-2.201169151306152
1757863387842929400,6.250929443359375,4.490175576019287,8.437765200805664,-2.3075614875793455
1757863387852915500,6.26091552734375,4.355202457427978,8.454674250030518,-2.485480598449707
1757863387862900500,6.270900390625,4.310011901092529,8.454374974822997,-2.6280852348327635
1757863387872886500,6.280886474609375,4.362684337615967,8.445845631408691,-2.554463533782959
1757863387882871300,6.290871337890625,4.458452404022217,8.340051845550537,-2.3484125534057614
1757863387892857600,6.300857666015625,4.453664000701904,8.349329376983642,-2.0028993263244628
1757863387902842600,6.310842529296875,4.533570481109619,8.347384088134765,-1.8079215286254882
1757863387912827400,6.320827392578125,4.602104503631591,8.36444277496338,-1.8668787445068358
1757863387922813400,6.3308134765625,4.576217198181152,8.405742753601073,-2.088791310882568
1757863387932798500,6.340798583984375,4.428225608062744,8.417414486694335,-2.363974864196777
1757863387942784500,6.350784423828125,4.357147746276855,8.401103987884522,-2.6153660385131836
1757863387952769500,6.36076953125,4.493916516113281,8.283788106536864,-2.564788528442383
1757863387962754600,6.370754638671875,4.528782077789306,8.308478311157225,-2.279728893280029
1757863387972740400,6.380740234375,4.461894068908691,8.345139524078368,-2.0636521934509275
1757863387982725400,6.390725341796875,4.379144474029541,8.386140227508545,-2.0069395416259765
1757863387992711400,6.40071142578125,4.414458948516845,8.426392742919921,-2.110638401031494
1757863388002696400,6.410696533203125,4.53267265548706,8.380753273773193,-2.2641665824890134
1757863388012682500,6.4206826171875,4.543895475769043,8.206126190185547,-2.5284265907287597
1757863388022667500,6.43066748046875,4.482244783020019,8.199392498016357,-2.6508301506042478
1757863388032652300,6.44065234375,4.459649504852295,8.40140326309204,-2.5315689804077146
1757863388042638600,6.450638671875,4.4562078399658205,8.448239833068847,-2.3632266761779785
1757863388052623600,6.46062353515625,4.44333900604248,8.393771745300292,-2.073079362487793
1757863388062609400,6.470609375,4.477157104492187,8.393023557281493,-1.8104653678894043
1757863388072594400,6.480594482421875,4.568735317993164,8.38284820022583,-1.786224076080322
1757863388082579500,6.490579345703125,4.598513201141357,8.364592412567138,-1.9207482818603514
1757863388092565500,6.5005654296875,4.579359587860107,8.412177170562744,-1.9611504348754882
1757863388102550500,6.510550537109375,4.481047682189941,8.28124426727295,-2.318784307861328
1757863388112536300,6.520536376953125,4.273799600982666,8.268674708557128,-2.6364649406433105
1757863388122521300,6.530521240234375,4.30971262588501,8.29246708755493,-2.791788773345947
1757863388132507600,6.540507568359375,4.463689720153808,8.358008358001708,-2.7097873664855956
1757863388142492400,6.550492431640625,4.550629167938232,8.406790216827392,-2.378190436553955
1757863388152477400,6.5604775390625,4.615422250366211,8.38913297958374,-2.2744915771484373
1757863388162463500,6.57046337890625,4.608987833404541,8.449736209106446,-2.338087558746338
1757863388172448500,6.580448486328125,4.529380628204345,8.445845631408691,-2.3368904579162595
1757863388182434600,6.5904345703125,4.297292704772949,8.489689449310303,-2.3406313980102538
1757863388192419600,6.600419677734375,4.291307200622558,8.285284482574463,-2.4431331565856933
1757863388202405400,6.6104052734375,4.370166217803955,8.257601525878906,-2.243366955566406
1757863388212390400,6.620390380859375,4.425981044006347,8.279448616027832,-1.9997569366455077
1757863388222375400,6.63037548828125,4.504391148376465,8.250718196105957,-1.9889830291748045
1757863388232361500,6.640361572265625,4.384980340576171,8.246677980804442,-2.184709014892578
1757863388242346500,6.650346435546875,4.3357495689392085,8.155249404907225,-2.559251937103271
1757863388252332500,6.66033251953125,4.3156981300354005,8.194454457092284,-2.8089970977783203
1757863388262317300,6.6703173828125,4.364330351257324,8.256703700256347,-2.8733412673950194
1757863388272302300,6.68030224609375,4.417601338195801,8.285434120178222,-2.7864018196105955
1757863388282288600,6.69028857421875,4.349067315673828,8.4145713722229,-2.4405893173217774
1757863388292273400,6.7002734375,4.332457541656494,8.43387462310791,-2.397942600250244
