time,seconds_elapsed,z,y,x
1757862634427361000,0.021361083984375,-0.026553047820925713,0.014872423373162746,-0.008363124914467335
1757862634437346000,0.031345947265625,-0.023870179429650307,0.019953468814492226,-0.015153120271861553
1757862634447331000,0.0413310546875,-0.013487312942743301,0.005252286326140165,-0.008863266557455063
1757862634457315800,0.05131591796875,-0.006468551699072123,-0.01992657035589218,0.00270657055079937
1757862634467300900,0.06130078125,-0.0028999161440879107,-0.025664083659648895,0.011234278790652752
1757862634477287200,0.071287109375,-0.0026181535795331,-0.0065292720682919025,0.01429238636046648
1757862634487272000,0.08127197265625,-0.008599081076681614,0.01435097586363554,0.013098491355776787
1757862634497257000,0.091257080078125,-0.02845774032175541,0.02905375510454178,0.005222725216299295
1757862634507242000,0.101241943359375,-0.040954358875751495,0.025440111756324768,-0.0013097425689920783
1757862634517227000,0.11122705078125,-0.03338964655995369,0.004713262431323528,-0.007013434544205666
1757862634527212000,0.1212119140625,-0.020558537915349007,-0.012832175008952618,-0.0012855078093707561
1757862634537197000,0.131197021484375,-0.0035686357878148556,-0.03208816051483154,0.011513377539813519
1757862634547182000,0.14118212890625,0.013456952758133411,-0.04284466803073883,0.01793372631072998
1757862634557167000,0.1511669921875,0.02172686718404293,-0.02929903194308281,0.019651198759675026
1757862634567152000,0.161152099609375,0.0163576677441597,-0.007852597162127495,0.01931031420826912
1757862634577138000,0.171137939453125,-0.006051500793546438,0.014554974623024464,0.013350159861147404
1757862634587123000,0.181123046875,-0.026582075282931328,0.02359880320727825,0.002229065867140889
1757862634597108200,0.191108154296875,-0.038245655596256256,0.03188789263367653,-0.0089953588321805
1757862634607093000,0.201093017578125,-0.03997564688324928,0.02556874230504036,-0.011050520464777946
1757862634617078000,0.211078125,-0.03621260076761246,-0.00031798143754713237,-0.0006775081856176257
1757862634627063000,0.22106298828125,-0.016693226993083954,0.011458250693976879,0.013517673127353191
1757862634637048000,0.231048095703125,0.0051833102479577065,0.036122582852840424,0.01164387259632349
1757862634647033000,0.241033203125,0.009401757270097733,0.033129192888736725,0.002841326640918851
1757862634657017900,0.251017822265625,0.010613495483994484,0.02064136229455471,-0.0025001754984259605
1757862634667003000,0.2610029296875,0.0009691243176348507,0.026639332994818687,-0.0035356127191334963
1757862634676988200,0.27098828125,-0.016278838738799095,0.03780357167124748,0.0029800771735608578
1757862634686974000,0.280973876953125,-0.02984125167131424,0.05264270305633545,0.004225371405482292
1757862634696959000,0.290958984375,-0.03928615152835846,0.06099837273359299,0.0037819549906998873
1757862634706944000,0.300944091796875,-0.042451586574316025,0.0692288726568222,-0.0007062703371047974
1757862634716929000,0.310928955078125,-0.034873560070991516,0.11479955166578293,-0.00336144189350307
1757862634726914000,0.3209140625,-0.033241577446460724,0.14551858603954315,-0.0024461133871227503
1757862634736898800,0.33089892578125,-0.04417544975876808,0.16624782979488373,-0.004051999654620886
1757862634746884000,0.340884033203125,-0.054000116884708405,0.1771039366722107,-0.0038330876268446445
1757862634756869000,0.350869140625,-0.05360091105103493,0.1847591996192932,-0.008275507017970085
1757862634766854100,0.360854248046875,-0.045587990432977676,0.16900047659873962,-0.007996140979230404
1757862634776839000,0.3708388671875,-0.03386635333299637,0.15047019720077515,-0.011349060572683811
1757862634786825000,0.380824951171875,-0.01047341339290142,0.11590290069580078,-0.01272964384406805
1757862634796810000,0.39081005859375,0.018787536770105362,0.07110107690095901,-0.0071098413318395615
1757862634806795000,0.400794921875,0.051840294152498245,0.013144563883543015,0.003357979701831937
1757862634816780000,0.410780029296875,0.06760567426681519,-0.008956210687756538,0.008501342497766018
1757862634826765000,0.42076513671875,0.05555220693349838,0.01600240170955658,0.016042349860072136
1757862634836750000,0.43075,0.03389724716544151,0.05470026284456253,0.014299310743808746
1757862634846735000,0.440735107421875,0.01703011617064476,0.06555770337581635,-0.0026666230987757444
1757862634856720000,0.450719970703125,0.004845355171710253,0.08849524706602097,-0.0052232579328119755
1757862634866705000,0.460704833984375,-0.008383897133171558,0.08064371347427368,0.0029467877466231585
1757862634876690000,0.47068994140625,-0.014361095614731312,0.10607477277517319,0.014814100228250027
1757862634886676000,0.480676025390625,-0.02100728079676628,0.1432945728302002,0.015426626428961754
1757862634896661000,0.490660888671875,-0.02641855739057064,0.14339923858642578,0.005540173966437578
1757862634906646000,0.50064599609375,-0.021288244053721428,0.11654205620288849,0.0010604707058519125
1757862634916631000,0.510631103515625,-0.004341219086199999,0.05706088989973068,-0.004596616141498089
1757862634926616000,0.520615966796875,0.023264842107892036,-0.01835264265537262,-0.006991863250732422
1757862634936600800,0.530600830078125,0.04844316467642784,-0.07335171103477478,0.004721784498542547
1757862634946585900,0.5405859375,0.0510096549987793,-0.07305530458688736,0.009456885047256947
1757862634956571100,0.550571044921875,0.045089978724718094,-0.02701377496123314,0.010378604754805565
1757862634966556200,0.56055615234375,0.03347140550613403,0.027947477996349335,0.0023185480386018753
1757862634976541000,0.570541015625,0.015114770270884037,0.07849880307912827,-0.005572930909693241
1757862634986526000,0.58052587890625,-0.007196660153567791,0.08513566851615906,-0.012960539199411869
1757862634996512000,0.590511962890625,-0.021086908876895905,0.08864251524209976,-0.008927182294428349
1757862635006497000,0.6004970703125,-0.01330115832388401,0.08339768648147583,-0.0013997574569657445
1757862635016482000,0.61048193359375,0.006131129339337349,0.05182697996497154,0.005346029531210661
1757862635026467000,0.620467041015625,0.030887607485055923,0.022049641236662865,0.012105398811399937
1757862635036452000,0.6304521484375,0.05267652869224548,-0.017836786806583405,0.010011621750891209
1757862635046437000,0.64043701171875,0.0656871348619461,-0.023920778185129166,0.010118413716554642
1757862635056422000,0.650421875,0.05638311430811882,-0.011294732801616192,0.010277404449880123
1757862635066406700,0.66040673828125,0.024204937741160393,0.0008412926108576357,0.007071225438266993
1757862635076391700,0.6703916015625,-0.02389201708137989,0.017375262454152107,0.0002956108655780554
1757862635086376700,0.680376708984375,-0.07218098640441895,0.0602971613407135,-0.0026644926983863115
1757862635096362800,0.69036279296875,-0.08961643278598785,0.0824780985713005,-0.002261822810396552
1757862635106347800,0.70034765625,-0.06434357166290283,0.06963393837213516,-0.005072789266705513
1757862635116332800,0.710332763671875,-0.006024336442351341,0.029676401987671852,-0.0008727178792469203
1757862635126317800,0.72031787109375,0.040892038494348526,-0.02641855739057064,0.011796471662819386
1757862635136302600,0.730302490234375,0.06189718842506409,-0.05299131199717522,0.02093244530260563
1757862635146287600,0.74028759765625,0.0528285950422287,-0.05167331546545029,0.013348829001188278
1757862635156272600,0.750272705078125,0.018398715183138847,-0.030435403808951378,0.002558765234425664
1757862635166257700,0.760257568359375,-0.024218786507844925,-0.0189028512686491,-0.010114152915775776
1757862635176243000,0.770242919921875,-0.03711327910423279,0.0027917916886508465,-0.02051699347794056
1757862635186227700,0.780227783203125,-0.031741950660943985,0.024628380313515663,-0.023687485605478287
1757862635196212700,0.790212646484375,-0.017124924808740616,0.04212668165564537,-0.013489976525306702
1757862635206198800,0.80019873046875,0.004905010107904673,0.0035361452028155327,0.0021257351618260145
1757862635216183600,0.81018359375,0.04008882865309715,-0.048223987221717834,0.011667574755847454
1757862635226168600,0.82016845703125,0.06463145464658737,-0.06707597523927689,0.015913452953100204
1757862635236153600,0.830153564453125,0.06175897270441055,-0.0630577951669693,0.01407640427350998
1757862635246139000,0.840138916015625,0.03688930720090866,-0.0337478443980217,0.0052355085499584675
1757862635256124000,0.8501240234375,0.0029702235478907824,0.012621785514056683,-0.005949768237769604
1757862635266108700,0.860108642578125,-0.03203490003943443,0.03724430873990059,-0.008051002398133278
1757862635276093700,0.87009375,-0.04403749853372574,0.012475045397877693,-0.012239888310432434
1757862635286078700,0.88007861328125,-0.027410585433244705,-0.03405037894845009,-0.01738058775663376
1757862635296063700,0.890063720703125,0.002404035534709692,-0.05196945741772652,-0.011440407484769821
1757862635306048500,0.900048583984375,0.01871589757502079,-0.05258624628186226,-0.00005699164830730297
1757862635316034800,0.910034912109375,0.019045596942305565,-0.03334970027208328,0.002834934974089265
1757862635326019800,0.920019775390625,0.006427539046853781,0.006677077617496252,-0.001790975802578032
1757862635336004600,0.930004638671875,0.002528671408072114,0.04316185042262077,-0.00857484620064497
1757862635345989600,0.93998974609375,0.01570519432425499,0.016396284103393555,-0.004288754425942898
1757862635355974700,0.949974609375,0.03831356763839722,-0.04235757514834404,0.0034173682797700167
1757862635365959700,0.959959716796875,0.04704873636364937,-0.07906153053045273,0.012560532428324223
1757862635375944700,0.96994482421875,0.04207528010010719,-0.08235905319452286,0.012852948158979416
1757862635385929700,0.9799296875,0.039077095687389374,-0.0499422587454319,0.006369482260197401
1757862635395914800,0.989914794921875,0.027187412604689598,-0.031017303466796875,-0.009552226401865482
1757862635405899800,0.999899658203125,0.00854581780731678,-0.013597833923995495,-0.015789348632097244
1757862635415885600,1.009885498046875,-0.007020358927547932,0.015977900475263596,-0.016703080385923386
1757862635425870600,1.01987060546875,-0.01727432757616043,0.03707945719361305,-0.008345015347003937
1757862635435855600,1.029855712890625,-0.020473849028348923,0.021937789395451546,-0.003751595038920641
1757862635445841000,1.0398408203125,-0.006106362212449312,-0.0032256206031888723,-0.002621615771204233
1757862635455826000,1.049825927734375,0.008594286628067493,0.016534768044948578,0.0004724447790067643
1757862635465810700,1.059810791015625,0.017099624499678612,0.03969947621226311,0.00008229167724493891
1757862635475795700,1.069795654296875,0.01979101449251175,0.06330519914627075,-0.005094094667583704
1757862635485780700,1.07978076171875,0.020790232345461845,0.0718235895037651,-0.00885021686553955
1757862635495765800,1.089765869140625,0.011717109940946102,0.06711165606975555,-0.007071225438266993
1757862635505750800,1.099750732421875,-0.005205947440117598,0.05407415330410004,-0.005612611770629883
1757862635515735600,1.109735595703125,-0.017287909984588623,-0.002769687445834279,-0.0067484499886631966
1757862635525721900,1.119721923828125,-0.010098174214363098,-0.08267650753259659,-0.00815033819526434
1757862635535707000,1.129706787109375,0.031494010239839554,-0.07526013255119324,0.0007203850545920432
1757862635545691600,1.139691650390625,0.04875262454152107,-0.0013422331539914012,0.00037284253630787134
1757862635555676700,1.1496767578125,0.024944230914115906,0.029575468972325325,-0.006131129339337349
1757862635565661700,1.15966162109375,-0.002927612978965044,0.04703275486826897,-0.004055195488035679
1757862635575646700,1.169646728515625,-0.02515781670808792,0.045411691069602966,-0.0027545075863599777
1757862635585631500,1.179631591796875,-0.035580363124608994,0.044794902205467224,-0.0006556702428497374
1757862635595616800,1.18961669921875,-0.04271044582128525,0.059847887605428696,0.0037052559200674295
1757862635605601800,1.199601806640625,-0.04754568263888359,0.05567151680588722,0.0035502600949257612
1757862635615586800,1.2095869140625,-0.03461842983961105,0.054969776421785355,-0.0031166973058134317
1757862635625571800,1.21957177734375,-0.016468189656734467,0.02937120385468006,-0.0062368568032979965
1757862635635557600,1.2295576171875,-0.0007315703551284969,-0.007994542829692364,0.0009882990270853043
1757862635645542700,1.239542724609375,0.010157030075788498,-0.02497752197086811,0.008974852971732616
1757862635655528000,1.24952783203125,-0.00016325176693499088,-0.022129271179437637,0.008687231689691544
1757862635665512700,1.2595126953125,-0.012001534923911095,0.009855560027062893,0.009370332583785057
1757862635675497700,1.269497802734375,-0.03705495595932007,0.019482888281345367,-0.0020849888678640127
1757862635685482800,1.279482666015625,-0.042697660624980927,0.038846466690301895,-0.0009677927591837943
1757862635695467800,1.2894677734375,-0.0347723625600338,0.03129320964217186,0.0015150723047554493
1757862635705452800,1.299452880859375,-0.016742227599024773,0.014364558272063732,0.01209927350282669
1757862635715437600,1.3094375,0.0043707797303795815,0.0059835901483893394,0.023448068648576736
1757862635725422600,1.319422607421875,0.011933092027902603,0.0006870955694466829,0.024349015206098557
1757862635735407900,1.329407958984375,0.012505938299000263,-0.01315148826688528,0.017475929111242294
1757862635745393700,1.3393935546875,0.000966993800830096,-0.03075418435037136,0.007902397774159908
1757862635755378700,1.349378662109375,-0.022334067150950432,-0.03668610751628876,0.0007084008539095521
1757862635765363700,1.35936376953125,-0.04891374707221985,-0.033310819417238235,-0.0008996158139780164
1757862635775348700,1.3693486328125,-0.05417002737522125,-0.026013758033514023,-0.00012383698776829988
1757862635785333800,1.379333740234375,-0.03773859143257141,-0.012542955577373505,0.003689809702336788
1757862635795318500,1.389318603515625,-0.014947790652513504,-0.016019446775317192,0.006601177155971527
1757862635805303800,1.3993037109375,0.01908154971897602,-0.02129250578582287,0.017900969833135605
1757862635815288800,1.409288818359375,0.02479003556072712,-0.04723062738776207,0.018747588619589806
1757862635825273900,1.41927392578125,0.013274792581796646,-0.0477941520512104,0.0224459208548069
1757862635835258600,1.429258544921875,-0.016803747043013573,-0.030595192685723305,0.022776419296860695
1757862635845244700,1.43924462890625,-0.050812847912311554,-0.0061508365906775,0.013540309853851795
1757862635855229700,1.449229736328125,-0.05879886820912361,0.011183146387338638,0.0007744472241029143
1757862635865214700,1.459214599609375,-0.04716458171606064,0.0014692660188302398,-0.004462925251573324
1757862635875199700,1.46919970703125,-0.023196931928396225,-0.02985376864671707,0.0005539375124499202
1757862635885184800,1.479184814453125,0.0023734092246741056,-0.06153792887926102,0.008047007024288177
1757862635895169800,1.489169677734375,0.00926460511982441,-0.07669664174318314,0.01238982379436493
1757862635905154800,1.49915478515625,-0.003981425892561674,-0.06048651412129402,0.012650281190872192
1757862635915139600,1.5091396484375,-0.02755759097635746,-0.021707160398364067,0.009124255739152431
1757862635925124600,1.51912451171875,-0.051893822848796844,0.03922410309314728,-0.00030067088664509356
1757862635935109600,1.529109619140625,-0.058757856488227844,0.04177061468362808,-0.003925765864551067
1757862635945095000,1.539094970703125,-0.02389627881348133,-0.009734652936458588,-0.0054666707292199135
1757862635955080700,1.549080810546875,0.02576315402984619,-0.05726861581206322,0.0024839304387569427
1757862635965065700,1.559065673828125,0.05720176920294762,-0.08023491501808167,0.017168600112199783
1757862635975050800,1.56905078125,0.0577879324555397,-0.06564585864543915,0.021983595564961433
1757862635985035800,1.579035888671875,0.02454795315861702,-0.016892164945602417,0.01326840091496706
1757862635995020500,1.5890205078125,-0.022335665300488472,0.04411233216524124,-0.0005094627267681062
1757862636005005800,1.599005859375,-0.05753999203443527,0.0715855062007904,-0.014210893772542477
1757862636014990800,1.608990966796875,-0.06210731342434883,0.036256540566682816,-0.01726607233285904
1757862636024976000,1.618975830078125,-0.03135472536087036,-0.014585866592824459,-0.005245361942797899
1757862636034960600,1.628960693359375,0.00902705080807209,-0.05361742153763771,0.0030722226947546005
1757862636044945700,1.638945556640625,0.0357513390481472,-0.05073774605989456,0.011917379684746265
1757862636054930700,1.6489306640625,0.03431056812405586,-0.0005925533478148282,0.00800226628780365
1757862636064917000,1.6589169921875,0.013248959556221962,0.05032575502991676,-0.004734035115689039
1757862636074902000,1.668902099609375,-0.004561728797852993,0.06106042489409447,-0.011999937705695629
1757862636084887000,1.678886962890625,-0.0105354655534029,0.04206942394375801,-0.01107555441558361
1757862636094872000,1.6888720703125,-0.010488327592611313,0.009347961284220219,-0.004584365524351597
1757862636104857000,1.698857177734375,-0.005149221979081631,-0.01124999113380909,0.006854177452623844
1757862636114841900,1.708841796875,0.0062307314947247505,-0.03859000280499458,0.004246943164616823
1757862636124827000,1.718826904296875,0.027779966592788696,-0.06457313150167465,-0.002210689941421151
1757862636134812000,1.72881201171875,0.042876627296209335,-0.0373670794069767,-0.0027316042687743902
1757862636144797200,1.738797119140625,0.037027791142463684,-0.0011084076249971986,-0.003349990351125598
1757862636154782000,1.748781982421875,0.019833626225590706,0.03238856419920921,-0.0005744438385590911
1757862636164767000,1.75876708984375,0.012321913614869118,0.0397878922522068,-0.00016192019393201917
1757862636174753000,1.7687529296875,0.004686364438384771,0.03816602751612663,-0.0033393376506865025
1757862636184738000,1.778738037109375,-0.009809753857553005,0.032704949378967285,-0.004229632206261158
1757862636194722800,1.788722900390625,-0.01516750082373619,0.02894829399883747,-0.0067484499886631966
1757862636204707800,1.798707763671875,-0.005543902516365051,0.014365357346832752,-0.01236132811754942
1757862636214693000,1.808693115234375,0.012048939242959023,0.004823783412575722,-0.010323477908968925
1757862636224678100,1.81867822265625,0.030055902898311615,-0.0007901599165052176,-0.0017030915478244424
1757862636234663000,1.828662841796875,0.038173217326402664,0.003751595038920641,0.005132444202899933
1757862636244648000,1.83864794921875,0.03611832484602928,0.011544536799192429,0.006648315116763115
1757862636254633000,1.848633056640625,0.02420174330472946,0.016582172363996506,0.0034261567052453756
1757862636264618000,1.858617919921875,0.0020208065398037434,0.023376695811748505,-0.0037499971222132444
1757862636274603000,1.86860302734375,-0.014177338220179081,0.024602815508842468,-0.008312790654599667
1757862636284589000,1.878589111328125,-0.016018914058804512,0.011265969835221767,-0.010574347339570522
1757862636294574000,1.888573974609375,-0.009062470868229866,-0.000604004948399961,-0.0041334922425448895
1757862636304559000,1.89855908203125,0.008814264088869095,-0.012197543866932392,0.0033164345659315586
1757862636314543900,1.9085439453125,0.031309984624385834,-0.0025457157753407955,0.005143629387021065
1757862636324529000,1.91852880859375,0.03991279378533363,0.012824985198676586,0.006382798310369253
1757862636334514000,1.928513916015625,0.0338013730943203,0.010967163369059563,0.002195776207372546
1757862636344499000,1.9384990234375,0.020532172173261642,0.0054754591546952724,0.0003787015157286078
1757862636354484000,1.94848388671875,0.0016538230702280998,0.0027486486360430717,-0.00005326322207110934
1757862636364469000,1.958468994140625,-0.008745288476347923,0.0070579093880951405,-0.001064998097717762
1757862636374454000,1.9684541015625,-0.005963616538792849,0.002603239845484495,-0.001190433045849204
1757862636384439000,1.97843896484375,0.004649613052606583,-0.005738845560699701,-0.003739344421774149
1757862636394424800,1.9884248046875,0.01721413992345333,-0.009877664037048817,-0.0015310513554140925
1757862636404409900,1.998409912109375,0.02822391502559185,-0.011684618890285492,0.0024748756550252438
1757862636414395000,2.008394775390625,0.025801504030823708,-0.026749854907393456,0.003822967642918229
1757862636424380200,2.018380126953125,0.01756620965898037,-0.04319727048277855,0.004661597311496735
1757862636434365000,2.028364990234375,0.004458398092538118,-0.05037502199411392,0.004493285436183214
1757862636444350000,2.038349853515625,0.0006854976527392864,-0.049555569887161255,0.0019707391038537025
1757862636454335000,2.0483349609375,0.002359027974307537,-0.06815668195486069,0.0026378610637038946
1757862636464320000,2.058320068359375,0.010312558151781559,-0.06467593461275101,-0.0023036343045532703
1757862636474305000,2.068304931640625,0.020135894417762756,-0.04050241783261299,-0.0015603461069986224
1757862636484289800,2.078289794921875,0.020324978977441788,-0.002413356676697731,-0.003230947069823742
1757862636494276000,2.088276123046875,-0.002332396572455764,0.010863300412893295,-0.007905061356723309
1757862636504261000,2.09826123046875,-0.02474289759993553,0.010096043348312378,-0.009583118371665478
1757862636514246000,2.108245849609375,-0.026207901537418365,0.0022354573011398315,-0.007839813828468323
1757862636524231000,2.11823095703125,-0.016343552619218826,-0.010582070797681808,-0.0026993800420314074
1757862636534216000,2.1282158203125,0.0029169602785259485,-0.027580760419368744,0.003914047963917255
1757862636544201000,2.138200927734375,0.017227722331881523,-0.02713601291179657,0.009929063729941845
1757862636554186000,2.14818603515625,0.02341264858841896,-0.011960788629949093,0.011224957183003426
1757862636564171000,2.1581708984375,0.018878882750868797,0.007434213999658823,0.00336170825175941
1757862636574156000,2.168156005859375,-0.0012335762148723006,0.021505026146769524,-0.004263987299054861
1757862636584141000,2.17814111328125,-0.02533837966620922,0.021992383524775505,-0.010298976674675941
1757862636594126000,2.1881259765625,-0.03753778710961342,0.006850183010101318,-0.006839263718575239
1757862636604112000,2.19811181640625,-0.027835892513394356,-0.008407865650951862,-0.0023225427139550447
1757862636614097000,2.208096923828125,-0.003194994293153286,-0.013892113231122494,0.0032264196779578924
1757862636624082000,2.21808203125,0.015202654525637627,-0.0062760054133832455,0.0055151404812932014
1757862636634067000,2.22806689453125,0.025425998494029045,-0.0004854942671954632,0.004914331249892712
1757862636644052000,2.238052001953125,0.034456510096788406,-0.01781308464705944,0.0036448021419346333
1757862636654037000,2.248037109375,0.03574787825345993,-0.03855351731181145,0.0035084483679383993
1757862636664022000,2.25802197265625,0.020075174048542976,-0.03509806469082832,0.010510697960853577
1757862636674007000,2.268007080078125,-0.0005840312223881483,-0.031262315809726715,0.013519271276891232
1757862636683991800,2.27799169921875,-0.003641340183094144,-0.01495285052806139,0.009594038128852844
1757862636693976800,2.287976806640625,0.015382152050733566,-0.016594689339399338,0.0033774208277463913
1757862636703962000,2.297962158203125,0.03447248786687851,-0.021575067192316055,0.0021406488958746195
1757862636713948000,2.307947998046875,0.04134877026081085,-0.01762320287525654,0.003579022129997611
1757862636723933000,2.317932861328125,0.03365783020853996,0.005301288329064846,0.003858121344819665
1757862636733918000,2.32791796875,0.011914449743926525,0.02726650796830654,0.003343332326039672
1757862636743903000,2.337903076171875,-0.0030919299460947514,0.022818762809038162,0.008462194353342056
1757862636753888000,2.347887939453125,0.007214769721031189,0.014150439761579037,0.013884656131267548
1757862636763872800,2.357872802734375,0.03452016040682793,-0.0180000402033329,0.018450379371643066
1757862636773858000,2.367858154296875,0.06577741354703903,-0.046001315116882324,0.019482355564832687
1757862636783843000,2.377843017578125,0.09065400063991547,-0.06676944345235825,-0.00018482338055036962
1757862636793828000,2.387828125,0.10606704652309418,-0.12586045265197754,-0.034569162875413895
1757862636803812900,2.397812744140625,0.09823442250490189,-0.17832154035568237,-0.058093130588531494
1757862636813799000,2.407798828125,0.07252426445484161,-0.20440879464149475,-0.06326659023761749
1757862636823784000,2.417783935546875,0.07621221244335175,-0.19288210570812225,-0.04800907149910927
1757862636833769000,2.42776904296875,0.11700624972581863,-0.17705866694450378,-0.045706503093242645
1757862636843754000,2.43775390625,0.17897188663482666,-0.19408905506134033,-0.06842273473739624
1757862636853739000,2.447739013671875,0.25766721367836,-0.26900216937065125,-0.1368393450975418
1757862636863724000,2.45772412109375,0.3058651089668274,-0.3919976055622101,-0.23026064038276672
1757862636873709000,2.467708984375,0.35595545172691345,-0.5162833333015442,-0.29029732942581177
1757862636883693800,2.47769384765625,0.35609233379364014,-0.5825462341308594,-0.29480502009391785
1757862636893678800,2.487678955078125,0.31590843200683594,-0.5380264520645142,-0.24458551406860352
1757862636903663900,2.497663818359375,0.26195359230041504,-0.39879825711250305,-0.18125128746032715
1757862636913649200,2.507649169921875,0.19859404861927032,-0.23841123282909393,-0.1416705846786499
1757862636923635000,2.517635009765625,0.16034945845603943,-0.1329636424779892,-0.13943219184875488
1757862636933620000,2.527619873046875,0.1514233499765396,-0.08701985329389572,-0.16490532457828522
1757862636943605000,2.53760498046875,0.1262335628271103,-0.07719758152961731,-0.17933672666549683
1757862636953590000,2.547590087890625,0.08892934024333954,-0.10141610354185104,-0.173307865858078
1757862636963574800,2.55757470703125,0.07273305952548981,-0.1522901952266693,-0.1563536524772644
1757862636973559800,2.567559814453125,0.07984103262424469,-0.20090913772583008,-0.14555133879184723
1757862636983545000,2.577545166015625,0.0895562469959259,-0.22368821501731873,-0.1426602154970169
1757862636993530000,2.587530029296875,0.0668080598115921,-0.20221488177776337,-0.13926920294761658
1757862637003515000,2.597514892578125,0.02299319952726364,-0.17372146248817444,-0.13903005421161652
1757862637013500000,2.6075,0.004195543937385082,-0.14357846975326538,-0.1331505924463272
1757862637023485000,2.61748486328125,0.013630324974656105,-0.15163026750087738,-0.11321550607681274
1757862637033471000,2.627470947265625,0.03459259867668152,-0.17919744551181793,-0.0905781015753746
1757862637043456000,2.6374560546875,0.08633728325366974,-0.18713153898715973,-0.06271664053201675
1757862637053441000,2.64744091796875,0.15609586238861084,-0.24639992415905,-0.0373511016368866
1757862637063426000,2.657426025390625,0.24514956772327423,-0.3096025884151459,-0.0015454323729500175
1757862637073411000,2.6674111328125,0.3306482136249542,-0.3905184864997864,0.03400057554244995
1757862637083396000,2.67739599609375,0.381621390581131,-0.450429767370224,0.06552787870168686
1757862637093381000,2.687381103515625,0.39223915338516235,-0.4454469680786133,0.08982629328966141
1757862637103366100,2.6973662109375,0.36329030990600586,-0.42365965247154236,0.09313660115003586
1757862637113351200,2.70735107421875,0.317402720451355,-0.3708840608596802,0.09270090609788895
1757862637123336200,2.717336181640625,0.2468835562467575,-0.28247538208961487,0.09118983149528503
1757862637133322000,2.727322021484375,0.1614176481962204,-0.18014979362487793,0.10330615192651749
1757862637143307300,2.737307373046875,0.08861162513494492,-0.10766974091529846,0.12660375237464905
1757862637153292300,2.747292236328125,0.06084444373846054,-0.07530434429645538,0.153242290019989
1757862637163277000,2.757277099609375,0.06473292410373688,-0.11418702453374863,0.1918298900127411
1757862637173262000,2.767261962890625,0.09091685712337494,-0.16515326499938965,0.23037035763263702
1757862637183247000,2.7772470703125,0.12686286866664886,-0.17018531262874603,0.26221296191215515
1757862637193232100,2.787232177734375,0.14532390236854553,-0.11492658406496048,0.2857654392719269
1757862637203217200,2.797217041015625,0.13604411482810974,-0.0536123625934124,0.2989661991596222
1757862637213202000,2.807201904296875,0.11388928443193436,0.025827601552009583,0.3012770116329193
1757862637223187200,2.817187255859375,0.08216650784015656,0.08682171255350113,0.29762741923332214
1757862637233172200,2.827172119140625,0.04808283969759941,0.10162808746099472,0.29769718647003174
1757862637243158000,2.837157958984375,0.0321347676217556,0.06113152951002121,0.30683690309524536
1757862637253143000,2.84714306640625,0.025711221620440483,0.017608555033802986,0.3180922269821167
1757862637263128000,2.857128173828125,0.03256060555577278,0.027718180790543556,0.3405945897102356
1757862637273113000,2.867113037109375,0.07092210650444031,0.03199441730976105,0.3598657548427582
1757862637283097900,2.877097900390625,0.11866193264722824,0.01798406057059765,0.36583152413368225
1757862637293083100,2.887083251953125,0.14644935727119446,0.012658803723752499,0.3686715066432953
1757862637303068200,2.897068115234375,0.14550526440143585,0.003632818115875125,0.3715572953224182
1757862637313053200,2.90705322265625,0.12619441747665405,0.005373193882405758,0.3804996609687805
1757862637323038200,2.9170380859375,0.089502714574337,0.00563950976356864,0.3947505056858063
1757862637333023000,2.92702294921875,0.050215233117341995,0.03122316673398018,0.3994893431663513
1757862637343009000,2.937009033203125,0.023318106308579445,0.07129282504320145,0.3942658305168152
1757862637352994300,2.946994384765625,0.010715761221945286,0.10726600140333176,0.38699671626091003
1757862637362979000,2.95697900390625,-0.0006351639167405665,0.12334457039833069,0.3904985189437866
1757862637372964000,2.966964111328125,-0.021996112540364265,0.07804739475250244,0.4076370298862457
1757862637382949000,2.97694921875,-0.034754782915115356,0.0070366039872169495,0.4240727126598358
1757862637392934100,2.98693408203125,-0.033299632370471954,-0.05050285533070564,0.44126394391059875
1757862637402919200,2.996919189453125,-0.01792254112660885,-0.10361294448375702,0.4593620002269745
1757862637412904000,3.006904052734375,0.00036458674003370106,-0.10150691866874695,0.4768512547016144
1757862637422889000,3.016888916015625,-0.0033276197500526905,-0.05865612253546715,0.48247236013412476
1757862637432874200,3.026874267578125,-0.018866099417209625,-0.0024791366886347532,0.4726303815841675
1757862637442859300,3.036859375,-0.04893665015697479,0.062483884394168854,0.4437156617641449
1757862637452845000,3.046844970703125,-0.0761384442448616,0.10373331606388092,0.40511366724967957
1757862637462830000,3.056830078125,-0.1007058396935463,0.1015993282198906,0.3682864010334015
1757862637472815000,3.066815185546875,-0.10951690375804901,0.07546573132276535,0.34825703501701355
1757862637482800000,3.076800048828125,-0.0873870998620987,0.017711086198687553,0.3524230420589447
1757862637492785000,3.086784912109375,-0.05223657190799713,-0.03790104389190674,0.3833468556404114
1757862637502770200,3.096770263671875,-0.02340598963201046,-0.07625801861286163,0.404069721698761
1757862637512755200,3.106755126953125,0.006858705077320337,-0.04940297082066536,0.41088181734085083
1757862637522740200,3.116740234375,0.025663550943136215,-0.00427117757499218,0.39403945207595825
1757862637532725000,3.12672509765625,0.03893408179283142,0.053831540048122406,0.36531007289886475
1757862637542710000,3.1367099609375,0.0557309053838253,0.06837745755910873,0.3394891321659088
1757862637552696000,3.146696044921875,0.05440731719136238,0.03244342654943466,0.3276178240776062
1757862637562681000,3.15668115234375,0.03050171583890915,-0.06388311088085175,0.32343265414237976
1757862637572666000,3.166666015625,0.0011137339752167463,-0.16094067692756653,0.31567245721817017
1757862637582651100,3.176651123046875,-0.011921906843781471,-0.23625674843788147,0.29835179448127747
1757862637592636200,3.18663623046875,-0.0026495789643377066,-0.21126990020275116,0.2804250121116638
1757862637602621200,3.19662109375,-0.0011124024167656898,-0.11060294508934021,0.25510871410369873
1757862637612606000,3.20660595703125,-0.015929166227579117,0.007473628968000412,0.2210727334022522
1757862637622591000,3.216591064453125,-0.030368026345968246,0.11112279444932938,0.18391630053520203
1757862637632576000,3.226575927734375,-0.029866551980376244,0.18134209513664246,0.16358520090579987
1757862637642561300,3.236561279296875,-0.01552090235054493,0.11986834555864334,0.15854144096374512
1757862637652546000,3.246546142578125,-0.007394533138722181,-0.025240374729037285,0.1734016090631485
1757862637662532000,3.256531982421875,-0.014521418139338493,-0.1518009752035141,0.18860293924808502
1757862637672517000,3.26651708984375,-0.00788402184844017,-0.18481698632240295,0.1910615712404251
1757862637682502100,3.276502197265625,0.028140557929873466,-0.17790821194648743,0.15949271619319916
1757862637692487000,3.28648681640625,0.08337931334972382,-0.18432404100894928,0.11358195543289185
1757862637702472200,3.29647216796875,0.134156733751297,-0.1825663447380066,0.0818578451871872
1757862637712457200,3.306457275390625,0.1538148671388626,-0.12637418508529663,0.08980259299278259
1757862637722442200,3.316442138671875,0.12365695834159851,-0.01962297037243843,0.12710654735565186
1757862637732427000,3.326427001953125,0.06139438599348068,0.09910527616739273,0.15578320622444153
1757862637742412000,3.336412109375,0.00905794370919466,0.09659258276224136,0.15585297346115112
1757862637752397000,3.34639697265625,-0.0021821942646056414,0.024514663964509964,0.1289161741733551
1757862637762383000,3.356383056640625,0.009821738116443157,-0.07628092169761658,0.08337638527154922
1757862637772368100,3.3663681640625,0.028603948652744293,-0.0753493458032608,0.0735730230808258
1757862637782353200,3.376353271484375,0.021042967215180397,0.02479030191898346,0.08420062810182571
1757862637792338200,3.386338134765625,0.008792959153652191,0.24146561324596405,0.12084972113370895
1757862637802323200,3.3963232421875,-0.016631441190838814,0.4398205280303955,0.15942640602588654
1757862637812308000,3.406307861328125,-0.04826366901397705,0.5285293459892273,0.18270562589168549
1757862637822293000,3.41629296875,-0.10952223092317581,0.5610827803611755,0.18259058892726898
1757862637832278000,3.426278076171875,-0.19428692758083344,0.4142363369464874,0.13642574846744537
1757862637842263000,3.436262939453125,-0.14598622918128967,0.34751614928245544,0.0980037972331047
1757862637852248000,3.446248046875,-0.0605994313955307,0.24309253692626953,0.03359151631593704
1757862637862234000,3.456234130859375,-0.0329052209854126,0.07790225744247437,-0.020157465711236
1757862637872219100,3.46621923828125,-0.0941866859793663,-0.06662803143262863,-0.01613769121468067
1757862637882204200,3.4762041015625,-0.2643855810165405,-0.3231967091560364,0.014010357670485973
1757862637892189000,3.48618896484375,-0.48733317852020264,-0.7837134599685669,0.04795181378722191
1757862637902174000,3.496174072265625,-0.5730099678039551,-1.30769944190979,0.08495483547449112
1757862637912159200,3.5061591796875,-0.3759334087371826,-1.6128606796264648,0.10198628902435303
1757862637922144300,3.516144287109375,-0.02719194069504738,-1.4286197423934937,0.061716094613075256
1757862637932129000,3.52612890625,0.19077260792255402,-0.8751187324523926,-0.015918511897325516
1757862637942114000,3.536114013671875,0.23268145322799683,-0.36461684107780457,-0.11784860491752625
1757862637952099000,3.54609912109375,0.19998662173748016,-0.0707964077591896,-0.20542612671852112
1757862637962085000,3.556085205078125,0.10855470597743988,0.03876124322414398,-0.23322632908821106
1757862637972070000,3.56606982421875,0.08329462260007858,-0.02275031991302967,-0.23294642567634583
1757862637982055200,3.57605517578125,0.11620037257671356,-0.14130599796772003,-0.2621975243091583
1757862637992040200,3.586040283203125,0.1497439593076706,-0.14835165441036224,-0.2857896685600281
1757862638002025200,3.596025146484375,0.14401602745056152,-0.07293146848678589,-0.29552406072616577
1757862638012010000,3.606010009765625,0.08051348477602005,0.0036703685764223337,-0.28789010643959045
1757862638021995000,3.6159951171875,0.0036245621740818024,0.06732657551765442,-0.2583245038986206
1757862638031980000,3.62597998046875,-0.044081173837184906,0.08085356652736664,-0.21879199147224426
1757862638041965000,3.635965087890625,-0.08558520674705505,0.2201150506734848,-0.1921960711479187
1757862638051950000,3.6459501953125,-0.09143031388521194,0.03244209662079811,-0.28872233629226685
1757862638061935900,3.655935791015625,-0.07819866389036179,-0.13175110518932343,-0.37524738907814026
1757862638071921000,3.6659208984375,-0.10870490968227386,-0.16207119822502136,-0.39503732323646545
1757862638081906200,3.67590625,-0.09840353578329086,-0.25169482827186584,-0.41717246174812317
1757862638091891000,3.685890869140625,-0.014141651801764965,-0.3759765625,-0.4287723898887634
1757862638101876000,3.6958759765625,0.10863912850618362,-0.4735102951526642,-0.41529226303100586
1757862638111861000,3.705861083984375,0.20423409342765808,-0.5012388825416565,-0.391143262386322
1757862638121846000,3.715845947265625,0.21263264119625092,-0.5051236152648926,-0.39973700046539307
1757862638131831000,3.7258310546875,0.15730945765972137,-0.446625679731369,-0.4324353039264679
1757862638141815800,3.73581591796875,0.028861209750175476,-0.3009185492992401,-0.48110058903694153
1757862638151800800,3.74580078125,-0.13697142899036407,-0.1802573949098587,-0.5251087546348572
1757862638161786000,3.7557861328125,-0.24799461662769318,-0.14593589305877686,-0.5533217787742615
1757862638171772000,3.76577197265625,-0.25075313448905945,-0.21310801804065704,-0.5554081201553345
1757862638181757000,3.7757568359375,-0.10115298628807068,-0.6891336441040039,-0.5750329494476318
1757862638191742000,3.785741943359375,0.014762700535356998,-0.8120036721229553,-0.4710918962955475
1757862638201727000,3.79572705078125,-0.04085395485162735,-0.5540482997894287,-0.38231220841407776
1757862638211712000,3.8057119140625,0.05944574996829033,-0.8626423478126526,-0.49574318528175354
1757862638221696800,3.81569677734375,0.1254471391439438,-0.646837592124939,-0.5410336852073669
1757862638231682000,3.82568212890625,0.1093941330909729,-0.4746631979942322,-0.5580379962921143
1757862638241667000,3.8356669921875,0.10035429894924164,-0.3385136127471924,-0.6465893983840942
1757862638251652000,3.845652099609375,0.11317981779575348,-0.18301482498645782,-0.7814766764640808
1757862638261638000,3.855637939453125,0.05211007222533226,-0.06516009569168091,-0.9092828035354614
1757862638271623000,3.865622802734375,-0.09011657536029816,0.10000409185886383,-0.9644486308097839
1757862638281608000,3.87560791015625,-0.17515477538108826,0.2926100194454193,-0.958318829536438
1757862638291593000,3.885593017578125,-0.21468940377235413,0.3838014602661133,-0.9063687920570374
1757862638301578000,3.895577880859375,-0.2198532670736313,0.3953872621059418,-0.8445783853530884
1757862638311563000,3.90556298828125,-0.18839681148529053,0.4630099833011627,-0.8273019194602966
1757862638321548000,3.915548095703125,-0.15170004963874817,0.5702813267707825,-0.8725048303604126
1757862638331533000,3.925532958984375,-0.12967810034751892,0.6333473920822144,-0.9269790053367615
1757862638341517800,3.935517822265625,-0.1167583093047142,0.686211109161377,-0.9580727219581604
1757862638351502800,3.9455029296875,-0.134528249502182,0.7633661031723022,-0.9642001390457153
1757862638361488000,3.95548779296875,-0.18863914906978607,0.7828958630561829,-0.9511365294456482
1757862638371474000,3.965473876953125,-0.27920395135879517,0.7796313762664795,-0.9179945588111877
1757862638381459000,3.975458984375,-0.4061584174633026,0.8196746110916138,-0.8334418535232544
1757862638391444000,3.98544384765625,-0.5685390830039978,0.8709940314292908,-0.6831104159355164
1757862638401429000,3.995428955078125,-0.734463095664978,1.017886757850647,-0.44864916801452637
1757862638411414000,4.0054140625,-0.8591898083686829,1.180242896080017,-0.14232172071933746
1757862638421398800,4.015398681640625,-0.9073306918144226,1.2364585399627686,0.1562362015247345
1757862638431384000,4.025384033203125,-0.8625240921974182,1.162672758102417,0.35352665185928345
1757862638441369000,4.035369140625,-0.7736823558807373,0.9726870656013489,0.37557336688041687
1757862638451354000,4.04535400390625,-0.6161516308784485,0.6294130682945251,0.23978063464164734
1757862638461339000,4.0553388671875,-0.38454049825668335,0.2947557270526886,0.05678631737828255
1757862638471325000,4.065324951171875,-0.12174507975578308,0.0383889339864254,-0.10115431249141693
1757862638481310000,4.07531005859375,0.115717813372612,-0.14087003469467163,-0.1901875138282776
1757862638491295000,4.085294921875,0.31628847122192383,-0.14923661947250366,-0.21974487602710724
1757862638501280000,4.095280029296875,0.46628859639167786,-0.1157367154955864,-0.25378674268722534
1757862638511265000,4.10526513671875,0.5434747338294983,-0.09729619324207306,-0.2871103286743164
1757862638521250000,4.11525,0.540650486946106,-0.11985476315021515,-0.3045085072517395
1757862638531235000,4.125235107421875,0.456595778465271,-0.15492087602615356,-0.33136141300201416
1757862638541219800,4.1352197265625,0.29887697100639343,-0.16013213992118835,-0.37685540318489075
1757862638551204900,4.145204833984375,0.06018264591693878,-0.08604326844215393,-0.4346819519996643
1757862638561191200,4.155191162109375,-0.24140064418315887,0.15487612783908844,-0.5014926791191101
1757862638571176000,4.165176025390625,-0.4706287682056427,0.47386637330055237,-0.5506359934806824
1757862638581161000,4.175160888671875,-0.6034557819366455,0.702418863773346,-0.5377188324928284
1757862638591146000,4.18514599609375,-0.6508922576904297,0.7966329455375671,-0.44551753997802734
1757862638601131000,4.195131103515625,-0.6378425359725952,0.7896389961242676,-0.2959642708301544
1757862638611116000,4.205115966796875,-0.5949568152427673,0.7716376185417175,-0.13774614036083221
1757862638621100800,4.215100830078125,-0.518621027469635,0.7649381756782532,-0.006388124544173479
1757862638631085800,4.2250859375,-0.4209733307361603,0.7218008041381836,0.05861217901110649
1757862638641071000,4.235071044921875,-0.2580685615539551,0.514880895614624,0.00806458480656147
1757862638651056000,4.24505615234375,-0.024262728169560432,0.3109474778175354,-0.056408945471048355
1757862638661042000,4.2550419921875,0.15865355730056763,0.1902647465467453,-0.11700890958309174
1757862638671027000,4.26502685546875,0.22518518567085266,0.17219972610473633,-0.1424066722393036
1757862638681012000,4.275011962890625,0.24108904600143433,0.249012753367424,-0.11612340807914734
1757862638690997000,4.2849970703125,0.25961533188819885,0.2813624441623688,-0.09176134318113327
1757862638700981800,4.294981689453125,0.2716940939426422,0.24234898388385773,-0.07723087072372437
1757862638710967000,4.304967041015625,0.23647485673427582,0.1818811148405075,-0.06889065355062485
1757862638720952000,4.3149521484375,0.1534593254327774,0.1551075577735901,-0.06458964198827744
1757862638730937000,4.32493701171875,0.059365589171648026,0.23268677294254303,-0.05329437926411629
1757862638740921900,4.334921875,-0.012133361771702766,0.3941284120082855,-0.02203206531703472
1757862638750907000,4.344906982421875,-0.05236014351248741,0.6082444190979004,0.007998804561793804
1757862638760893000,4.354892822265625,-0.05669710040092468,0.7991397976875305,0.02292715385556221
1757862638770878000,4.3648779296875,-0.048470064997673035,0.8852949142456055,0.04346731677651405
1757862638780863000,4.374863037109375,-0.04616349935531616,0.8367119431495667,0.08432180434465408
1757862638790848000,4.384847900390625,-0.06317630410194397,0.7315080165863037,0.13282541930675507
1757862638800833000,4.3948330078125,-0.0986405536532402,0.6567056775093079,0.18713127076625824
1757862638810818000,4.404818115234375,-0.13917332887649536,0.6513798832893372,0.24161529541015625
1757862638820802800,4.414802734375,-0.13633494079113007,0.6248215436935425,0.2768757939338684
1757862638830787800,4.424787841796875,-0.0686325877904892,0.6354917287826538,0.28243887424468994
1757862638840772900,4.43477294921875,0.008390288800001144,0.6406729221343994,0.271666944026947
1757862638850758100,4.444758056640625,0.057735200971364975,0.639883279800415,0.28376805782318115
1757862638860744000,4.454743896484375,0.09599603712558746,0.6331798434257507,0.31425565481185913
1757862638870729000,4.46472900390625,0.1313585489988327,0.5906486511230469,0.3521348834037781
1757862638880714000,4.4747138671875,0.16932883858680725,0.4731137454509735,0.38527604937553406
1757862638890699000,4.484698974609375,0.22873997688293457,0.35316577553749084,0.4200518727302551
1757862638900683800,4.494683837890625,0.2746371626853943,0.3132029175758362,0.45834386348724365
1757862638910668800,4.504668701171875,0.2948438823223114,0.3613845705986023,0.4931449890136719
1757862638920654000,4.514654052734375,0.29544976353645325,0.491787850856781,0.5091330409049988
1757862638930639000,4.52463916015625,0.2663549780845642,0.640701413154602,0.5046373605728149
1757862638940624000,4.534623779296875,0.22709733247756958,0.7329086065292358,0.490591824054718
1757862638950609000,4.54460888671875,0.18929003179073334,0.7528705596923828,0.47641289234161377
1757862638960595000,4.554594970703125,0.1370430737733841,0.7060490250587463,0.46662044525146484
1757862638970580000,4.564580078125,0.049617353826761246,0.6191479563713074,0.46204325556755066
1757862638980565000,4.57456494140625,-0.027109649032354355,0.5753330588340759,0.43666279315948486
1757862638990550000,4.584550048828125,-0.05956479161977768,0.5351206660270691,0.4234037399291992
1757862639000535000,4.59453515625,-0.04801999032497406,0.48967117071151733,0.4145849347114563
1757862639010520000,4.60452001953125,-0.006922887172549963,0.42717263102531433,0.38934561610221863
1757862639020504800,4.6145048828125,0.02947826310992241,0.31817159056663513,0.34427616000175476
1757862639030489900,4.62448974609375,0.056003082543611526,0.2528325319290161,0.28372305631637573
1757862639040475000,4.634474853515625,0.07107976824045181,0.18623432517051697,0.20481839776039124
1757862639050460000,4.6444599609375,0.057192716747522354,0.08829737454652786,0.1611470729112625
1757862639060446000,4.654446044921875,0.02636023424565792,0.001204814063385129,0.16265122592449188
1757862639070431200,4.66443115234375,-0.0016026903176680207,-0.05752454698085785,0.20909862220287323
1757862639080416300,4.674416259765625,-0.036735910922288895,0.005853894166648388,0.282500684261322
1757862639090401300,4.6844013671875,-0.08642170578241348,0.17847201228141785,0.35092660784721375
1757862639100386000,4.694385986328125,-0.13023149967193604,0.37154826521873474,0.3882468044757843
1757862639110371000,4.70437109375,-0.15427559614181519,0.5299323201179504,0.39436569809913635
1757862639120356400,4.7143564453125,-0.15911827981472015,0.6108604669570923,0.36734285950660706
1757862639130341400,4.72434130859375,-0.17300187051296234,0.5348333120346069,0.307049423456192
1757862639140326100,4.734326171875,-0.2004619985818863,0.4159644544124603,0.20899343490600586
1757862639150312200,4.744312255859375,-0.2818889319896698,0.4045751690864563,0.07865086942911148
1757862639160297200,4.754297119140625,-0.4319831132888794,0.4890165627002716,-0.04129550978541374
1757862639170282200,4.7642822265625,-0.6026325821876526,0.5665198564529419,-0.08982469141483307
1757862639180267300,4.774267333984375,-0.7285005450248718,0.5175246596336365,-0.11357875913381577
1757862639190252300,4.784252197265625,-0.7315016388893127,0.29318127036094666,-0.15090163052082062
1757862639200237300,4.7942373046875,-0.5968902707099915,-0.0011560781858861446,-0.21048985421657562
1757862639210222300,4.804222412109375,-0.37117114663124084,-0.2823731005191803,-0.28404104709625244
1757862639220207000,4.81420703125,-0.09711562842130661,-0.4801173508167267,-0.35113513469696045
1757862639230192000,4.824192138671875,0.14398327469825745,-0.5357076525688171,-0.38123655319213867
1757862639240177200,4.83417724609375,0.2779588997364044,-0.4644947052001953,-0.3751240670681
1757862639250163200,4.8441630859375,0.3364259600639343,-0.30926570296287537,-0.36370179057121277
1757862639260148200,4.854148193359375,0.36177605390548706,-0.14479899406433105,-0.34744372963905334
1757862639270133200,4.86413330078125,0.36421045660972595,-0.05481637641787529,-0.31981927156448364
1757862639280118300,4.8741181640625,0.34013015031814575,-0.0068025123327970505,-0.28374916315078735
1757862639290103300,4.884103271484375,0.2975826859474182,-0.017287377268075943,-0.2446472942829132
1757862639300088000,4.894088134765625,0.24260997772216797,-0.10487182438373566,-0.21128055453300476
1757862639310073000,4.904072998046875,0.16607871651649475,-0.24952727556228638,-0.17664800584316254
1757862639320058000,4.91405810546875,0.0976669043302536,-0.39602136611938477,-0.1365959346294403
1757862639330043400,4.92404345703125,0.0786663144826889,-0.44185012578964233,-0.10289415717124939
1757862639340028200,4.934028076171875,0.09988318383693695,-0.42221808433532715,-0.09486978501081467
1757862639350014200,4.94401416015625,0.14226074516773224,-0.40276822447776794,-0.10366035252809525
1757862639359999200,4.953999267578125,0.19518068432807922,-0.345979779958725,-0.11019361764192581
1757862639369984300,4.963984375,0.24479323625564575,-0.2976931929588318,-0.11080081760883331
1757862639379969000,4.973968994140625,0.2537369430065155,-0.26432326436042786,-0.1009492501616478
1757862639389954300,4.983954345703125,0.19484378397464752,-0.23908741772174835,-0.08777299523353577
1757862639399939300,4.993939208984375,0.09287135303020477,-0.30954933166503906,-0.0861964002251625
1757862639409924400,5.00392431640625,0.06494490802288055,-0.5178990960121155,-0.0971481204032898
1757862639419909000,5.0139091796875,0.07765218615531921,-0.7473573088645935,-0.11816685646772385
1757862639429894100,5.02389404296875,0.08156277239322662,-0.8487063050270081,-0.1383991539478302
1757862639439879200,5.033879150390625,0.06090729311108589,-0.7759026288986206,-0.1505114734172821
1757862639449865200,5.043865234375,-0.013651896268129349,-0.6205008029937744,-0.15747271478176117
1757862639459850200,5.053850341796875,-0.09416298568248749,-0.4772392511367798,-0.15721306204795837
1757862639469835300,5.063835205078125,-0.1370270997285843,-0.3872862160205841,-0.14837536215782166
1757862639479820300,5.0738203125,-0.16852642595767975,-0.16900207102298737,-0.09849993884563446
1757862639489805300,5.083805419921875,-0.2547156512737274,-0.17037919163703918,-0.1450333595275879
1757862639499790000,5.0937900390625,-0.2669225037097931,-0.26874250173568726,-0.19841641187667847
1757862639509775000,5.103775146484375,-0.23876917362213135,-0.24402864277362823,-0.21384277939796448
1757862639519760100,5.113760009765625,-0.19968461990356445,-0.18951347470283508,-0.1966550052165985
1757862639529745200,5.1237451171875,-0.12713158130645752,-0.22580170631408691,-0.17103245854377747
1757862639539730400,5.13373046875,0.004706870764493942,-0.4039408266544342,-0.16625581681728363
1757862639549716200,5.14371630859375,0.10873846709728241,-0.5692786574363708,-0.19226931035518646
1757862639559701200,5.153701171875,0.15427079796791077,-0.6916857957839966,-0.2242347002029419
1757862639569686300,5.163686279296875,0.16124242544174194,-0.7625637054443359,-0.25117844343185425
1757862639579671000,5.173671142578125,0.13331811130046844,-0.7311785817146301,-0.25087669491767883
1757862639589656000,5.183656005859375,0.07822743058204651,-0.6229115128517151,-0.23258823156356812
1757862639599641300,5.193641357421875,0.017369935289025307,-0.5398565530776978,-0.21893207728862762
1757862639609626400,5.20362646484375,-0.022904250770807266,-0.5190626382827759,-0.22746804356575012
1757862639619611100,5.213611083984375,-0.04117939621210098,-0.5842738151550293,-0.24532373249530792
1757862639629596200,5.22359619140625,-0.020711936056613922,-0.6836395859718323,-0.25233718752861023
1757862639639581200,5.233581298828125,0.01750096306204796,-0.7096216082572937,-0.2365451604127884
1757862639649567200,5.243567138671875,0.031021831557154655,-0.675960898399353,-0.21922209858894348
1757862639659552300,5.25355224609375,0.005739111918956041,-0.5971837639808655,-0.19205066561698914
1757862639669537300,5.263537353515625,-0.03166897967457771,-0.493058979511261,-0.16557857394218445
1757862639679522300,5.273522216796875,-0.07112371176481247,-0.44100189208984375,-0.14495745301246643
1757862639689507300,5.28350732421875,-0.09091286361217499,-0.42304420471191406,-0.13015852868556976
1757862639699492000,5.2934921875,-0.07798534631729126,-0.4784214496612549,-0.1236734688282013
1757862639709477000,5.30347705078125,-0.0304548442363739,-0.5952063798904419,-0.12169447541236877
1757862639719462100,5.313462158203125,0.019290341064333916,-0.6657106280326843,-0.11813835799694061
1757862639729447200,5.323447265625,0.06789889186620712,-0.6670648455619812,-0.09790658950805664
1757862639739433200,5.33343310546875,0.049677275121212006,-0.6267238259315491,-0.08388664573431015
1757862639749418200,5.343418212890625,0.023620374500751495,-0.514956533908844,-0.07170134782791138
1757862639759403300,5.3534033203125,-0.01702878437936306,-0.45118609070777893,-0.07294850796461105
1757862639769388300,5.36338818359375,-0.07541512697935104,-0.46476927399635315,-0.0639781802892685
1757862639779373000,5.373373046875,-0.09696409851312637,-0.49009275436401367,-0.04584205523133278
1757862639789358000,5.383358154296875,-0.08213694393634796,-0.5371635556221008,-0.032760877162218094
1757862639799343000,5.393343017578125,-0.05630321800708771,-0.5722051858901978,-0.02883111499249935
1757862639809328400,5.403328369140625,-0.04483378306031227,-0.5576795339584351,-0.022175610065460205
1757862639819313400,5.4133134765625,-0.06606210768222809,-0.48902854323387146,-0.010654774494469166
1757862639829298200,5.423298095703125,-0.11882784962654114,-0.3955950140953064,-0.009343167766928673
1757862639839284200,5.4332841796875,-0.1701269894838333,-0.3487164378166199,-0.0143520412966609
1757862639849269200,5.443269287109375,-0.19765634834766388,-0.3629441261291504,-0.019896741956472397
1757862639859254000,5.45325390625,-0.2001591920852661,-0.36958709359169006,-0.01344550121575594
1757862639869239300,5.4632392578125,-0.18189869821071625,-0.3342607915401459,0.011012704111635685
1757862639879224300,5.473224365234375,-0.1591949760913849,-0.2694072425365448,0.031141674146056175
1757862639889209300,5.483209228515625,-0.14365516602993011,-0.20503570139408112,0.04623780399560928
1757862639899194400,5.4931943359375,-0.13559217751026154,-0.2147810161113739,0.045994389802217484
1757862639909179100,5.50317919921875,-0.14441044628620148,-0.23815025389194489,0.04056873172521591
1757862639919164200,5.5131640625,-0.15994572639465332,-0.23154640197753906,0.03472655639052391
1757862639929149200,5.523149169921875,-0.1727246344089508,-0.22473084926605225,0.027220169082283974
1757862639939135200,5.53313525390625,-0.14269377291202545,-0.20966801047325134,0.017446368932724
1757862639949120300,5.543120361328125,-0.1191069483757019,-0.18119774758815765,0.0216568261384964
1757862639959105300,5.553105224609375,-0.11017284542322159,-0.1183178573846817,0.02340918593108654
1757862639969090300,5.56309033203125,-0.09811298549175262,-0.06268974393606186,0.014523815363645554
1757862639979075000,5.573074951171875,-0.09435925632715225,-0.04477972164750099,0.0034104441292583942
1757862639989060000,5.58306005859375,-0.11391352117061615,-0.07272480428218842,-0.016619456931948662
1757862639999045000,5.593045166015625,-0.14212065935134888,-0.09550894796848297,-0.030370155349373817
1757862640009030100,5.603030029296875,-0.12452808022499084,-0.14668585360050201,-0.03825471177697182
1757862640019015400,5.613015380859375,-0.05764704942703247,-0.19675754010677338,-0.03368312865495682
1757862640029001200,5.623001220703125,0.008578840643167496,-0.19694289565086365,-0.020311929285526276
1757862640038986200,5.632986328125,0.027452928945422173,-0.15721039474010468,-0.010515491478145123
1757862640048971300,5.64297119140625,0.02347283624112606,-0.07269950211048126,-0.013144830241799355
1757862640058956000,5.6529560546875,0.004906075540930033,0.008203867822885513,-0.028777319937944412
1757862640068941000,5.662941162109375,-0.02021925151348114,0.0599789135158062,-0.04135409742593765
1757862640078926000,5.672926025390625,-0.04363403096795082,0.08375881612300873,-0.049606967717409134
1757862640088911000,5.6829111328125,-0.07565401494503021,0.08772505819797516,-0.045149900019168854
1757862640098896100,5.692896240234375,-0.0975734293460846,0.03725043311715126,-0.044737644493579865
1757862640108881000,5.702880859375,-0.08320754021406174,0.008478705771267414,-0.045709166675806046
1757862640118866200,5.7128662109375,-0.027574103325605392,0.023394538089632988,-0.04833877086639404
1757862640128852200,5.722852294921875,0.00290444353595376,0.0689508393406868,-0.046369895339012146
1757862640138837000,5.7328369140625,-0.0029885992407798767,0.1115662083029747,-0.045277465134859085
1757862640148822000,5.742822021484375,-0.021813951432704926,0.15895023941993713,-0.04156209155917168
1757862640158807000,5.75280712890625,-0.03502456098794937,0.19942788779735565,-0.030497455969452858
1757862640168792000,5.7627919921875,-0.0464165024459362,0.18139535188674927,-0.014677213504910469
1757862640178777000,5.772777099609375,-0.030105970799922943,0.1461915671825409,0.0011954930378124118
1757862640188762000,5.78276220703125,0.023493874818086624,0.14064259827136993,0.010567689314484596
1757862640198747100,5.7927470703125,0.05083921179175377,0.11461659520864487,0.0030298782512545586
1757862640208732200,5.802732177734375,0.044802092015743256,0.08666565269231796,-0.016107063740491867
1757862640218717200,5.81271728515625,0.017131581902503967,0.0740680992603302,-0.03193343058228493
1757862640228703000,5.822702880859375,-0.01763997972011566,0.09079328924417496,-0.03642059117555618
1757862640238688000,5.83268798828125,-0.06255898624658585,0.10196445137262344,-0.029037777334451675
1757862640248673300,5.84267333984375,-0.09197386354207993,0.12684983015060425,-0.01798911951482296
1757862640258658000,5.852657958984375,-0.10291626304388046,0.1632927805185318,-0.0054458980448544025
1757862640268643000,5.86264306640625,-0.09154509752988815,0.17689675092697144,-0.007428621407598257
1757862640278628000,5.872628173828125,-0.05958237126469612,0.18355996906757355,-0.006523945834487677
1757862640288613000,5.882613037109375,-0.022005965933203697,0.16021417081356049,-0.0065074339509010315
1757862640298598100,5.89259814453125,0.003263703780248761,0.12904080748558044,-0.008174573071300983
1757862640308583000,5.9025830078125,0.008657137863337994,0.1060585230588913,-0.01552489772439003
1757862640318569200,5.9125693359375,-0.013745373114943504,0.09365325421094894,-0.018213357776403427
1757862640328554200,5.92255419921875,-0.044021520763635635,0.10105790942907333,-0.014064420014619827
1757862640338539000,5.9325390625,-0.05889314413070679,0.07316529005765915,-0.008270712569355965
1757862640348524000,5.94252392578125,-0.032336100935935974,0.021735122427344322,-0.008264321833848953
1757862640358509000,5.952509033203125,-0.008171110413968563,0.011480621062219143,0.001258876291103661
1757862640368494000,5.962494140625,0.006786266807466745,0.040218524634838104,0.009345831349492073
1757862640378479000,5.97247900390625,0.02142912521958351,0.07445479184389114,0.006443251855671406
1757862640388464000,5.982464111328125,0.021882396191358566,0.09213285893201828,-0.0023758059833198786
1757862640398449200,5.99244921875,-0.004345479886978865,0.11205623298883438,-0.0075513930059969425
1757862640408434200,6.00243408203125,-0.04126141965389252,0.12178449332714081,-0.002175003755837679
1757862640418420000,6.012419921875,-0.07426410913467407,0.09611907601356506,-0.0046173888258636
1757862640428405000,6.022405029296875,-0.09200821816921234,0.08241524547338486,-0.002560629276558757
1757862640438390000,6.03239013671875,-0.0837971642613411,0.06379175931215286,-0.007367901504039764
1757862640448375000,6.042375,-0.058635082095861435,0.03344504162669182,-0.021146563813090324
1757862640458360300,6.0523603515625,-0.029259618371725082,0.026222016662359238,-0.01991991139948368
1757862640468345000,6.062344970703125,-0.013873470947146416,0.049360357224941254,-0.009381251409649849
1757862640478330000,6.072330078125,-0.014599715359508991,0.06059916317462921,-0.005991313606500626
1757862640488315100,6.082315185546875,-0.0327153354883194,0.0993042141199112,-0.005539374891668558
1757862640498300200,6.092300048828125,-0.06668315827846527,0.13196681439876556,-0.017852233722805977
1757862640508285000,6.102284912109375,-0.08875303715467453,0.1331479400396347,-0.02893630973994732
1757862640518271200,6.112271240234375,-0.07973451167345047,0.12581917643547058,-0.030188528820872307
1757862640528256300,6.12225634765625,-0.05703745409846306,0.11598492413759232,-0.03139014542102814
1757862640538241000,6.132240966796875,-0.02761511690914631,0.06284500658512115,-0.03519180789589882
1757862640548226000,6.14222607421875,0.004382763989269733,0.00723447697237134,-0.04375813156366348
1757862640558211000,6.152211181640625,0.025367939844727516,-0.04591023549437523,-0.05284323915839195
1757862640568196000,6.162196044921875,0.016515061259269714,-0.10970626026391983,-0.05434659495949745
1757862640578181000,6.17218115234375,0.0006191849242895842,-0.14685335755348206,-0.05368559807538986
1757862640588166000,6.182165771484375,-0.032398685812950134,-0.06815189123153687,-0.027649205178022385
1757862640598151200,6.192151123046875,-0.06414889544248581,0.02997734025120735,-0.009446498937904835
1757862640608137200,6.20213720703125,-0.07599835842847824,0.08043678849935532,-0.019363844767212868
1757862640618122000,6.2121220703125,-0.06366872787475586,0.09275603294372559,-0.03281041234731674
1757862640628107000,6.22210693359375,-0.03910026326775551,0.0941544622182846,-0.030240194872021675
1757862640638092000,6.232092041015625,-0.032288964837789536,0.08823665231466293,-0.0256960429251194
1757862640648077000,6.2420771484375,-0.0421847365796566,0.05997864902019501,-0.030041787773370743
1757862640658062000,6.25206201171875,-0.05735570192337036,0.01619068719446659,-0.03458194434642792
1757862640668047000,6.262047119140625,-0.08189646154642105,0.005071191117167473,-0.03792288154363632
1757862640678032100,6.2720322265625,-0.10214554518461227,0.009649431332945824,-0.04195623844861984
1757862640688017200,6.28201708984375,-0.09920807927846909,0.030946996062994003,-0.03343651816248894
1757862640698002200,6.292002197265625,-0.06066174805164337,0.06240585446357727,-0.019706061109900475
1757862640707988000,6.301988037109375,-0.006225138902664185,0.04183506593108177,-0.011449994519352913
1757862640717973000,6.311972900390625,0.03748425841331482,-0.011726430617272854,-0.015634354203939438
1757862640727958300,6.321958251953125,0.05522490665316582,-0.016349146142601967,-0.014592790976166725
1757862640737943300,6.331943359375,0.04057352617383003,-0.017059409990906715,-0.019239474087953568
1757862640747928000,6.341927978515625,0.026377279311418533,-0.023985760286450386,-0.025420937687158585
1757862640757913000,6.3519130859375,0.017551830038428307,-0.028548553586006165,-0.029578665271401405
1757862640767898000,6.361898193359375,0.015171496197581291,-0.018159562721848488,-0.024202542379498482
1757862640777883100,6.371883056640625,0.014224209822714329,0.0009800433181226254,-0.022311164066195488
1757862640787868000,6.381867919921875,0.004966262727975845,0.04392857477068901,-0.017973408102989197
1757862640797853000,6.39185302734375,-0.008984440006315708,0.037952177226543427,-0.022252840921282768
1757862640807839200,6.401839111328125,-0.010792993009090424,0.02220810018479824,-0.020368121564388275
1757862640817824000,6.411823974609375,-0.0027891285717487335,0.0038195056840777397,-0.015502527356147766
1757862640827809000,6.42180908203125,0.024880316108465195,-0.04845808073878288,-0.015176289714872837
1757862640837794000,6.4317939453125,0.04717336967587471,-0.02575409971177578,-0.0020269318483769894
1757862640847779000,6.441779052734375,0.03959614410996437,0.019989952445030212,0.01149739883840084
1757862640857764000,6.45176416015625,0.0348205640912056,0.041192974895238876,0.001672198879532516
1757862640867748900,6.461748779296875,0.02521693892776966,0.04951775074005127,-0.007868842221796513
1757862640877734100,6.471734130859375,0.0006564692012034357,0.02947693131864071,-0.010595918633043766
1757862640887719200,6.48171923828125,-0.02575809322297573,0.048832252621650696,-0.010500311851501465
1757862640897705000,6.491705078125,-0.04038763791322708,0.06496009230613708,-0.012117383070290089
1757862640907690000,6.50168994140625,-0.038363102823495865,0.04463351517915726,-0.016766196116805077
1757862640917675000,6.511675048828125,-0.016325976699590683,0.008132228627800941,-0.010460097342729568
1757862640927660000,6.521659912109375,0.002740126335993409,0.016532903537154198,-0.0038490667939186096
1757862640937645300,6.531645263671875,0.010210826061666012,0.04897979274392128,-0.004560397006571293
1757862640947630000,6.541630126953125,0.0003653856983873993,0.06848851591348648,-0.009108277037739754
1757862640957615000,6.551614990234375,-0.018765432760119438,0.06198960170149803,-0.014827148988842964
1757862640967600000,6.56160009765625,-0.03245088458061218,0.013219399377703667,-0.020127905532717705
1757862640977585200,6.571585205078125,-0.041314415633678436,0.015478558838367462,0.00010599380766507238
1757862640987570000,6.58156982421875,-0.041318945586681366,-0.007876564748585224,0.01179221086204052
1757862640997556200,6.59155615234375,-0.019520703703165054,-0.02852511778473854,0.014428207650780678
1757862641007541200,6.601541259765625,0.017640246078372,-0.06449217349290848,0.009431584738194942
1757862641017526300,6.6115263671875,0.04461061209440231,-0.05841483920812607,0.011128551326692104
1757862641027511000,6.621510986328125,0.059491291642189026,-0.027039872482419014,0.009065932594239712
1757862641037496000,6.63149609375,0.05275722220540047,-0.01489479374140501,0.0030692932195961475
1757862641047481000,6.641481201171875,0.018318552523851395,0.0023217438720166683,-0.0028162929229438305
1757862641057466000,6.651466064453125,-0.024602815508842468,0.019423766061663628,-0.007779359817504883
1757862641067452000,6.661451904296875,-0.06403703987598419,0.02773362584412098,-0.012485964223742485
1757862641077437000,6.67143701171875,-0.07619703561067581,0.021816348657011986,-0.010353039018809795
1757862641087422000,6.681421875,-0.049917757511138916,0.03404904529452324,-0.004403536673635244
1757862641097408000,6.691407958984375,-0.01432168111205101,0.021087441593408585,-0.0028157602064311504
1757862641107393000,6.70139306640625,0.022060029208660126,0.0028581044171005487,-0.002397643867880106
1757862641117378000,6.7113779296875,0.04038497433066368,-0.0018775284988805652,-0.006914098747074604
1757862641127363000,6.721363037109375,0.02630643919110298,-0.021403292194008827,-0.00914369709789753
1757862641137347800,6.731347900390625,0.0046360306441783905,-0.036563605070114136,-0.014652445912361145
1757862641147332900,6.741332763671875,-0.018324146047234535,-0.024325579404830933,-0.018606174737215042
1757862641157318000,6.75131787109375,-0.039331428706645966,-0.009222260676324368,-0.014423946850001812
1757862641167303200,6.76130322265625,-0.04440022259950638,0.014764831401407719,-0.010330934077501297
1757862641177288000,6.771287841796875,-0.03136032074689865,0.020987574011087418,-0.008317318744957447
1757862641187274000,6.78127392578125,-0.0017201356822624803,0.014078800566494465,-0.013230318203568459
1757862641197259000,6.791259033203125,0.024660872295498848,-0.009491506032645702,-0.017662616446614265
1757862641207244000,6.801244140625,0.023577231913805008,-0.0017893778858706355,-0.011840680614113808
1757862641217228800,6.811228759765625,-0.004179831128567457,0.011998872272670269,-0.015657523646950722
1757862641227213800,6.8212138671875,-0.033737458288669586,0.00669278996065259,-0.02185123600065708
1757862641237199000,6.83119921875,-0.0346360057592392,0.022246716544032097,-0.019085276871919632
1757862641247184100,6.84118408203125,-0.01561091747134924,0.017896708101034164,-0.011064102873206139
1757862641257169000,6.8511689453125,0.010663829743862152,-0.008392419666051865,-0.005961752496659756
1757862641267154000,6.86115380859375,0.03181891515851021,-0.016819726675748825,-0.002566754585132003
1757862641277139000,6.871138916015625,0.03340349718928337,-0.009077117778360844,0.00267727579921484
1757862641287125000,6.881125,0.022970829159021378,0.003922303672879934,-0.000675377668812871
1757862641297110000,6.891110107421875,0.004078098572790623,0.027570907026529312,-0.005617938470095396
1757862641307095000,6.901094970703125,-0.01720748282968998,0.0364067442715168,-0.015302789397537708
1757862641317080000,6.911080078125,-0.03110545501112938,0.0333571583032608,-0.025116005912423134
1757862641327065000,6.921065185546875,-0.03160000219941139,-0.008068312890827656,-0.022852318361401558
1757862641337049900,6.9310498046875,-0.01314909104257822,-0.041193243116140366,-0.01221565343439579
1757862641347035000,6.941034912109375,0.019400063902139664,-0.05909714102745056,-0.0011438276851549745
1757862641357020000,6.95102001953125,0.036605414003133774,-0.05012308806180954,0.0051598744466900826
1757862641367005000,6.9610048828125,0.029916886240243912,-0.03032994270324707,-0.0002247707889182493
1757862641376990000,6.970989990234375,0.017485249787569046,-0.010348777286708355,-0.006661098450422287
1757862641386976000,6.98097607421875,-0.0010418286547064781,0.0024956483393907547,-0.007706655655056238
1757862641396961000,6.9909609375,-0.009817477315664291,0.006046440917998552,-0.011408449150621891
1757862641406946000,7.000946044921875,-0.006323143374174833,-0.01050590444356203,-0.012848952785134315
1757862641416930800,7.010930908203125,0.006001699715852737,-0.030674556270241737,-0.013563212938606739
1757862641426915800,7.020915771484375,0.028970930725336075,-0.028871329501271248,-0.004064250271767378
1757862641436900900,7.03090087890625,0.03136591240763664,-0.022644858807325363,0.0022716764360666275
1757862641446886100,7.04088623046875,0.021401695907115936,-0.015241537243127823,0.007673099637031555
1757862641456871000,7.050870849609375,0.0062706791795790195,-0.0049161952920258045,0.001469532260671258
1757862641466856000,7.06085595703125,-0.00887977797538042,-0.0019920445047318935,-0.0023089605383574963
1757862641476842000,7.070842041015625,-0.016567524522542953,0.00989444274455309,-0.0012974920682609081
1757862641486827000,7.080826904296875,-0.015312111005187035,0.009272860363125801,0.0009110674145631492
1757862641496811800,7.090811767578125,-0.0044352286495268345,-0.0007696535321883857,0.0032322786282747984
1757862641506797000,7.100797119140625,0.014125672169029713,-0.006208361126482487,0.0022631543688476086
1757862641516782000,7.110781982421875,0.01888820342719555,-0.020374514162540436,-0.00105301383882761
1757862641526767000,7.12076708984375,0.012055597268044949,-0.017714282497763634,-0.001371794263832271
1757862641536751900,7.130751953125,-0.0028474517166614532,-0.012338425032794476,-0.004450940992683172
1757862641546737000,7.14073681640625,-0.01443886011838913,0.008524511940777302,-0.008227037265896797
1757862641556722000,7.150721923828125,-0.008242216892540455,0.017733989283442497,-0.007640875410288572
1757862641566708000,7.1607080078125,0.005364139098674059,0.015219166874885559,-0.004569451790302992
1757862641576693000,7.17069287109375,0.01745116151869297,0.003691940102726221,0.007794007193297148
1757862641586678000,7.180677978515625,0.022225942462682724,-0.0065503111109137535,0.015342737548053265
1757862641596663000,7.1906630859375,0.013884389773011208,0.01906823366880417,0.008684834465384483
1757862641606648000,7.20064794921875,0.006411826703697443,0.0207673292607069,-0.01413712464272976
1757862641616632800,7.2106328125,-0.00022556974727194756,0.012911537662148476,-0.021862953901290894
1757862641626617900,7.220617919921875,-0.022282935678958893,-0.0033366745337843895,-0.0173180028796196
1757862641636603000,7.230602783203125,-0.048102013766765594,-0.020322581753134727,-0.005481051746755838
1757862641646588200,7.240588134765625,-0.06318323314189911,-0.013669206760823727,-0.0016711335629224777
1757862641656573200,7.2505732421875,-0.06350281089544296,0.01732146553695202,-0.00509835546836257
1757862641666559000,7.26055908203125,-0.028478512540459633,0.023970313370227814,-0.023603595793247223
1757862641676544000,7.2705439453125,0.008481102995574474,0.002092179376631975,-0.025766616687178612
1757862641686529000,7.280529052734375,0.029275862500071526,-0.04200710356235504,-0.008561263792216778
1757862641696513800,7.290513671875,0.04572753980755806,-0.08652876317501068,0.00824061967432499
1757862641706498800,7.300498779296875,0.05342886969447136,-0.11618812382221222,0.010419617407023907
1757862641716484000,7.310484130859375,0.04650704935193062,-0.08728910237550735,0.006816626992076635
1757862641726469000,7.32046923828125,0.03375450149178505,-0.054429952055215836,-0.005555087700486183
1757862641736454000,7.330453857421875,0.02341184951364994,-0.022963106632232666,-0.005038434639573097
1757862641746439000,7.34043896484375,0.00663393409922719,0.005007541738450527,0.0051622712053358555
1757862641756424000,7.350423828125,0.009753560647368431,-0.022007564082741737,0.0027153589762747288
