time,seconds_elapsed,z,y,x
1757954511770128400,55.06612841796875,-2.4435820693969723,6.420949577331543,2.1461025131225586
1757954511780084500,55.07608447265625,-2.407369769287109,6.335955418395995,2.4254759193420408
1757954511790040600,55.08604052734375,-2.327014376068115,6.323385859680175,2.6828525978088376
1757954511799996400,55.09599633789063,-2.211344508361816,6.303035145568847,2.8555343925476078
1757954511809952500,55.105952392578125,-2.058265239715576,6.327874987792969,2.956240499877929
1757954511819909600,55.11590966796875,-1.9247884971618647,6.394014808654785,3.0680197898864745
1757954511829865500,55.12586547851563,-1.8085200790405271,6.4728738258361815,3.1899744369506835
1757954511839821600,55.13582153320313,-1.6850690559387207,6.560262186431884,3.285443228149414
1757954511849777400,55.14577734375,-1.5958850440979002,6.717830583190918,3.3797149185180664
1757954511859733200,55.15573315429688,-1.5255553703308105,6.886621800231933,3.4489971290588377
1757954511869689300,55.165689453125,-1.4200608596801756,7.039252156066894,3.5137902114868163
1757954511879645400,55.1756455078125,-1.3046902671813965,7.155370936584473,3.5488054107666014
1757954511889602300,55.18560229492188,-1.2087725631713866,7.298723760986328,3.556586566162109
1757954511899558700,55.19555859375,-1.1420341918945311,7.497442498779296,3.5556887405395505
1757954511909514500,55.20551440429688,-1.0908581314086914,7.729680059814453,3.5763387298583984
1757954511919470600,55.215470703125,-1.080233861541748,8.098087840270995,3.617788346099853
1757954511929426400,55.22542651367188,-1.1162965240478515,8.622268366241455,3.688267657470703
1757954511939382500,55.23538256835938,-1.167622222137451,9.278279621124266,3.810072666931152
1757954511949338400,55.24533837890625,-1.2594997108459471,10.001178884887697,3.9918823554992673
1757954511959295500,55.25529541015625,-1.371428638458252,10.630554646301269,4.186261602783203
1757954511969251300,55.26525122070313,-1.4927847351074215,11.066448986053466,4.346523476409912
1757954511979207400,55.27520751953125,-1.6690578323364256,11.24242280807495,4.406827430725097
1757954511989163500,55.28516357421875,-1.8984522789001463,11.193192036437988,4.340687609863281
1757954511999119600,55.29511962890625,-2.108094561767578,11.005546481323242,4.241627516174316
1757954512009075500,55.30507543945313,-2.2258593559265134,10.848875910186766,4.138227931976318
1757954512019031600,55.31503149414063,-2.1814169876098632,11.07677398071289,4.150797490692138
1757954512028988400,55.32498852539062,-2.0868460220336917,11.864765602111817,4.393210408782958
1757954512038944500,55.33494458007812,-2.024896054077148,13.028048333740234,4.892401454925537
1757954512048900400,55.344900390625,-2.061257991790771,13.895796797943117,5.510404758453369
1757954512058856400,55.3548564453125,-2.278232517242432,13.870059130096434,5.955426992034912
1757954512068812300,55.36481225585938,-2.7144261322021483,13.11423959350586,5.985354512786865
1757954512078768400,55.37476831054688,-3.2685341789245603,12.420818937683103,5.654206495666504
1757954512088724500,55.384724365234376,-3.6789901260375975,11.9127992729187,5.12688358001709
1757954512098681300,55.39468139648437,-3.9496845512390135,11.312153931427002,4.49481434173584
1757954512108637700,55.4046376953125,-4.117129029846192,10.416572872924805,3.868132057189941
1757954512118593500,55.41459350585937,-4.229057957458496,9.419387881469726,3.279158448791504
1757954512128548900,55.424548828125,-4.265569532775879,8.562712599945067,2.683301510620117
1757954512138505000,55.4345048828125,-4.188506166839599,8.036886060333252,2.0862474716186523
1757954512148460800,55.444460693359375,-3.9395091941833495,7.84669666595459,1.4468459907531737
1757954512158417000,55.4544169921875,-3.5818753211975096,7.98047268371582,0.8646060745239257
1757954512168373800,55.46437377929688,-3.167229521179199,8.415469197845459,0.3404255485534668
1757954512178329900,55.47432983398438,-2.653673265075684,9.070732264709472,-0.1075894371032714
1757954512188286000,55.48428588867188,-2.14490541229248,9.757419228363036,-0.3628711891174316
1757954512198242000,55.49424194335938,-1.6910545600891111,10.22683239135742,-0.4637269340515136
1757954512208198000,55.50419799804688,-1.4315829551696777,10.407594616699216,-0.4807856208801269
1757954512218154000,55.514154052734376,-1.3340192375183104,10.39981346130371,-0.4266168083190917
1757954512228109800,55.52410986328125,-1.241094285583496,10.416872148132324,-0.3423708374023437
1757954512238066000,55.53406591796875,-1.2533645690917967,10.46385835571289,-0.0767640907287597
1757954512248023000,55.54402294921875,-1.3521253875732422,10.499322467803957,0.4300584732055664
1757954512257979000,55.55397875976563,-1.5159785636901857,10.362852973175048,1.0896610305786132
1757954512267935000,55.56393505859375,-1.7401356941223145,9.988758963775634,1.8338088340759275
1757954512277890800,55.57389086914063,-1.989431941986084,9.478943647766112,2.5463831031799318
1757954512287847000,55.583846923828126,-2.10674782333374,8.89266351623535,3.178601979064941
1757954512297803000,55.593802978515626,-2.184709014892578,8.27451057510376,3.6508582565307615
1757954512307758800,55.6037587890625,-2.109740575408936,7.679102549743652,3.972728742218017
1757954512317716000,55.61371606445312,-2.0503344467163083,7.175721650695801,4.229806145477295
1757954512327672000,55.62367211914062,-1.9788076721191403,6.8311062492370604,4.431218360137939
1757954512337628000,55.6336279296875,-1.9237410339355467,6.603806729125976,4.605845443725586
1757954512347584000,55.643583984375,-1.8583494010925288,6.414066247558593,4.76880079421997
1757954512357539800,55.65353979492188,-1.8014871116638185,6.270563785552978,4.883273561096191
1757954512367496000,55.663495849609376,-1.7679682884216308,6.169558403015136,4.944774616241455
1757954512377451800,55.67345166015625,-1.7292121490478514,6.065560268402099,4.936394910430908
1757954512387408100,55.683408203125,-1.6326958946228027,5.965303073883057,4.8397290184021
1757954512397364700,55.69336474609375,-1.5527894142150878,5.909338610076904,4.758775074768066
1757954512407321000,55.70332104492188,-1.5020622665405272,5.9953802322387695,4.682759172058105
1757954512417277000,55.71327685546875,-1.449838742828369,6.2027779510498045,4.656273316192626
1757954512427233000,55.72323291015625,-1.4577695358276366,6.389376042938232,4.645499408721924
1757954512437188900,55.73318896484375,-1.5013140785217285,6.5306339408874505,4.56469510269165
1757954512447145000,55.74314501953125,-1.5734394035339354,6.638223377990722,4.479401668548584
1757954512457100800,55.753100830078125,-1.7387889556884764,6.743867526245117,4.389469468688964
1757954512467058000,55.76305786132812,-1.9566613067626952,6.851756238555907,4.326621675109863
1757954512477013800,55.773013671875,-2.210895595550537,6.938695686340331,4.263923519134521
1757954512486969900,55.78296997070313,-2.4621371322631838,6.989123558807373,4.178031534576416
1757954512496926000,55.79292602539063,-2.708141352844238,7.102399224853516,4.108001136016846
1757954512506882000,55.80288208007813,-2.9686604209899903,7.332691497039795,4.043956241607666
1757954512516838000,55.812837890625,-3.222745072174072,7.706486231231689,4.010587055969238
1757954512526794000,55.8227939453125,-3.4371757583618163,8.213608070373535,3.993977281951904
1757954512536749800,55.832749755859375,-3.6106057411193846,8.795399073791504,3.987692502593994
1757954512546707000,55.84270703125,-3.6547488342285153,9.407865785980224,3.981407723236084
1757954512556663000,55.8526630859375,-3.656245210266113,10.045321977996826,3.85631068649292
1757954512566619000,55.86261889648438,-3.676595924377441,10.695647003936768,3.7222353935241697
1757954512576574700,55.87257470703125,-3.6240731254577634,11.144110902404783,3.576638005065918
1757954512586530800,55.88253076171875,-3.554641277313232,11.39625026473999,3.427150038909912
1757954512596487000,55.89248681640625,-3.603123860931397,11.610980226135252,3.334673999786377
1757954512606443000,55.90244311523438,-3.609558277893066,11.876138059997558,3.305345029449463
1757954512616400100,55.91240014648437,-3.566911560821533,12.233771932983398,3.389291725158692
1757954512626356000,55.92235595703125,-3.573944528198242,12.52526598510742,3.653252458190918
1757954512636312000,55.93231201171875,-3.6174890708923337,12.630311582946776,3.9715316413879393
1757954512646268000,55.94226782226563,-3.7172973526000974,12.582277912139892,4.32886623916626
1757954512656224000,55.95222412109375,-3.907935659790039,12.451045733642577,4.626944345855713
1757954512666179800,55.96217993164063,-4.023006977081298,12.14354045791626,4.756081597900391
1757954512676136000,55.97213598632813,-4.159476471710205,11.520599113464357,4.572176982879639
1757954512686091800,55.982091796875,-4.300435094451904,10.67484737701416,4.154987343597412
1757954512696049000,55.992048828125,-4.259883303833008,9.779864868927,3.6182372589111327
1757954512706004700,56.00200463867188,-4.152892417144775,8.941146099853515,3.0309096641540525
1757954512715961000,56.01196118164062,-3.94519542312622,8.19729757156372,2.5068787757873534
1757954512725917000,56.0219169921875,-3.5998318336486816,7.606079399108887,2.0280384437561034
1757954512735873000,56.031873046875,-3.2351649932861326,7.375637489318847,1.6903063720703124
1757954512745828900,56.04182885742188,-2.878728221130371,7.680000375366211,1.5363292778015136
1757954512755785000,56.051784912109376,-2.491765377807617,8.458265552520752,1.5566799919128418
1757954512765740800,56.06174072265625,-2.134730055236816,9.37763899002075,1.666962905883789
1757954512775698000,56.07169799804687,-1.8257284034729,10.08647231903076,1.8384475997924803
1757954512785653800,56.08165380859375,-1.625513289642334,10.383802237701415,2.0241478660583496
1757954512795609900,56.09160986328125,-1.4698901817321777,10.36719246368408,2.1568764205932616
1757954512805566000,56.10156591796875,-1.364096395874023,10.290428372955322,2.167201415252685
1757954512815522000,56.11152197265625,-1.3262380821228026,10.282497579956054,2.090287686920166
1757954512825478000,56.121477783203126,-1.3657424095153807,10.186879151153564,1.9964649093627929
1757954512835434000,56.13143408203125,-1.491288359069824,9.884611191558838,1.8966566276550287
1757954512845389800,56.141389892578125,-1.65364515914917,9.35878465194702,1.8073229782104487
1757954512855347000,56.15134692382812,-1.8101660926818848,8.68990456314087,1.676539712524414
1757954512865302800,56.161302734375,-1.961898622894287,8.051849820709228,1.5058032066345215
1757954512875259000,56.1712587890625,-2.0982184799194337,7.512855171966552,1.384746385192871
1757954512885214700,56.181214599609376,-2.1627122871398923,7.078906121063232,1.3153145370483397
1757954512895170800,56.1911708984375,-2.1425112106323243,6.744914989471435,1.3549685020446776
1757954512905127000,56.201126953125,-2.1245546981811523,6.535871257019043,1.5426140571594238
1757954512915083000,56.2110830078125,-2.075174288940429,6.449081446838378,1.798494359588623
1757954512925038800,56.221038818359375,-1.9704279663085935,6.457461152648926,2.0676924087524413
1757954512934996000,56.23099584960938,-1.8751088127136228,6.540809297943115,2.3183353950500485
1757954512944952000,56.2409521484375,-1.74926358795166,6.6516907623291015,2.5170541328430174
1757954512954908000,56.25090795898438,-1.6467618293762205,6.731597242736816,2.657114929962158
1757954512964864000,56.26086401367188,-1.5506944877624511,6.841431243896484,2.801964130401611
1757954512974819800,56.27081982421875,-1.4847043045043944,6.912658743286133,2.9263129791259765
1757954512984776000,56.28077587890625,-1.421856510925293,6.953060896301269,3.0336031410217283
1757954512994731800,56.290731689453125,-1.4000094207763671,6.985681893920898,3.1063270164489745
1757954513004688100,56.30068823242188,-1.350180098724365,7.0364090415954585,3.147028444671631
1757954513014644000,56.31064404296875,-1.3034931663513185,7.097910096740722,3.1765070526123047
1757954513024601000,56.32060107421875,-1.2333131301879885,7.177367664337158,3.2044892845153807
1757954513034557000,56.33055688476563,-1.192013151550293,7.370100897979736,3.2513258544921877
1757954513044513000,56.34051293945313,-1.191264963531494,7.627477576446533,3.3042975662231444
1757954513054468900,56.35046875,-1.20667763671875,7.959224143981933,3.3643022453308102
1757954513064425000,56.36042504882813,-1.206079086303711,8.404545652770995,3.465457265472412
1757954513074380800,56.370380859375,-1.216254443359375,8.93171893081665,3.5748423538208005
1757954513084337000,56.3803369140625,-1.2505214546203614,9.598953005981445,3.708019821166992
1757954513094293000,56.39029296875,-1.3281833709716797,10.255113898468016,3.846284967041016
1757954513104249900,56.40024975585938,-1.498919876861572,10.808324119567873,3.980060984802246
1757954513114206000,56.4102060546875,-1.6904560096740722,11.072284852600095,4.012532344818115
1757954513124162000,56.420162109375,-1.8728642486572264,11.128548591613768,3.973028017425537
1757954513134118400,56.43011840820313,-2.0322282966613767,11.067646086883544,3.812167593383789
1757954513144074500,56.44007446289063,-2.180219886779785,10.96155302581787,3.63275210647583
1757954513154030300,56.4500302734375,-2.20924958190918,10.87236901397705,3.4563293716430663
1757954513163986400,56.459986328125,-2.104652896881104,11.021856980133055,3.334673999786377
1757954513173942300,56.4699423828125,-1.901893943786621,11.650185278320311,3.4829648651123044
1757954513183898400,56.4798984375,-1.698835715484619,12.732813341522217,3.923946883392334
1757954513193855200,56.48985522460937,-1.6614263145446777,13.717877687072754,4.561552713012695
1757954513203811300,56.49981127929688,-1.8605939651489256,13.92422794265747,5.161599504089355
1757954513213767200,56.50976708984375,-2.2559365142822263,13.31625035858154,5.419574732971191
1757954513223723500,56.5197236328125,-2.803161231231689,12.585270664215088,5.163245517730712
1757954513233679400,56.52967944335938,-3.317615312957764,12.038345222473144,4.62185666732788
1757954513243635500,56.53963549804688,-3.750816175842285,11.40837091064453,4.052186309814453
1757954513253591300,56.54959130859375,-4.182819937896729,10.488099647521972,3.5817256835937497
1757954513263547400,56.55954736328125,-4.470124137115478,9.399635717773435,3.1994016059875485
1757954513273503200,56.56950317382813,-4.64130955581665,8.429684770202636,2.864662286376953
1757954513283460400,56.57946044921875,-4.602104503631591,7.746140196228027,2.475005966186523
1757954513293416200,56.58941625976563,-4.311807552337646,7.5159975616455075,2.041056915283203
1757954513303372300,56.59937231445313,-3.810820854949951,7.693617397308349,1.594089392852783
1757954513313328400,56.60932836914063,-3.243694336700439,8.188618590545653,1.206079086303711
1757954513323284500,56.61928442382813,-2.665494635772705,9.00803410873413,1.0019733947753906
1757954513333240300,56.629240234375,-2.200570600891113,9.816825357055665,1.0561422073364255
1757954513343196400,56.639196533203126,-1.885284169769287,10.34310080947876,1.256357321166992
1757954513353152300,56.64915234375,-1.6274585784912108,10.41896707458496,1.5485995613098145
1757954513363108400,56.6591083984375,-1.4604630126953124,10.22683239135742,1.737142942047119
1757954513373065200,56.66906518554688,-1.4481927291870116,10.052055670166014,1.831264994812012
1757954513383021300,56.67902124023438,-1.3958195678710936,9.932794499969482,1.9547160179138183
1757954513392977200,56.68897705078125,-1.3859434860229491,9.8204166595459,2.179770973968506
1757954513402933200,56.698933349609376,-1.4546271461486815,9.528024781799315,2.5008932716369627
1757954513412889300,56.70888940429688,-1.5619173080444335,9.114875357818605,2.8567314933776853
1757954513422845400,56.718845458984376,-1.740434969329834,8.632294085693358,3.236062818908691
1757954513432801300,56.72880126953125,-1.843984191131592,8.12173058166504,3.5507506996154783
1757954513442757400,56.73875732421875,-1.888426559448242,7.614459104919433,3.81785382232666
1757954513452713200,56.74871313476562,-1.8671780197143557,7.135618772888183,4.020463137817383
1757954513462670300,56.75867041015625,-1.8598457771301269,6.713940005493163,4.143016335296631
1757954513472626400,56.76862646484375,-1.8447323791503905,6.358101783752441,4.178779722595214
1757954513482582300,56.77858227539063,-1.7839795120239257,6.082319680023193,4.148852201843262
1757954513492538400,56.788538330078126,-1.7021277427673338,5.910386073303222,4.158129733276367
1757954513502494200,56.798494140625,-1.650951682281494,5.869235732269287,4.167407264709472
1757954513512450300,56.8084501953125,-1.6192285102844235,5.925798746490478,4.190750730895996
1757954513522406400,56.81840649414063,-1.6527473335266112,6.099228729248047,4.216189123535156
1757954513532362200,56.8283623046875,-1.6838719551086423,6.329521001434326,4.254197074890136
1757954513542318300,56.838318359375,-1.6799813774108885,6.657077716064452,4.292055388641357
1757954513552275500,56.848275390625,-1.7310078002929687,7.021445281219482,4.323329647827149
1757954513562231300,56.85823120117188,-1.7100585357666014,7.339425189208984,4.330961165618897
1757954513572187400,56.8681875,-1.6941969497680662,7.474547945404052,4.250306497192383
1757954513582143200,56.87814331054688,-1.7422306205749511,7.381174080657958,4.123413809204101
1757954513592099300,56.888099365234375,-1.827075141906738,7.231985389709473,3.975272581481933
1757954513602055400,56.898055419921874,-1.91521169052124,7.155221298980712,3.828029179382324
1757954513612011500,56.908011474609374,-2.022501852416992,7.178714402770996,3.708618371582031
1757954513621967400,56.91796728515625,-2.174084745025634,7.273285368347167,3.6387376106262206
1757954513631923500,56.92792333984375,-2.325817275238037,7.419630944824219,3.59444487991333
1757954513641879300,56.93787939453125,-2.5189994216918943,7.630769603729248,3.543867369842529
1757954513651836400,56.94783642578125,-2.729389892578125,7.951742263793945,3.5134909362792968
1757954513661792300,56.957792236328125,-2.9499557205200198,8.377610884094238,3.5040637672424317
1757954513671748400,56.96774829101562,-3.2231939849853517,8.847472959899902,3.535637301635742
1757954513681704200,56.9777041015625,-3.47308878326416,9.375992976379392,3.631704643249512
1757954513691660300,56.987660400390624,-3.630208267211914,10.027215827941896,3.794211080932617
1757954513701616400,56.99761645507812,-3.759644794464111,10.692953527069092,3.8447885910034176
1757954513711572500,57.00757250976562,-3.816058171081543,11.13453409576416,3.75425784072876
1757954513721528300,57.0175283203125,-3.656245210266113,11.334449934387209,3.516932601165771
1757954513731484400,57.027484375,-3.462165238189697,11.149348218536376,3.2703298301696777
1757954513741440300,57.03744018554688,-3.327790670013428,10.999411339569091,3.2001497940063475
1757954513751397400,57.0473974609375,-3.331531610107421,11.186308706665038,3.359364204406738
1757954513761353200,57.05735327148437,-3.33257907333374,11.556661775970458,3.7174469902038574
1757954513771309300,57.06730932617187,-3.3693899238586424,11.845013438415526,4.151545678710937
1757954513781265200,57.07726513671875,-3.467252916717529,11.841571773529052,4.594622623443604
1757954513791221500,57.08722143554687,-3.566612285614013,11.608586024475096,5.020940156555176
1757954513801177300,57.09717724609375,-3.7065234451293945,11.372158610534669,5.348347233581543
1757954513811133400,57.10713354492187,-3.8560114112854,11.278036557769775,5.574748928070068
1757954513821089300,57.11708935546875,-3.914519714355469,11.339687250518798,5.680991626739502
1757954513831045400,57.12704541015625,-3.9270892730712887,11.09652614440918,5.4698529678344725
1757954513841001200,57.13700122070313,-3.9106291366577146,10.432733734130858,4.919186585998535
1757954513850958300,57.14695825195312,-3.829974468231201,9.647136314392087,4.214393472290039
1757954513860914200,57.1569140625,-3.736750241088867,8.875006278991698,3.482067039489746
1757954513870870300,57.16687036132812,-3.5793314819335937,8.2100167678833,2.8311434631347656
1757954513880826000,57.176826171875,-3.3731308639526367,7.690175732421874,2.286911498260498
1757954513890782500,57.18678247070312,-3.1434371421813965,7.437288182067871,1.8836381561279296
1757954513900738300,57.19673828125,-2.9032687881469723,7.632415617370605,1.6335937202453612
1757954513910694400,57.2066943359375,-2.640654793548584,8.265831594085693,1.5701473762512206
1757954513920650200,57.216650146484376,-2.361580662536621,9.156324974060055,1.6211737991333006
1757954513930606300,57.2266064453125,-2.0298340950012204,9.982474184417724,1.697488977050781
1757954513940562200,57.236562255859376,-1.732803451538086,10.587608654022215,1.7699135772705077
1757954513950519300,57.24651928710937,-1.444751064300537,10.89765776901245,1.820191812133789
1757954513960475400,57.25647534179687,-1.2322656669616698,10.998363876342772,1.7806874847412109
1757954513970431200,57.26643115234375,-1.08532154006958,10.887183136749266,1.6871639823913571
1757954513980387300,57.27638720703125,-1.0489596023559569,10.568903953552246,1.5849614990234373
1757954513990343400,57.28634350585938,-1.1391910774230956,10.070910008239746,1.427542739868164
1757954514000299500,57.29629956054688,-1.278054773712158,9.443629173278808,1.2620435501098632
1757954514010255400,57.30625537109375,-1.4636054023742675,8.790311395263672,1.1323077476501464
1757954514020211200,57.31621118164063,-1.673995873260498,8.155548680114746,1.0486603271484374
1757954514030167300,57.326167236328125,-1.9213468322753904,7.621940985107422,1.0519523544311522
1757954514040123100,57.336123046875,-2.1199159324645995,7.1035963256835934,1.1441291183471678
1757954514050079200,57.34607934570312,-2.275539040374756,6.65273822555542,1.3537714012145996
1757954514060036400,57.35603637695313,-2.3690625427246093,6.2964510910034175,1.5685013626098632
1757954514069992200,57.3659921875,-2.4244284561157223,6.066308456420898,1.7865233512878418
1757954514079948500,57.37594848632813,-2.4163480255126952,6.000617548370361,2.033126122283936
1757954514089904400,57.385904296875,-2.3056161987304686,6.105513508605957,2.264465857696533
1757954514099860500,57.39586059570313,-2.159120984649658,6.353911930847167,2.46453133392334
1757954514109816300,57.40581640625,-1.9575591323852537,6.643610331726074,2.632724000549316
1757954514119772400,57.4157724609375,-1.7323545387268064,6.909665991210937,2.7802666778564453
1757954514129728300,57.42572827148437,-1.5460557220458984,7.14384884109497,2.964171292877197
1757954514139684000,57.43568408203125,-1.3792097938537595,7.344662505340576,3.142688954162597
1757954514149640200,57.44564013671875,-1.215655892944336,7.499238150024413,3.302501914978027
1757954514159596300,57.45559619140625,-1.11734398727417,7.647529015350341,3.4386721343994138
1757954514169553200,57.46555322265625,-1.0893617553710937,7.76319888305664,3.5250130317687987
1757954514179509200,57.47550927734375,-1.071405242919922,7.82679486465454,3.554491639709473
1757954514189465000,57.485465087890624,-1.0678139404296874,7.836222033691405,3.511994560241699
1757954514199421200,57.49542114257813,-1.0869675537109371,7.841010437011718,3.431339891815185
1757954514209377000,57.505376953125,-1.107617543029785,7.911489748382568,3.3719337631225583
1757954514219333000,57.5153330078125,-1.145326219177246,8.140435282135009,3.3500866729736325
1757954514229289000,57.5252890625,-1.2268787132263184,8.57408505783081,3.4008138206481933
1757954514239245000,57.5352451171875,-1.4068927505493165,9.172336197662354,3.5263597702026366
1757954514249201200,57.545201171875,-1.656039360809326,9.702202952575684,3.674052085113525
1757954514259157200,57.5551572265625,-1.8960580772399904,10.061033926391602,3.809923029327393
1757954514269113000,57.56511303710938,-2.10704709854126,10.232817895507813,3.924844709014893
1757954514279070200,57.5750703125,-2.3324013298034667,10.348487763214113,3.9700352653503415
1757954514289026000,57.58502612304687,-2.4920646530151367,10.462960530090331,3.9612066467285154
1757954514298982100,57.59498217773437,-2.5942671363830563,10.492439138031004,3.912873700714111
1757954514308938000,57.60493798828125,-2.568379830932617,10.372429779815674,3.7952585441589353
1757954514318894000,57.61489404296875,-2.4042273796081544,10.345345373535157,3.700238665771484
1757954514328850000,57.62484985351563,-2.1166239051818847,10.844536419677734,3.762338271331787
1757954514338806300,57.63480615234375,-1.8453309295654297,12.099547002410889,4.089146797943115
1757954514348762000,57.64476220703125,-1.789516103363037,13.52828684310913,4.676773667907715
1757954514358718200,57.65471826171875,-2.094776815032959,14.197166931915282,5.255422281646728
1757954514368674000,57.664674072265626,-2.715473595428467,13.6619132232666,5.436034869384765
1757954514378630100,57.674630126953126,-3.5953427055358884,12.7302695022583,4.908113403320312
1757954514388587000,57.6845869140625,-4.243572805023193,12.21865853500366,4.093037375640869
1757954514398543000,57.69454321289062,-4.517559257507324,11.91414601135254,3.3638533325195312
1757954514408499000,57.7044990234375,-4.546439315032958,11.43410857849121,2.824409770965576
1757954514418455000,57.714455078125,-4.503792597961426,10.622623853302,2.437596565246582
1757954514428411000,57.72441088867188,-4.613476961517334,9.66015478591919,2.096722103881836
1757954514438367200,57.7343671875,-4.734833058166504,8.860491431427002,1.7806874847412109
1757954514448323000,57.74432299804688,-4.741716387939453,8.45946265335083,1.4953285743713378
1757954514458279200,57.754279052734375,-4.534617944335937,8.524555010986328,1.3124714225769043
1757954514468235000,57.76423510742188,-4.183568125915527,8.943091388702392,1.2042834350585936
1757954514478191000,57.774191162109375,-3.7505169006347656,9.528922607421874,1.2119149528503417
1757954514488147000,57.78414697265625,-3.242347598266601,10.03050785522461,1.2779051361083984
1757954514498103000,57.79410302734375,-2.8426655586242675,10.300903005218505,1.2997522262573242
1757954514508060000,57.804059814453126,-2.494309217071533,10.38021093521118,1.3539210388183591
1757954514518016000,57.81401611328125,-2.190544881439209,10.30524249572754,1.3623007446289062
1757954514527972000,57.82397216796875,-1.9226935707092283,10.211419718170166,1.3811550827026366
1757954514537928200,57.83392822265625,-1.6410756004333495,10.118045853424071,1.4730325714111328
1757954514547884000,57.843884033203125,-1.4163199195861815,9.93967782974243,1.683273404693603
1757954514557840100,57.853840087890624,-1.3084312072753903,9.62065045852661,1.9642928245544435
1757954514567796000,57.8637958984375,-1.2542623947143554,9.196128576660156,2.270750637054443
1757954514577752000,57.873751953125,-1.3712790008544922,8.6689552986145,2.6057892318725586
1757954514587708000,57.8837080078125,-1.5477017356872558,8.041674463653564,2.886808651733398
1757954514597664000,57.8936640625,-1.6787842765808103,7.414842541503906,3.177853791046142
1757954514607620000,57.9036201171875,-1.7806874847412109,6.841730519104003,3.4905963829040525
1757954514617576200,57.913576171875,-1.817647972869873,6.380846699523925,3.8028900619506834
1757954514627533300,57.923533203125,-1.8474258560180663,6.032191082763672,4.025550816345215
1757954514637489200,57.9334892578125,-1.8671780197143557,5.802796636199951,4.2329485351562495
1757954514647445200,57.9434453125,-1.8353052101135248,5.670965907287598,4.398447724914551
1757954514657401000,57.95340112304687,-1.8341081092834477,5.5924061653137205,4.527285701751708
1757954514667357000,57.96335693359375,-1.809717179870605,5.499181938171386,4.593724797821045
1757954514677313000,57.97331298828125,-1.792658493041992,5.417180531311035,4.6091374710083
1757954514687268900,57.98326879882813,-1.722478456878662,5.356876576995849,4.6459483215332025
1757954514697225200,57.99322509765625,-1.6977882522583008,5.345653756713867,4.714482344055176
1757954514707181000,58.00318115234375,-1.6511013198852538,5.440075084686279,4.8515503890991205
1757954514717137200,58.01313720703125,-1.6316484313964843,5.647023890686035,5.045181448364257
1757954514727093000,58.02309301757813,-1.6309002433776854,5.887491519927978,5.248538951873779
1757954514737049000,58.03304907226563,-1.5815198341369627,6.056582012176514,5.364208819580078
1757954514747006200,58.04300610351562,-1.547552098083496,6.158634857940673,5.455637395477295
1757954514756962000,58.05296215820312,-1.5774796188354492,6.225971779632568,5.492897158813476
1757954514766918100,58.06291821289062,-1.6763900749206542,6.30123949432373,5.510554396057128
1757954514776874000,58.0728740234375,-1.8288707931518555,6.429778195953369,5.549609810638428
1757954514786830000,58.082830078125,-1.973271080780029,6.6319385986328125,5.6181438331604
1757954514796786200,58.0927861328125,-2.151040554046631,6.928221054077148,5.72034631652832
1757954514806742300,58.1027421875,-2.3101053268432614,7.254281392669677,5.824344451141357
1757954514816698000,58.11269799804688,-2.520944710540771,7.620893521881103,5.871031383514404
1757954514826654200,58.122654296875,-2.761113064575196,7.960421244812011,5.849782843780517
1757954514836610000,58.13261010742188,-2.920327474975586,8.247126893615722,5.7140615371704095
1757954514846566100,58.142566162109375,-3.033902416229248,8.590395556640624,5.520729753112793
1757954514856522000,58.15252197265625,-3.0808886238098143,9.160514826965333,5.330390721130371
1757954514866478000,58.16247802734375,-3.131017221069336,9.97229882736206,5.133467634582519
1757954514876435000,58.17243505859375,-3.290979819488525,10.777648410797118,4.901379711151122
1757954514886391000,58.18239111328125,-3.6106057411193846,11.447875238037108,4.707000463867187
1757954514896347100,58.19234716796875,-3.866186768341064,11.962329319763183,4.579060312652588
1757954514906303200,58.20230322265625,-4.074781587982177,12.432490670776366,4.448875597381591
1757954514916259000,58.212259033203125,-4.421342278289795,12.812121271514892,4.093635926055908
1757954514926215200,58.22221508789063,-4.78226817855835,12.981959951782226,3.705924894714355
1757954514936171000,58.2321708984375,-5.054010066986084,12.792967658233644,3.417423594665528
1757954514946127000,58.24212719726562,-5.272929881286621,12.367996863555907,3.2882863426208493
1757954514956083000,58.2520830078125,-5.315127685546875,11.89334638442993,3.2646436012268065
1757954514966039300,58.262039306640624,-5.341463903808593,11.56773495864868,3.2646436012268065
1757954514975995100,58.2719951171875,-5.336825138092041,11.27369706726074,3.2276831130981445
1757954514985951200,58.281951171875,-5.329642533111572,10.785429566192626,3.1405940277099607
1757954514995907000,58.29190698242188,-5.263652349853516,10.167426262664794,3.033902416229248
1757954515005863200,58.30186328125,-5.087528890228271,9.551966798400878,2.917783635711669
1757954515015820000,58.311820068359374,-4.828655835723876,8.952219282531738,2.74525147857666
1757954515025776000,58.32177612304688,-4.470124137115478,8.463353231048583,2.550572956085205
1757954515035732000,58.33173193359375,-4.068646446228027,8.114996889495849,2.317886482238769
1757954515045688000,58.34168798828125,-3.623324937438965,8.105868995666503,2.110039850616455
1757954515055644200,58.35164404296875,-3.1325135971069336,8.58770207977295,1.9500772521972656
1757954515065600300,58.36160034179687,-2.666841374206543,9.370456385040285,1.85775085067749
1757954515075556000,58.37155615234375,-2.2432173179626465,10.134356352233889,1.8715175102233883
1757954515085512200,58.38151220703125,-1.8851345321655275,10.570549967193603,1.949777976989746
1757954515095468000,58.39146801757813,-1.6364368347167968,10.631751747131348,2.075623201751709
1757954515105424100,58.40142407226563,-1.492036547088623,10.590152493286132,2.166902140045166
1757954515115380000,58.4113798828125,-1.4659996040344236,10.562768811798096,2.2088006690979003
1757954515125336000,58.42133618164063,-1.521964067840576,10.403554401397704,2.2200234893798827
1757954515135292200,58.431292236328126,-1.6332944450378415,10.002226348114013,2.1613655487060544
1757954515145247700,58.44124780273437,-1.770961040496826,9.425373385620116,2.047491332244873
1757954515155204900,58.45120483398438,-1.9856910018920897,8.796596174621582,1.8861819953918453
1757954515165160700,58.46116064453125,-2.1716905433654783,8.160785996246338,1.6436194396972654
1757954515175116800,58.47111669921875,-2.2822727325439454,7.535151174926757,1.452382582092285
1757954515185072600,58.48107275390625,-2.352153493499756,6.921487361907959,1.344493869781494
1757954515195028700,58.49102880859375,-2.386719779968262,6.388777492523193,1.340004741668701
1757954515204984600,58.500984619140624,-2.383128477478027,5.967398000335693,1.4366706336975097
1757954515214940700,58.51094067382813,-2.318185757446289,5.662436563873291,1.6117466300964354
1757954515224896800,58.52089672851562,-2.2258593559265134,5.488856943511963,1.8281226051330568
1757954515234852600,58.5308525390625,-2.0808605178833006,5.442170011138916,2.025195329284668
1757954515244808700,58.54080859375,-1.8989011917114256,5.524470693206787,2.192340532684326
1757954515254764500,58.5507646484375,-1.6789339141845705,5.706579656982422,2.3027730842590333
1757954515264720600,58.560720703125,-1.4612112007141111,5.953032790374755,2.3918074584960936
1757954515274676500,58.57067651367188,-1.2856862915039062,6.261286254119873,2.4875755249023435
1757954515284632600,58.58063256835938,-1.1198878265380858,6.578966886901855,2.612074011230469
1757954515294589700,58.59058959960937,-1.036838956451416,6.855646816253662,2.745700391387939
1757954515304545500,58.60054565429687,-0.952443347930908,7.025934409332275,2.850446714019775
1757954515314502000,58.610501953125,-0.8879495407104492,7.117063710021972,2.9544448486328125
1757954515324457700,58.62045776367187,-0.870142665863037,7.137115148925781,3.0348002418518063
1757954515334413800,58.63041381835937,-0.8448539108276367,7.138761162567138,3.094356008148193
1757954515344369700,58.64036962890625,-0.8556278182983398,7.267449501800536,3.1643864067077634
1757954515354325800,58.65032568359375,-0.8776245460510254,7.553556600189209,3.2212486961364744
1757954515364281600,58.66028149414063,-0.8839093254089355,8.025513602447509,3.3729812263488768
1757954515374237700,58.67023779296875,-0.9036614891052246,8.743624462890624,3.618536534118652
1757954515384193500,58.680193603515626,-0.9726444244384764,9.560645779418945,3.884592193603516
1757954515394150000,58.69014990234375,-1.0586860466003418,10.283993955993653,4.151396041107177
1757954515404105700,58.70010571289063,-1.2279261764526366,10.766425590515135,4.35415499420166
1757954515414061800,58.710061767578125,-1.4246996253967283,10.978462075042724,4.359541947937012
1757954515424017700,58.720017578125,-1.7175404159545895,11.04430262069702,4.2688615600585935
1757954515433973500,58.72997338867187,-2.009932293701172,11.085901874542236,4.094084838867187
1757954515443930600,58.7399306640625,-2.265363683319092,11.160870314025878,3.924994346618652
1757954515453886700,58.74988671875,-2.4369980148315427,11.323825664520262,3.766079211425781
1757954515463842600,58.75984252929688,-2.5980080764770506,11.577611040496825,3.695749537658691
1757954515473798700,58.769798583984375,-2.6638486221313475,12.087875269317626,3.7214872055053703
1757954515483754800,58.77975463867188,-2.677166368865967,12.955474095916747,3.998616047668457
1757954515493710800,58.7897109375,-2.795679351043701,13.905972154998778,4.530577729034423
1757954515503666700,58.79966674804688,-3.060837184906006,14.245799153137206,5.084386500549316
1757954515513622800,58.80962280273437,-3.4255040252685545,13.794342502593992,5.339219339752197
1757954515523578600,58.81957861328125,-3.9016508804321286,13.086406999206542,5.15905566482544
1757954515533534700,58.82953466796875,-4.2019735511779785,12.554594955444337,4.735880521392822
1757954515543490600,58.83949047851563,-4.272901775360107,12.11136837310791,4.314052116394043
1757954515553446700,58.84944677734375,-4.105606934356689,11.623699422454834,3.95821389465332
1757954515563402800,58.85940283203125,-3.845237503814697,10.972626208496091,3.625270226287842
1757954515573358800,58.86935888671875,-3.583371697235107,10.11176107406616,3.215562467193603
1757954515583314700,58.87931469726563,-3.4584242980957027,9.23114377593994,2.632125450134277
1757954515593270800,58.88927075195313,-3.368342460632324,8.56735136566162,1.9343653038024904
1757954515603227600,58.8992275390625,-3.3110312583923336,8.157493968963623,1.2315174789428711
1757954515613183700,58.90918383789062,-3.1088708557128903,8.024017226409912,0.6028899055480956
1757954515623139600,58.9191396484375,-2.839822444152832,8.266280506896972,0.1571194839477539
1757954515633095700,58.929095703125,-2.555660634613037,8.863933096313476,-0.0794575675964355
1757954515643051500,58.93905151367188,-2.2583307159423827,9.510816457366944,-0.1753752716064453
1757954515653008000,58.9490078125,-2.166303589630127,10.04936219329834,-0.1886930183410644
1757954515662963700,58.95896362304688,-2.2182278381347653,10.311227999877929,-0.1237502983093261
1757954515672919800,58.968919921875,-2.1357775184631347,10.2655885307312,-0.1369184074401855
1757954515682875600,58.97887573242188,-2.0771195777893063,10.15755018081665,-0.2480991470336914
1757954515692831700,58.988831787109376,-1.964143186950684,10.031704956054687,-0.2874538368225097
1757954515702787600,58.99878759765625,-1.8447323791503905,9.915735813140868,-0.1077390747070312
1757954515712743700,59.00874365234375,-1.834257746887207,9.724947868347169,0.3170820823669433
1757954515722699500,59.01869946289062,-1.923591396331787,9.437793306732177,0.9451111053466796
1757954515732655900,59.02865576171875,-2.07502465133667,8.990825784301757,1.6138415565490722
1757954515742611700,59.03861181640625,-2.13233585357666,8.45332751159668,2.17064308013916
1757954515752568800,59.04856884765625,-2.1537340309143067,7.845798840332031,2.5827450408935544
1757954515762524700,59.058524658203126,-2.088192760467529,7.263110011291504,2.9020716873168944
1757954515772480800,59.06848071289063,-1.9674352142333984,6.811354085540772,3.114856359863281
1757954515782436600,59.0784365234375,-1.8357541229248049,6.4071829177856445,3.254617881774902
1757954515792392700,59.088392822265625,-1.6614263145446777,6.151003340148925,3.375225790405273
1757954515802348500,59.0983486328125,-1.5491981117248534,6.02680412902832,3.551049974822998
1757954515812304600,59.1083046875,-1.4420575874328612,5.973982054901123,3.790320503234863
1757954515822260700,59.1182607421875,-1.3971663063049315,6.028001229858398,4.039018200683594
1757954515832216800,59.128216796875,-1.3516764747619627,6.139930157470703,4.276792353057861
1757954515842172700,59.13817260742187,-1.35362176361084,6.28208588104248,4.4671313850402825
1757954515852128800,59.14812866210937,-1.3409025672912598,6.471377449798584,4.649689261627197
1757954515862084600,59.15808471679688,-1.343296768951416,6.597521949768066,4.751891744995117
1757954515872040700,59.16804077148438,-1.4047978240966796,6.718129858398437,4.81384171295166
1757954515881996500,59.17799658203125,-1.5132850868225096,6.705560299682617,4.819527941894531
1757954515891952600,59.18795263671875,-1.6704045707702635,6.65258858795166,4.844367784118652
1757954515901908700,59.19790869140625,-1.843834553527832,6.687603787231445,4.898087683868408
1757954515911864800,59.20786474609375,-2.053776111602783,6.796390325164794,4.937143098449707
1757954515921820700,59.21782055664063,-2.2596774543762206,6.948272492980957,4.901080435943603
1757954515931777800,59.22777783203125,-2.4836849472045897,7.074865905761718,4.823268881988525
1757954515941733600,59.23773364257813,-2.681954772186279,7.210886487579345,4.767603693389892
1757954515951689700,59.24768969726563,-2.9302035568237303,7.372644737243652,4.674978016662598
1757954515961645600,59.2576455078125,-3.15974764099121,7.6671315414428705,4.550629167938232
1757954515971601700,59.2676015625,-3.334524362182617,8.094496537780762,4.399495188140869
1757954515981557500,59.2775576171875,-3.497330075073242,8.616582137298584,4.234893824005127
1757954515991513900,59.28751391601563,-3.5977369071960448,9.124901077270508,4.0909424491882325
1757954516001469700,59.2974697265625,-3.6138977684020994,9.610026188659669,3.892223711395264
1757954516011425800,59.30742578125,-3.455581183624268,10.057891536712646,3.609558277893066
1757954516021381600,59.31738159179688,-3.3282395828247067,10.411335556793212,3.171718649291992
1757954516031337700,59.32733764648437,-3.212868990325928,10.68188034439087,2.715922508239746
1757954516041293600,59.33729345703125,-3.1016882507324217,10.865036771392822,2.332850242614746
1757954516051249700,59.34724975585937,-3.043479222869873,10.995670399475095,2.1637597503662107
1757954516061205500,59.35720556640625,-3.0877719535827635,11.407024172210694,2.300977433013916
1757954516071161900,59.36716186523437,-3.173813575744629,12.10478431854248,2.705747151184082
1757954516081117700,59.37711767578125,-3.279607361602783,12.74239014816284,3.258059546661377
1757954516091073800,59.38707373046875,-3.4458547393798824,12.927042951202392,3.787178113555908
1757954516101029600,59.39702954101563,-3.7011364913940423,12.597840222930907,4.163815962219238
1757954516110986800,59.40698681640625,-3.993827644348144,12.049867317962644,4.43690458908081
1757954516120942600,59.41694262695312,-4.2390836769104006,11.6576671585083,4.657470417022704
1757954516130898700,59.42689868164062,-4.293402127075195,11.46014552154541,4.860079732513428
1757954516140855000,59.43685498046875,-4.2019735511779785,11.143213076782226,4.804863456726074
1757954516150811100,59.44681103515625,-4.018817124176025,10.554987656402588,4.423287567138671
1757954516160767000,59.45676708984375,-3.745878134918213,9.80530326156616,3.816507083892822
1757954516170723000,59.46672314453125,-3.5048119552612302,9.05217720184326,3.107973030090332
1757954516180679200,59.47667919921875,-3.309834157562256,8.32463917236328,2.467673723602295
1757954516190635300,59.48663525390625,-3.0172926422119137,7.749731498718261,1.922095020294189
1757954516200591000,59.49659106445313,-2.719064897918701,7.4682631660461425,1.5165771141052244
1757954516210547200,59.50654711914063,-2.467673723602295,7.663390601348876,1.26398883895874
1757954516220503000,59.5165029296875,-2.265214045715332,8.393173194885254,1.2190975578308103
1757954516230459100,59.52645922851563,-2.1224597717285154,9.347561831665038,1.3756184913635252
1757954516240415000,59.5364150390625,-1.986888102722168,10.143334608459472,1.6730980476379391
1757954516250371300,59.54637133789063,-1.86433490524292,10.632051022338867,2.007089179229736
1757954516260327200,59.5563271484375,-1.7353472908020018,10.857704528808592,2.2903531631469725
1757954516270283300,59.566283203125,-1.6614263145446777,10.908132401275632,2.46438169631958
1757954516280239000,59.576239013671874,-1.628655679321289,10.9168113822937,2.536207746124268
1757954516290195200,59.5861953125,-1.6992846282958984,10.698490118408202,2.5302222419738767
1757954516300151000,59.59615112304687,-1.829020430755615,10.200196897888183,2.467673723602295
1757954516310108200,59.60610815429688,-1.9815011489868164,9.489268642425536,2.290802075958252
1757954516320064000,59.61606396484375,-2.087145297241211,8.70172593383789,2.089240223693848
1757954516330020000,59.62602001953125,-2.2049100914001465,7.957877405548095,1.87720373916626
1757954516339976200,59.63597607421875,-2.242169854736328,7.323713240814208,1.7331027267456054
1757954516349932300,59.64593237304688,-2.2373814514160157,6.852803701782226,1.7432780838012694
1757954516359888100,59.65588818359375,-2.186504666137695,6.532130316925048,1.8682254829406737
1757954516369844200,59.66584423828125,-2.0691887847900388,6.36513475112915,2.0733786376953125
1757954516379800000,59.67580004882812,-1.9539678298950196,6.32039310760498,2.310554239654541
1757954516389756200,59.68575610351562,-1.8094179046630856,6.337451794433593,2.5116671791076657
1757954516399712000,59.6957119140625,-1.6596306632995603,6.3706713424682615,2.6376620414733885
1757954516409668000,59.70566821289062,-1.5222633430480956,6.42304450378418,2.6987141838073727
1757954516419624200,59.71562426757812,-1.349581548309326,6.453720212554932,2.7259482276916502
1757954516429580300,59.72558032226563,-1.2012906829833985,6.495469104003906,2.7578210372924805
1757954516439536000,59.7355361328125,-1.0856208152770996,6.612485710144043,2.789394571685791
1757954516449492200,59.7454921875,-1.04701431350708,6.795342861938476,2.852541640472412
1757954516459448000,59.75544799804688,-1.094299796295166,6.996306163787842,2.943670941162109
1757954516469404200,59.765404052734375,-1.107018992614746,7.147589781188964,3.0431799476623533
1757954516479360000,59.77536010742188,-1.1608885299682616,7.216871991729736,3.124882079315185
1757954516489316400,59.78531640625,-1.223885961151123,7.193678163146973,3.1536124992370604
1757954516499272200,59.79527221679688,-1.2392986343383787,7.162703179168701,3.1419407661437986
1757954516509229000,59.80522900390625,-1.2599486236572266,7.202506781768799,3.08343246307373
1757954516519185200,59.81518505859375,-1.279401512145996,7.395090377807617,3.053056029510498
1757954516529141200,59.82514135742188,-1.272667819976807,7.8338278320312495,3.074603844451904
1757954516539097000,59.83509716796875,-1.2713210815429687,8.542511523437499,3.1937153770446773
1757954516549053200,59.84505322265625,-1.3223475044250488,9.485228427124024,3.4006641830444333
1757954516559009000,59.855009033203125,-1.3831003715515136,10.36868883972168,3.642179275512695
1757954516568965000,59.864965087890624,-1.4960767623901363,10.978162799835204,3.8531682968139647
1757954516578921000,59.8749208984375,-1.614589744567871,11.20501340713501,3.886537482452392
1757954516588877300,59.88487719726562,-1.803133125305176,11.136778659820555,3.7406408187866207
1757954516598833200,59.89483325195312,-1.9879355659484863,10.97457149734497,3.5161844131469726
1757954516608789200,59.90478930664062,-2.184559377288818,10.81430962371826,3.2377088325500485
1757954516618745000,59.9147451171875,-2.2744915771484373,10.681132156372067,2.980182516479492
1757954516628701200,59.924701171875,-2.25997672958374,10.837054539489746,2.877980033111572
1757954516638657000,59.93465698242188,-2.147748526763916,11.49830311050415,3.068917615509033
1757954516648613000,59.94461303710938,-2.044199304962158,12.651410485076903,3.719990829467773
1757954516658569200,59.9545693359375,-1.997063459777832,13.666252713775634,4.617666814422607
1757954516668525300,59.964525390625,-2.107944924163818,13.806014235687256,5.387701923370361
1757954516678481200,59.97448120117188,-2.4756045166015626,13.107805176544188,5.658545986175537
1757954516688437200,59.984437255859376,-2.9767408515930174,12.277765388488769,5.343858105468749
1757954516698393000,59.99439306640625,-3.4319384422302246,11.673828019714357,4.820425767517089
1757954516708349200,60.00434912109375,-3.659387599945068,11.379790128326416,4.511424115753173
1757954516718305000,60.01430493164062,-3.7249288703918455,11.047594647979736,4.447229583740234
1757954516728262100,60.02426220703125,-3.856909236907959,10.415974322509763,4.381239400482177
1757954516738218000,60.03421801757813,-4.106804035186768,9.585335984039306,4.132392065429687
1757954516748174000,60.044174072265626,-4.368220928955078,8.841337818145751,3.580827857971191
