time,seconds_elapsed,z,y,x
1759584984824178400,0.024178466796875,2.372953120422363,9.41594621658325,-1.8186954360961913
1759584984839155700,0.03915576171875,2.3192332206726074,9.27019919052124,-1.735945841217041
1759584984849139500,0.049139404296875,2.385971591949463,9.24476079788208,-1.5185224029541016
1759584984859123500,0.05912353515625,2.404975567626953,9.270498465728759,-1.3168109130859373
1759584984869107500,0.069107421875,2.4084172325134277,9.293243381500243,-1.275510934448242
1759584984879092500,0.079092529296875,2.4979005195617674,9.23847601852417,-1.3730746520996093
1759584984889076500,0.089076416015625,2.4908675521850583,9.271845204162597,-1.5242086318969725
1759584984899060500,0.099060546875,2.3835773902893065,9.32032778778076,-1.7387889556884764
1759584984909045500,0.10904541015625,2.4157494750976563,9.235632904052734,-1.8525135345458983
1759584984919029500,0.119029541015625,2.4802432823181153,9.177872789001464,-1.6439187149047851
1759584984929013500,0.129013427734375,2.549076580047607,9.222165519714355,-1.376516316986084
1759584984938997500,0.13899755859375,2.4925135658264157,9.304615839385987,-1.2077250999450684
1759584984948982500,0.148982421875,2.443282794189453,9.201515530395508,-1.234809506225586
1759584984958966500,0.158966552734375,2.4344541755676268,9.19358473739624,-1.4404115737915038
1759584984968950500,0.168950439453125,2.456001990509033,9.298779972839355,-1.5568296295166015
1759584984978935600,0.178935546875,2.516754857635498,9.419836794281006,-1.5330372505187988
1759584984988919600,0.18891943359375,2.586037068176269,9.44258171005249,-1.4939818359375
1759584984998903600,0.198903564453125,2.618957341003418,9.306860403442382,-1.5176245773315429
1759584985008888600,0.208888671875,2.5616461387634275,9.177573513793945,-1.5738883163452146
1759584985018872600,0.21887255859375,2.593967861175537,9.125200352478027,-1.6499042190551756
1759584985028856600,0.228856689453125,2.6382605918884274,9.170241271209717,-1.7111059989929198
1759584985038840600,0.238840576171875,2.6563667419433594,9.385420145416258,-1.6862661567687987
1759584985048825600,0.24882568359375,2.567033092498779,9.402029919433593,-1.7360954788208007
1759584985058809600,0.2588095703125,2.557456285858154,9.37853681564331,-1.74926358795166
1759584985068793600,0.268793701171875,2.3847744911193844,9.281571648406981,-1.6762404373168944
1759584985078778600,0.278778564453125,2.1908441566467283,9.261370571899414,-1.4359224456787107
1759584985088762600,0.2887626953125,2.2105963203430172,9.375843338775635,-1.2006921325683593
1759584985098746600,0.29874658203125,2.2258593559265134,9.356390450286865,-1.2722189071655272
1759584985108731400,0.3087314453125,2.3062147491455076,9.382577030944823,-1.2741641960144041
1759584985118715600,0.318715576171875,2.4142530990600584,9.482235675048827,-1.2761094848632812
1759584985128699600,0.32869970703125,2.4244284561157223,9.50527986602783,-1.471536195373535
1759584985138683600,0.33868359375,2.352602406311035,9.382876306152344,-1.7347487403869628
1759584985148668400,0.34866845703125,2.2506991981506346,9.108590578460692,-1.8679262077331542
1759584985158652700,0.358652587890625,2.1315876655578614,9.126996003723145,-1.6518495079040527
1759584985168636700,0.36863671875,2.107346373748779,9.293393019104004,-1.3250409812927246
1759584985178621400,0.378621337890625,2.20909994430542,9.463082061767578,-1.120336739349365
1759584985188605400,0.38860546875,2.351704580688476,9.597905542755127,-1.1240776794433593
1759584985198589400,0.39858935546875,2.454655252075195,9.533262097930908,-1.2984054878234863
1759584985208573700,0.40857373046875,2.4447791702270507,9.594014965057372,-1.3842974723815917
1759584985218558500,0.418558349609375,2.263867307281494,9.602544308471678,-1.40464818649292
1759584985228542500,0.42854248046875,2.152237654876709,9.554211362457275,-1.3320739486694335
1759584985238526500,0.4385263671875,2.1019594200134275,9.450063590240479,-1.3465887962341307
1759584985248511500,0.448511474609375,2.1232079597473144,9.220968418884278,-1.452981132507324
1759584985258495500,0.45849560546875,2.19638074798584,9.245508985900878,-1.4050970993041991
1759584985268479500,0.4684794921875,2.295740116882324,9.392153837585449,-1.35990654296875
1759584985278464500,0.478464599609375,2.299630694580078,9.50632732925415,-1.3172598258972168
1759584985288448500,0.488448486328125,2.30471837310791,9.51949543838501,-1.348982997894287
1759584985298432500,0.4984326171875,2.2845172966003418,9.46846901550293,-1.4998177024841308
1759584985308416500,0.50841650390625,2.1065981857299803,9.351302771759032,-1.6781857261657713
1759584985318401500,0.518401611328125,2.0063409912109376,9.115024995422363,-1.673247685241699
1759584985328385500,0.528385498046875,2.0670938583374023,9.164704679870605,-1.518821678161621
1759584985338369500,0.53836962890625,2.1719898185729978,9.31509047164917,-1.3067851936340331
1759584985348354600,0.5483544921875,2.3081600379943845,9.406818322753905,-1.1423334671020506
1759584985358338600,0.558338623046875,2.378788986968994,9.43599765548706,-1.1424831047058104
1759584985368322600,0.568322509765625,2.249053184509277,9.418490055847167,-1.3220482292175293
1759584985378306600,0.578306640625,2.1312883903503415,9.386018695831298,-1.5212158798217772
1759584985388291600,0.58829150390625,2.1384709953308105,9.402628469848633,-1.5339350761413573
1759584985398275600,0.598275634765625,2.1262007118225097,9.53176572189331,-1.4133271675109862
1759584985408259600,0.608259521484375,2.160018810272217,9.532813185119629,-1.2976572998046874
1759584985418245000,0.6182451171875,2.2340894241333005,9.421482807922363,-1.214907704925537
1759584985428229000,0.62822900390625,2.291250988769531,9.38467195739746,-1.4103344154357909
1759584985438213000,0.638213134765625,2.233191598510742,9.343671253967285,-1.6252140144348144
1759584985448198100,0.6481982421875,2.369212180328369,9.30296982574463,-1.7079636093139647
1759584985458182100,0.65818212890625,2.348861466217041,9.39140564956665,-1.601271997833252
1759584985468166100,0.668166259765625,2.2813749069213864,9.477147996520996,-1.4767735115051268
1759584985478150100,0.678150146484375,2.265214045715332,9.456797282409667,-1.3512275619506835
1759584985488135200,0.68813525390625,2.2589292663574216,9.382427393341064,-1.223137773132324
1759584985498119200,0.698119140625,2.2403742034912106,9.291747005462646,-1.1487678840637205
1759584985508103200,0.708103271484375,2.103156520843506,9.23802710571289,-1.3088801200866698
1759584985518088200,0.718088134765625,2.166902140045166,9.243264421844481,-1.498470964050293
1759584985528072200,0.728072265625,2.296937217712402,9.328557855987547,-1.5275006591796874
1759584985538056200,0.73805615234375,2.2828712829589843,9.44871685180664,-1.4565724349975586
1759584985548041200,0.748041259765625,2.233191598510742,9.484480239105224,-1.5026608169555664
1759584985558025200,0.758025146484375,2.2327426856994625,9.420584982299804,-1.760785683441162
1759584985568009200,0.76800927734375,2.243366955566406,9.340528864288329,-1.7899650161743164
1759584985577993200,0.7779931640625,2.207005017852783,9.318681774139403,-1.5804723709106445
1759584985587978200,0.787978271484375,2.2189760261535643,9.35309842300415,-1.3643956710815428
1759584985597962200,0.797962158203125,2.2656629585266113,9.457395832824707,-1.120336739349365
1759584985607946200,0.8079462890625,2.3491607414245603,9.482235675048827,-1.055394019317627
1759584985617931000,0.817930908203125,2.3837270278930665,9.401431369018555,-1.2048819854736328
1759584985627915300,0.827915283203125,2.3312042289733887,9.335291548156738,-1.4080898513793945
1759584985637899300,0.837899169921875,2.2755390403747557,9.351751684570312,-1.5469535476684568
1759584985647884000,0.847884033203125,2.2679075225830077,9.370007472229004,-1.6606781265258788
1759584985657868000,0.857867919921875,2.292597727203369,9.451559966278076,-1.7271172225952147
1759584985667852300,0.867852294921875,2.3198317710876464,9.431957440185545,-1.65992993850708
1759584985677836300,0.877836181640625,2.3440730628967286,9.361328491210937,-1.510591609954834
1759584985687821000,0.887821044921875,2.31115279006958,9.418340418243409,-1.4716858329772948
1759584985697805000,0.89780517578125,2.287510048675537,9.452457791900635,-1.6397288619995116
1759584985707789000,0.9077890625,2.3247698120117186,9.394697676849365,-1.811961743927002
1759584985717774000,0.917774169921875,2.3933038345336914,9.342174877929686,-1.786224076080322
1759584985727758000,0.927758056640625,2.3696610931396482,9.331101695251464,-1.6564882736206055
1759584985737742000,0.9377421875,2.3503578422546387,9.286659326934814,-1.4627075767517088
1759584985747726000,0.94772607421875,2.2967875801086426,9.291747005462646,-1.290923607635498
1759584985757711000,0.957711181640625,2.293345915222168,9.291896643066405,-1.2502221794128416
1759584985767695000,0.967695068359375,2.3089082260131835,9.267505713653565,-1.3498808235168456
1759584985777679000,0.97767919921875,2.266860059356689,9.309853155517578,-1.578826357269287
1759584985787664100,0.9876640625,2.221070952606201,9.440037870788574,-1.7208324432373046
1759584985797648100,0.997648193359375,2.270900274658203,9.533860648345946,-1.7727566917419433
1759584985807632100,1.007632080078125,2.311751340484619,9.547477670288085,-1.7067665084838866
1759584985817617200,1.0176171875,2.309357138824463,9.462483511352538,-1.5210662422180175
1759584985827601200,1.02760107421875,2.2617723808288575,9.367762908172606,-1.3703811752319335
1759584985837585200,1.037585205078125,2.23453833694458,9.317933586120605,-1.2906243324279785
1759584985847569200,1.047569091796875,2.256834339904785,9.34022958908081,-1.3839981971740722
1759584985857554200,1.05755419921875,2.286761860656738,9.440786058807372,-1.5610194824218748
1759584985867538200,1.0675380859375,2.3144448173522947,9.496750522613524,-1.7432780838012694
1759584985877522200,1.077522216796875,2.329109302520752,9.493757770538329,-1.852663172149658
1759584985887507200,1.087507080078125,2.205957554626465,9.405920497131348,-1.7494132255554198
1759584985897491200,1.0974912109375,2.1148282539367673,9.25688144378662,-1.4953285743713378
1759584985907475200,1.10747509765625,2.1158757171630858,9.254038329315184,-1.2586018852233887
1759584985917460200,1.117460205078125,2.182763726043701,9.280823460388183,-1.060481697845459
1759584985927444200,1.1274443359375,2.2423194923400875,9.34127705230713,-1.1053729789733886
1759584985937428200,1.13742822265625,2.239476377868652,9.388412897491454,-1.3884873252868652
1759584985947412200,1.147412109375,2.2936451904296873,9.406818322753905,-1.6609774017333983
1759584985957397200,1.157397216796875,2.2940941032409667,9.453954167938232,-1.7417817077636717
1759584985967381200,1.16738134765625,2.210745957946777,9.459790034484863,-1.7657237243652342
1759584985977365200,1.177365234375,2.212691246795654,9.43644656829834,-1.7329530891418456
1759584985987350300,1.187350341796875,2.1710919929504393,9.317933586120605,-1.6472107421875
1759584985997334300,1.197334228515625,2.1520880172729493,9.22485899658203,-1.5396213050842285
1759584986007318300,1.207318359375,2.1808184371948243,9.18041662826538,-1.4724340209960938
1759584986017302000,1.217302001953125,2.250998473358154,9.32736075515747,-1.481711552429199
1759584986027287300,1.227287353515625,2.3280618392944334,9.484330601501464,-1.5457564468383789
1759584986037271300,1.237271240234375,2.2851158470153807,9.553014261627197,-1.4930840103149414
1759584986047255000,1.247255126953125,2.1715409057617188,9.49959363708496,-1.491288359069824
1759584986057240300,1.257240234375,2.0783166786193847,9.396343690490722,-1.5363292778015136
1759584986067224300,1.267224365234375,2.11946701965332,9.388861810302734,-1.5707459266662598
1759584986077208000,1.2772080078125,2.2034137153625486,9.387066159057616,-1.5490484741210937
1759584986087193300,1.287193359375,2.250998473358154,9.36551834411621,-1.5388731170654295
1759584986097177300,1.29717724609375,2.2993314193725585,9.2956375831604,-1.5964835945129394
1759584986107161000,1.3071611328125,2.217330012512207,9.23144305114746,-1.7579425689697266
1759584986117145000,1.31714501953125,2.1698948921203614,9.198223503112793,-1.795202332305908
1759584986127130000,1.327130126953125,2.2553379638671873,9.284265125274658,-1.62147307434082
1759584986137114000,1.337114013671875,2.274042664337158,9.551517885589599,-1.4480430915832518
1759584986147098000,1.34709814453125,2.2896049751281735,9.683797527313232,-1.3184569267272948
1759584986157083100,1.357083251953125,2.2849662094116208,9.59521206588745,-1.3000515014648437
1759584986167067100,1.367067138671875,2.255786876678467,9.46098713531494,-1.3973159439086913
1759584986177051100,1.377051025390625,2.145653600311279,9.356390450286865,-1.5726912155151367
1759584986187036200,1.3870361328125,2.0784663162231443,9.18041662826538,-1.7712603157043456
1759584986197020200,1.397020263671875,2.1628619247436522,9.232340876770019,-1.7672201004028318
1759584986207004200,1.407004150390625,2.2641665824890134,9.432705628204346,-1.6558897232055663
1759584986216988200,1.41698828125,2.314145542144775,9.503933127593994,-1.5710452018737793
1759584986226973200,1.42697314453125,2.250399922943115,9.465027350616454,-1.4899416206359863
1759584986236957200,1.436957275390625,2.122759046936035,9.402778107452392,-1.4736311218261717
1759584986246941200,1.446941162109375,2.0841525451660154,9.367762908172606,-1.4800655387878416
1759584986256926000,1.456926025390625,2.090287686920166,9.363273780059814,-1.473481484222412
1759584986266910000,1.466909912109375,2.14490541229248,9.338433937835692,-1.4570213478088379
1759584986276894200,1.476894287109375,2.2526444869995115,9.381679205322266,-1.4836568412780762
1759584986286878200,1.486878173828125,2.404377017211914,9.444975911712646,-1.6033669242858886
1759584986296863000,1.496863037109375,2.478297993469238,9.483582413482665,-1.690605647277832
1759584986306847000,1.506846923828125,2.404975567626953,9.482983863067627,-1.7757494438171386
1759584986316831200,1.516831298828125,2.173785469818115,9.387215796661376,-1.8652327308654784
1759584986326816000,1.52681591796875,2.0473416946411134,9.30237127532959,-1.78757081451416
1759584986336800000,1.536800048828125,2.079962692260742,9.289502441406249,-1.5605705696105956
1759584986346784000,1.546783935546875,2.126649624633789,9.379434641265869,-1.3711293632507324
1759584986356769000,1.55676904296875,2.197428211212158,9.370755660247802,-1.2312182037353514
1759584986366753000,1.5667529296875,2.2948422912597657,9.280224909973144,-1.2648866645812988
1759584986376737000,1.576737060546875,2.1977274864196774,9.301024536895751,-1.4800655387878416
1759584986386721000,1.586720947265625,2.0657471199035644,9.313594095611572,-1.7562965553283691
1759584986396706000,1.5967060546875,2.1691467041015624,9.317634310913085,-1.823334201812744
1759584986406690000,1.60668994140625,2.159270622253418,9.44916576461792,-1.610100616455078
1759584986416673500,1.616673583984375,2.130989115142822,9.533411735534667,-1.4059949249267578
1759584986426658600,1.626658447265625,2.170194167327881,9.431807802581787,-1.406443837738037
1759584986436642300,1.636642333984375,2.1440075866699217,9.327809667968749,-1.543062969970703
1759584986446626300,1.646626220703125,2.1999720504760742,9.323021264648437,-1.593490842437744
1759584986456611600,1.656611572265625,2.3036709098815917,9.343970529174804,-1.5964835945129394
1759584986466595300,1.66659521484375,2.3362919075012205,9.413701652526855,-1.6187795974731445
1759584986476579300,1.676579345703125,2.261473105621338,9.512163195800781,-1.601870548248291
1759584986486563300,1.686563232421875,2.1785738731384274,9.510367544555663,-1.5538368774414062
1759584986496548400,1.69654833984375,2.10046304397583,9.430012151336669,-1.478569162750244
1759584986506532400,1.706532470703125,1.9641431869506836,9.3086560546875,-1.5423147819519043
1759584986516516400,1.716516357421875,2.000355487060547,9.259126007843017,-1.5828665725708007
1759584986526501400,1.72650146484375,2.122759046936035,9.32736075515747,-1.5270517463684081
1759584986536485400,1.7364853515625,2.231844860076904,9.452906704711914,-1.5146318252563475
1759584986546469400,1.746469482421875,2.2432173179626465,9.503184939575196,-1.5390227546691893
1759584986556454400,1.756454345703125,2.261473105621338,9.49360813293457,-1.580771646118164
1759584986566438400,1.7664384765625,2.2918495391845704,9.435548742675781,-1.5913959159851074
1759584986576422400,1.77642236328125,2.2418705795288085,9.406519047546386,-1.5708955642700195
1759584986586406400,1.786406494140625,2.1857564781188965,9.354894074249268,-1.5696984634399413
1759584986596391400,1.796391357421875,2.105700360107422,9.303119463348388,-1.633144807434082
1759584986606375400,1.80637548828125,2.195632559967041,9.260921659088135,-1.7133505630493162
1759584986616359400,1.816359375,2.3035212722778318,9.29548794555664,-1.7706617652893066
1759584986626344400,1.826344482421875,2.2789807052612305,9.362076679229736,-1.8719664230346678
1759584986636328400,1.836328369140625,2.2489035469055176,9.39035818634033,-1.8598457771301269
1759584986646312400,1.8463125,2.1986253120422363,9.450063590240479,-1.7262193969726563
1759584986656296400,1.85629638671875,2.1908441566467283,9.52533130493164,-1.4974235008239745
1759584986666281500,1.866281494140625,2.1767782218933105,9.559897591400146,-1.333719962310791
1759584986676265500,1.876265380859375,2.11961665725708,9.403376657867431,-1.4049474617004394
1759584986686249500,1.88624951171875,2.101809782409668,9.273042304992675,-1.6048633003234862
1759584986696234500,1.896234375,2.1902456062316893,9.279177446746825,-1.675192974090576
1759584986706218500,1.906218505859375,2.281674182128906,9.32810894317627,-1.6511013198852538
1759584986716202500,1.916202392578125,2.3120506156921383,9.373748412322998,-1.6338929954528807
1759584986726187500,1.9261875,2.356492984008789,9.389609998321532,-1.6279074913024902
1759584986736171500,1.936171630859375,2.3728034828186035,9.408763611602783,-1.650353131866455
1759584986746155500,1.946155517578125,2.267009696960449,9.387963984680175,-1.8064251525878905
1759584986756139500,1.956139404296875,2.179770973968506,9.26975027770996,-1.8492215072631835
1759584986766124500,1.96612451171875,2.1441572242736817,9.31434228363037,-1.6717513092041014
1759584986776108500,1.976108642578125,2.1945850967407226,9.443778810882568,-1.4797662635803221
1759584986786092500,1.986092529296875,2.2469582580566403,9.507823705291747,-1.3467384338378905
1759584986796077600,1.99607763671875,2.2942437408447263,9.493757770538329,-1.3533224884033201
1759584986806061600,2.0060615234375,2.3325509674072262,9.43599765548706,-1.56416187210083
1759584986816045600,2.016045654296875,2.1734861946105957,9.299378523254394,-1.8360533981323242
1759584986826030600,2.026030517578125,2.1465514259338376,9.16246011581421,-1.9295769004821777
1759584986836014600,2.0360146484375,2.255637239074707,9.28980171661377,-1.709160710144043
1759584986845998600,2.04599853515625,2.215983274078369,9.40382557067871,-1.4864999557495115
1759584986855982600,2.055982666015625,2.2028151649475096,9.421632445526123,-1.350329736328125
1759584986865967600,2.065967529296875,2.29843359375,9.453056342315673,-1.350180098724365
1759584986875951600,2.07595166015625,2.3110031524658203,9.50572877883911,-1.5693991882324219
1759584986885935600,2.085935546875,2.2566847023010252,9.413402377319336,-1.885284169769287
1759584986895920600,2.095920654296875,2.1748329330444336,9.30850641708374,-2.0425532913208007
1759584986905904600,2.105904541015625,2.1580735214233395,9.335441185760498,-1.9162591537475584
1759584986915888600,2.115888671875,2.2667104217529297,9.312396994781494,-1.638831036376953
1759584986925873400,2.125873291015625,2.3129484413146972,9.289502441406249,-1.3274351829528808
1759584986935857400,2.135857421875,2.2994810569763184,9.284564400482177,-1.1665747589111328
1759584986945841700,2.145841552734375,2.250399922943115,9.313594095611572,-1.3319243110656738
1759584986955825700,2.15582568359375,2.160018810272217,9.330802420043945,-1.707215421295166
1759584986965810400,2.165810546875,2.2110452331542967,9.402029919433593,-2.0287866317749024
1759584986975794400,2.17579443359375,2.2361843505859373,9.487173715972899,-2.0919337005615235
1759584986985778700,2.18577880859375,2.251597023773193,9.490016830444336,-1.8939631507873533
1759584986995763500,2.195763427734375,2.238279277038574,9.36626653213501,-1.6154875701904297
1759584987005747500,2.20574755859375,2.2340894241333005,9.245359348297118,-1.4510358436584472
1759584987015731500,2.2157314453125,2.2381296394348142,9.229348124694823,-1.348384447479248
1759584987025716500,2.225716552734375,2.2481553588867187,9.282319836425781,-1.3703811752319335
1759584987035700500,2.235700439453125,2.2601263671875,9.374197325134277,-1.5065513946533202
1759584987045684500,2.2456845703125,2.2704513618469235,9.467122277069091,-1.6686089195251463
1759584987055668500,2.25566845703125,2.2673089721679687,9.503484214782715,-1.7524059776306151
1759584987065653500,2.265653564453125,2.262670206451416,9.48118821182251,-1.7428291709899901
1759584987075637500,2.275637451171875,2.1787235107421874,9.412504551696777,-1.6651672546386718
1759584987085621500,2.28562158203125,2.107346373748779,9.28202056121826,-1.6223708999633788
1759584987095606500,2.2956064453125,2.1842601020812986,9.209296685791015,-1.5535376022338867
1759584987105590500,2.305590576171875,2.3127988037109373,9.37255131149292,-1.5251064575195312
1759584987115574500,2.315574462890625,2.411409984588623,9.517250874328612,-1.6038158370971678
1759584987125558500,2.32555859375,2.2653636833190918,9.495852696990966,-1.7148469390869139
1759584987135543600,2.33554345703125,2.1110873138427735,9.413103102111815,-1.8918682243347167
1759584987145527600,2.345527587890625,2.186504666137695,9.346215093231201,-1.8516157089233398
1759584987155511600,2.355511474609375,2.244115143585205,9.355791899871825,-1.6027683738708496
1759584987165496600,2.36549658203125,2.224961530303955,9.380182829284667,-1.362450382232666
1759584987175480600,2.37548046875,2.238877827453613,9.348010744476317,-1.2497732666015624
1759584987185464600,2.385464599609375,2.328361114501953,9.348609294891357,-1.3150152618408202
1759584987195449600,2.39544970703125,2.3356933570861815,9.345017992401122,-1.6032172866821288
1759584987205433600,2.40543359375,2.2266075439453124,9.185205031585692,-2.015319247436523
1759584987215417600,2.41541748046875,2.0932804389953614,9.157821350097656,-2.179621336364746
1759584987225401600,2.425401611328125,2.0886416732788087,9.299079248046874,-1.971475429534912
1759584987235386600,2.43538671875,2.240074928283691,9.387814347076416,-1.6277578536987303
1759584987245370600,2.44537060546875,2.2870611358642576,9.437045118713378,-1.3187562019348145
1759584987255354600,2.455354736328125,2.2436662307739255,9.456647644805908,-1.1749544647216796
1759584987265339600,2.465339599609375,2.18321263885498,9.433902729034424,-1.368136611175537
1759584987275323600,2.47532373046875,2.1001637687683106,9.44198315963745,-1.7555483673095702
1759584987285307400,2.485307373046875,2.143857949066162,9.446621925354004,-1.9698294158935545
1759584987295292700,2.495292724609375,2.257432890319824,9.415048390960694,-1.9737199935913086
1759584987305276700,2.505276611328125,2.261922018432617,9.440337145996093,-1.820790362548828
1759584987315260400,2.515260498046875,2.2501006477355956,9.375244788360595,-1.6347908210754394
1759584987325244400,2.525244384765625,2.2393267402648926,9.291597367858886,-1.4938321983337401
1759584987335229700,2.535229736328125,2.1894974182128903,9.247903187561034,-1.3702315376281737
1759584987345213400,2.54521337890625,2.187402491760254,9.288903890991211,-1.3377601776123047
1759584987355197400,2.555197509765625,2.259378179168701,9.406668685150146,-1.4462474403381347
1759584987365182700,2.5651826171875,2.298882506561279,9.431209252166747,-1.6356886466979979
1759584987375166500,2.57516650390625,2.2842180213928223,9.405321946716308,-1.758840394592285
1759584987385150500,2.585150390625,2.24067347869873,9.353996248626709,-1.8173486976623534
1759584987395135700,2.5951357421875,2.140565921783447,9.284564400482177,-1.89620771484375
1759584987405119500,2.605119384765625,2.118120281219482,9.229647399902344,-1.849520782470703
1759584987415102500,2.6151025390625,2.1815666252136228,9.318382498931884,-1.6006734474182127
1759584987425086500,2.62508642578125,2.2569839775085447,9.452158516693114,-1.37906015625
1759584987435071500,2.635071533203125,2.326565463256836,9.513360296630859,-1.3205518531799316
1759584987445055500,2.645055419921875,2.368015079498291,9.483432775878907,-1.5084966835021971
1759584987455039500,2.65503955078125,2.341678861236572,9.400832818603515,-1.7847277000427244
1759584987465024500,2.6650244140625,2.258031440734863,9.369558559417724,-1.9238906715393065
1759584987475008500,2.675008544921875,2.206406467437744,9.336937561798095,-1.8472762184143066
1759584987484992500,2.684992431640625,2.1836615516662596,9.32182416381836,-1.6240169136047362
1759584987494977500,2.6949775390625,2.2231658790588376,9.334393722534179,-1.4362217208862305
1759584987504961500,2.70496142578125,2.2372318138122558,9.30162308731079,-1.4140753555297851
1759584987514945500,2.714945556640625,2.215983274078369,9.262118759918213,-1.6033669242858886
1759584987524929300,2.72492919921875,2.193537633514404,9.296834683990477,-1.772307778930664
1759584987534914600,2.73491455078125,2.2381296394348142,9.393201300811768,-1.7699135772705077
1759584987544898600,2.744898681640625,2.281075631713867,9.452757067108154,-1.673247685241699
1759584987554882300,2.75488232421875,2.2922984519958494,9.443629173278808,-1.5803227333068848
1759584987564867600,2.76486767578125,2.2749404899597168,9.417143317413329,-1.4921861846923827
1759584987574851600,2.7748515625,2.3133973541259762,9.382876306152344,-1.50026661529541
1759584987584835300,2.78483544921875,2.339883209991455,9.450063590240479,-1.5792752700805663
1759584987594820600,2.794820556640625,2.333448793029785,9.502885664367675,-1.7305588874816893
1759584987604804600,2.8048046875,2.333448793029785,9.444377361297606,-1.8716671478271483
1759584987614788400,2.814788330078125,2.2526444869995115,9.398588254547118,-1.9014450309753417
1759584987624772400,2.8247724609375,2.109291662597656,9.381080654907226,-1.8602946899414061
1759584987634757600,2.834757568359375,2.1281460006713866,9.382427393341064,-1.6469114669799805
1759584987644741400,2.844741455078125,2.1775264099121094,9.36566798171997,-1.361103643798828
1759584987654725400,2.854725341796875,2.2526444869995115,9.350554583740234,-1.2195464706420898
1759584987664710400,2.86471044921875,2.2815245445251464,9.29533830795288,-1.3908815269470214
1759584987674694400,2.8746943359375,2.299630694580078,9.294590119934082,-1.6481085678100584
1759584987684678400,2.884678466796875,2.310404602050781,9.336638286590576,-1.8225860137939451
1759584987694663200,2.8946630859375,2.244264781188965,9.370007472229004,-1.868075845336914
1759584987704647400,2.9046474609375,2.251148110961914,9.368062183380127,-1.78757081451416
1759584987714631400,2.91463134765625,2.2088006690979003,9.323619815063475,-1.676539712524414
1759584987724615400,2.924615478515625,2.2076035682678223,9.25104557723999,-1.5049053810119628
1759584987734600200,2.93460009765625,2.2616227432250975,9.234585440826416,-1.3805565322875977
1759584987744584400,2.94458447265625,2.3286603897094724,9.31509047164917,-1.3742717529296875
1759584987754568400,2.954568359375,2.3190835830688474,9.383474856567382,-1.556530354309082
1759584987764553200,2.96455322265625,2.2610241928100585,9.427019399261473,-1.8344073844909667
1759584987774537200,2.974537109375,2.201318788909912,9.44198315963745,-1.9607015220642088
1759584987784521200,2.984521240234375,2.1326351287841794,9.434052366638182,-1.8857330825805663
1759584987794505500,2.99450537109375,2.1555296821594236,9.431209252166747,-1.6549918975830078
1759584987804490200,3.004490234375,2.2349872497558594,9.526378768157958,-1.3555670524597168
1759584987814474200,3.01447412109375,2.3026234466552733,9.447968663787842,-1.227626901245117
1759584987824458200,3.024458251953125,2.2993314193725585,9.294590119934082,-1.4071920257568358
1759584987834443300,3.034443359375,2.222866603851318,9.167248519134521,-1.769165389251709
1759584987844427300,3.04442724609375,2.236034712982178,9.089736240386962,-2.042104378509521
1759584987854411300,3.054411376953125,2.2572832527160642,9.26406404876709,-2.026242792510986
1759584987864396300,3.064396240234375,2.318933945465088,9.425672660827637,-1.8546084609985352
1759584987874380300,3.07438037109375,2.314893730163574,9.433603453826903,-1.6585832000732421
1759584987884364300,3.0843642578125,2.2327426856994625,9.411457088470458,-1.44924019241333
1759584987894349300,3.094349365234375,2.1719898185729978,9.420285707092285,-1.3407529296874998
1759584987904333300,3.104333251953125,2.070984436035156,9.381379930114745,-1.4673463424682616
1759584987914317300,3.1143173828125,2.0706851608276367,9.25762963180542,-1.726369034576416
1759584987924301300,3.12430126953125,2.1517887420654294,9.27588541946411,-1.8332102836608886
1759584987934286300,3.134286376953125,2.230049208831787,9.427169036865234,-1.8032827629089354
1759584987944270300,3.144270263671875,2.3437737876892086,9.501838201141357,-1.7347487403869628
1759584987954254300,3.15425439453125,2.378190436553955,9.476998358917236,-1.707215421295166
1759584987964239400,3.1642392578125,2.283020920562744,9.412504551696777,-1.674594423675537
1759584987974223400,3.174223388671875,2.20236625213623,9.517999062347412,-1.5972317825317381
1759584987984207400,3.184207275390625,2.204461178588867,9.551966798400878,-1.5236100814819336
1759584987994192400,3.1941923828125,2.1894974182128903,9.488969367218017,-1.480514451599121
1759584988004176400,3.20417626953125,2.1761796714782715,9.36581761932373,-1.5604209320068358
1759584988014160400,3.214160400390625,2.1896470558166503,9.27633433227539,-1.6808792030334472
1759584988024144400,3.224144287109375,2.2541408630371094,9.310152430725097,-1.7287632362365721
1759584988034129400,3.23412939453125,2.242918042755127,9.396792603302002,-1.6935983993530273
1759584988044113400,3.244113525390625,2.2074539306640624,9.42971287612915,-1.6053122131347655
1759584988054097400,3.254097412109375,2.1938369087219236,9.405621221923827,-1.4772224243164063
1759584988064082400,3.26408251953125,2.1800702491760253,9.35863501434326,-1.4004583335876464
1759584988074066400,3.27406640625,2.163460475158691,9.304316564178466,-1.435772808074951
1759584988084050400,3.284050537109375,2.1733365570068357,9.293692294311523,-1.5752350547790526
1759584988094035500,3.294035400390625,2.222268053436279,9.319280324554443,-1.793406681060791
1759584988104019500,3.30401953125,2.2786814300537106,9.400234268188475,-1.8772037391662597
1759584988114003500,3.31400341796875,2.2795792556762695,9.489867192840576,-1.8127099319458007
1759584988123987500,3.323987548828125,2.242169854736328,9.52563058013916,-1.6710031211853027
1759584988133972500,3.333972412109375,2.123357597351074,9.543138179779053,-1.502960092163086
1759584988143956500,3.34395654296875,2.0828058067321775,9.673921445465087,-1.28957686920166
1759584988153940500,3.3539404296875,2.1369746192932126,9.647884502410887,-1.1968015548706055
1759584988163925500,3.363925537109375,2.147598889160156,9.578901567077637,-1.3626000198364256
1759584988173909500,3.373909423828125,2.1046528968811034,9.542240354156494,-1.5945383056640625
1759584988183893500,3.3838935546875,2.1068974609374997,9.458592933654785,-1.8160019592285155
1759584988193878500,3.39387841796875,2.0588637901306153,9.458892208862304,-1.8008885612487793
1759584988203862500,3.403862548828125,2.053776111602783,9.455001631164551,-1.68551796875
1759584988213846500,3.413846435546875,2.119018106842041,9.4741552444458,-1.5693991882324219
1759584988223830500,3.42383056640625,2.192789445495605,9.481487487030028,-1.412279704284668
1759584988233815600,3.433815673828125,2.2489035469055176,9.44916576461792,-1.36634095993042
1759584988243799600,3.443799560546875,2.0944775398254394,9.414749115753173,-1.3195043899536132
1759584988253783600,3.453783447265625,2.0014029502868653,9.405621221923827,-1.3236942428588867
1759584988263768300,3.463768310546875,1.961300072479248,9.217975666809082,-1.3857938484191894
1759584988273752600,3.473752685546875,1.937657331085205,9.017760552978515,-1.370081900024414
1759584988283736600,3.483736572265625,1.791461392211914,8.907328001403808,-1.3507786491394043
1759584988293721300,3.493721435546875,1.6309002433776854,8.794501248168945,-1.3376105400085447
1759584988303705300,3.503705322265625,1.6377835731506347,8.688258549499512,-1.230320378112793
1759584988313689300,3.513689453125,1.6210241615295409,8.632294085693358,-1.09819037399292
1759584988323673600,3.523673583984375,1.638232485961914,8.628702783203124,-0.9594763153076171
1759584988333658400,3.533658447265625,1.5881038887023924,8.534431092834472,-0.8764274452209472
1759584988343642400,3.543642333984375,1.5327379753112793,8.26837543334961,-0.9756371765136718
1759584988353626400,3.55362646484375,1.3115735969543456,7.9295958984374995,-1.0746972702026367
1759584988363611400,3.563611328125,1.1420341918945311,7.622090622711181,-1.1409867286682127
1759584988373595400,3.573595458984375,1.0172364303588866,7.296778472137451,-1.162534543609619
1759584988383579400,3.583579345703125,0.9490016830444336,6.923881563568115,-1.1501146224975585
1759584988393564400,3.593564453125,0.9277531433105468,6.6018614402771,-1.0000281059265137
1759584988403548400,3.60354833984375,0.8984241729736328,6.298546017456054,-0.6917746421813964
1759584988413532400,3.613532470703125,0.9003694618225098,5.972784954071044,-0.49200844116210934
1759584988423517200,3.62351708984375,0.7516296836853027,5.599289495086669,-0.38307226562499996
1759584988433502200,3.633502197265625,0.5774515129089355,5.3199160888671875,-0.3151367935180664
1759584988443486200,3.643486328125,0.35613749694824215,4.912452893829346,-0.4595370811462402
1759584988453470200,3.65347021484375,0.23418284988403318,4.4187984390258785,-0.642244595336914
1759584988463455200,3.663455322265625,0.2088940948486328,3.942352308654785,-0.7914332862854003
1759584988473439200,3.673439208984375,0.18390461502075195,3.571400688934326,-0.7621043159484863
1759584988483423200,3.68342333984375,0.24779987182617186,3.234267167663574,-0.7963713272094726
1759584988493408300,3.693408203125,0.24346038131713865,2.8950387199401852,-0.7019499992370605
1759584988503392300,3.703392333984375,0.2651578338623047,2.7602152389526364,-0.5237316131591797
1759584988513376300,3.713376220703125,-0.00029927520751953123,2.662950796508789,-0.19737199935913086
1759584988523360300,3.7233603515625,-0.2745850028991699,2.4595932929992674,0.18315642700195311
1759584988533345300,3.73334521484375,-0.6715735656738281,2.048838070678711,0.4649240348815918
1759584988543329300,3.743329345703125,-1.0911574066162109,1.6648679794311523,0.5614402893066406
1759584988553313300,3.753313232421875,-1.6460136413574218,1.7212813560485838,0.328155265045166
1759584988563298300,3.76329833984375,-1.9831471626281738,2.235735437774658,0.2079962692260742
1759584988573282300,3.7732822265625,-1.9659388381958007,2.993649900817871,0.3603273498535156
1759584988583266300,3.783266357421875,-1.8767548263549803,3.9131729759216305,0.5436334144592285
1759584988593251300,3.793251220703125,-2.1622633743286133,4.690839602661133,0.969801309967041
1759584988603235300,3.8032353515625,-2.596362062835693,5.284152701568603,1.6174328590393066
1759584988613219300,3.81321923828125,-2.8541876541137694,5.765536872863769,2.1410148345947264
1759584988623203300,3.823203369140625,-2.9339444969177246,6.026205578613281,2.1128829650878904
1759584988633188400,3.833188232421875,-3.0099603996276856,6.242880828857421,1.3015478775024414
1759584988643172400,3.84317236328125,-3.163338943481445,6.795791774749755,0.6200982299804687
1759584988653156400,3.85315625,-3.4748844345092773,7.739107228851318,0.41270051116943357
1759584988663141400,3.863141357421875,-3.867683144378662,8.76502264022827,0.5165490081787109
1759584988673125400,3.87312548828125,-4.322880735015869,9.63396820526123,0.7647977928161621
1759584988683109400,3.883109375,-4.578910675048828,10.154407791137695,1.2771569480895995
1759584988693094100,3.89309423828125,-4.988618434143066,10.38709426498413,2.1537340309143067
1759584988703078100,3.903078125,-5.513397510528564,10.577283659362791,2.8508956268310546
1759584988713062400,3.9130625,-6.188263103485107,11.03861639175415,2.8217162940979
1759584988723046400,3.92304638671875,-6.672041476440429,11.894842760467528,2.139967371368408
1759584988733031200,3.93303125,-6.541407848358154,12.6919622756958,1.3863923988342284
1759584988743015200,3.94301513671875,-6.094141050720214,13.350667007446289,1.106420442199707
1759584988752999400,3.95299951171875,-5.56711741027832,13.407678934478758,1.2184990074157713
1759584988762984200,3.962984130859375,-5.281758499908447,13.015927687835692,1.8487725944519042
1759584988772968200,3.97296826171875,-5.644480051422119,12.25098025741577,2.7537808219909667
1759584988782952200,3.9829521484375,-6.634931350708007,11.618761381530762,3.025522710418701
1759584988792937200,3.992937255859375,-8.077288213348389,11.67652149658203,3.0060698219299313
1759584988802921200,4.002921142578125,-8.719832083892822,12.198307820892333,2.8488007003784177
1759584988812905200,4.0129052734375,-8.705616511535643,13.321338037109374,2.861370259094238
1759584988822889200,4.02288916015625,-8.342745322418212,14.886697010040283,3.2441432495117186
1759584988832874200,4.032874267578125,-7.6665329910278315,15.957653340148925,3.385401147460937
1759584988842858200,4.042858154296875,-7.233032852935791,16.282965490722656,3.2814030128479
1759584988852842200,4.05284228515625,-7.370998723602295,15.59672743988037,3.1004911499023438
1759584988862827300,4.0628271484375,-8.056189311218262,14.162750283050537,2.43879366607666
1759584988872811300,4.072811279296875,-9.082703273010253,13.139079435729979,1.6575357368469237
1759584988882795300,4.082795166015625,-9.967510424041748,12.818555688476561,1.2565069587707518
1759584988892780300,4.0927802734375,-10.077344425201415,12.775759333801268,1.3018471527099609
1759584988902764300,4.102764404296875,-9.252691590881348,13.078925119018553,1.9844939010620115
1759584988912748300,4.112748291015625,-7.855525284576416,13.427730373382568,3.082983550262451
1759584988922732300,4.122732177734375,-6.517465831756591,13.478158245849608,4.414458948516845
1759584988932717300,4.13271728515625,-5.5273138076782224,13.47696114501953,5.572803639221191
1759584988942701300,4.142701416015625,-4.940884038543701,13.47052672805786,5.762244845581054
1759584988952685300,4.152685302734375,-3.744381758880615,14.413542906951903,4.48778137435913
1759584988962670300,4.16267041015625,-2.1799206115722654,16.30645859451294,2.47096575088501
1759584988972654300,4.172654296875,-0.5728127471923827,19.394080910491944,0.853532891845703
1759584988982638300,4.182638427734375,0.2123357597351074,20.829255168151853,-0.5000888717651367
1759584988992623400,4.192623291015625,-0.6464344482421874,21.52746422729492,-1.5291466728210448
1759584989002607400,4.202607421875,-2.220921315002441,21.18180136260986,-2.34302559967041
1759584989012591400,4.21259130859375,-3.379864556121826,17.347936316680908,-4.318241969299316
1759584989022575400,4.222575439453125,-5.422866760253906,12.434435959625244,-5.523572867584228
1759584989032560400,4.232560302734375,-6.461651005554199,9.483432775878907,-5.072864405059814
1759584989042544400,4.24254443359375,-4.5863925552368165,6.248866333007812,-4.116231204223633
1759584989052528400,4.2525283203125,-1.2448352256774902,3.5631706207275387,-2.1613655487060544
1759584989062513400,4.262513427734375,0.7023989120483398,2.0073884544372556,0.26740239791870113
1759584989072497400,4.272497314453125,0.2166752502441406,1.871816785430908,2.668038475036621
1759584989082481400,4.2824814453125,-0.7549217109680175,2.7633576286315917,4.725106613922119
1759584989092466400,4.292466552734375,-1.5257050079345702,3.81785382232666,5.456235945892334
1759584989102450400,4.302450439453125,-2.201318788909912,4.920832599639892,5.436334144592285
1759584989112434400,4.312434326171875,-2.1293431015014646,6.4609028175354,5.306598342132568
1759584989122419500,4.32241943359375,-1.0904092185974121,7.9475524108886715,4.358793759918212
1759584989132403500,4.332403564453125,-0.20994155807495116,9.294590119934082,2.851045264434814
1759584989142387500,4.342387451171875,-0.11477204208374023,11.112088455200194,1.4853028549194336
1759584989152371500,4.352371337890625,-0.13826514587402344,12.871976313018799,0.316034619140625
1759584989162356500,4.3623564453125,-0.06913257293701172,14.033613031005858,-0.3028665100097656
1759584989172340500,4.372340576171875,-0.21817162628173828,14.432696520233154,-0.8316858016967773
1759584989182324500,4.382324462890625,-0.09891045608520507,13.537863649749754,-1.6820763038635254
1759584989192309500,4.3923095703125,-0.30316578521728516,12.16299334640503,-2.388964344024658
1759584989202293500,4.40229345703125,-0.5093664031982421,10.631751747131347,-3.0885201416015624
1759584989212277500,4.412277587890625,0.09756371765136718,8.98214680328369,-3.686172731018066
1759584989222262300,4.42226220703125,0.7860463325500487,7.874978173065185,-3.430292428588867
1759584989232246300,4.432246337890625,1.1142015975952149,7.184250994110107,-2.4040777420043944
1759584989242230500,4.44223046875,1.4284405654907226,6.9162500457763665,-1.0152911415100097
1759584989252214500,4.452214599609375,1.8350059349060057,7.3359835243225096,0.21068974609375
1759584989262199300,4.46219921875,1.9156606033325194,7.8258970390319815,0.513256980895996
1759584989272183300,4.472183349609375,1.7450737350463865,8.321496782684326,0.25034371109008785
1759584989282167600,4.48216748046875,1.8529624473571775,8.909722203063964,-0.395192911529541
1759584989292152300,4.49215234375,2.2565350646972653,9.657162033843994,-1.055244381713867
1759584989302136300,4.50213623046875,2.8865093765258787,10.473135887145995,-1.5764321556091307
1759584989312120300,4.512120361328125,3.723133219146728,11.024999369812011,-2.174533657836914
1759584989322105300,4.522105224609375,4.159177196502685,11.07662434310913,-2.6554689163208005
1759584989332089300,4.53208935546875,3.9835026496887203,10.698939031219481,-2.809745285797119
1759584989342073000,4.542072998046875,3.42849677734375,10.004770187377929,-2.5182512336730953
1759584989352057300,4.552057373046875,3.099742961883545,9.406369409942627,-1.9815011489868164
1759584989362042400,4.56204248046875,3.3016040893554686,9.06549494857788,-1.5797241828918456
1759584989372026000,4.572026123046875,3.789572315216064,8.985139555358886,-1.4426561378479004
1759584989382010000,4.582010009765625,4.068496808624268,9.128043466949462,-1.6231190879821777
1759584989391995400,4.591995361328125,4.070442097473144,9.241768045806884,-2.139518458557129
1759584989401979100,4.601979248046875,3.9860464889526366,9.187898508453369,-2.6321254501342772
1759584989411963100,4.611963134765625,3.850325182342529,8.996362375640869,-2.7246014892578123
1759584989421948200,4.6219482421875,3.660285425567627,8.98932940826416,-2.4308628730773925
1759584989431932200,4.63193212890625,3.598185820007324,8.961945726776122,-1.8486229568481445
1759584989441916200,4.641916259765625,3.7063738075256345,8.824728044128417,-1.2981062126159668
1759584989451900200,4.651900146484375,3.7892730400085446,8.728810340118407,-1.0449193870544433
1759584989461885200,4.66188525390625,3.806930277252197,8.707561800384521,-1.1496657096862792
1759584989471869200,4.671869140625,3.722534668731689,8.525153561401366,-1.605761125946045
1759584989481853200,4.681853271484375,3.6002807464599607,8.429235857391356,-2.0661960327148434
1759584989491838200,4.691838134765625,3.608959727478027,8.404994565582275,-2.270152086639404
1759584989501822200,4.701822265625,3.642328913116455,8.31940185623169,-2.2170307373046874
1759584989511806200,4.71180615234375,3.736151690673828,8.321047869873047,-1.9577087699890137
1759584989521791200,4.721791259765625,3.7152024261474605,8.323591709136963,-1.6895581840515135
1759584989531775200,4.731775146484375,3.5805285827636717,8.328529750061035,-1.5803227333068848
1759584989541759200,4.74175927734375,3.4671032791137693,8.38329711303711,-1.5330372505187988
1759584989551743200,4.7517431640625,3.3871967987060545,8.530540515136718,-1.6686089195251463
1759584989561728300,4.761728271484375,3.406051136779785,8.844031295013426,-1.7769465446472168
1759584989571712300,4.771712158203125,3.4249054748535155,9.029881198883055,-1.9999065742492674
1759584989581696000,4.781696044921875,3.3295863212585446,9.082703273010253,-2.402282090759277
1759584989591681300,4.791681396484375,3.1214404144287107,9.03407105178833,-2.1341315048217773
1759584989601665300,4.801665283203125,3.001131781005859,8.850316074371337,-1.7977461715698242
1759584989611649000,4.81164892578125,2.839672806549072,8.82323166809082,-1.333121411895752
1759584989621634300,4.82163427734375,2.586934893798828,9.023147506713867,-0.9721955116271972
1759584989631618300,4.831618408203125,2.4622867698669433,9.35264951019287,-0.9341875602722167
1759584989641602000,4.84160205078125,2.5444378143310544,9.572916062927245,-1.2080243751525879
1759584989651586000,4.8515859375,2.683301510620117,9.662698625183104,-1.3813047203063964
1759584989661571300,4.8615712890625,2.8529905532836914,9.947608622741699,-1.4021043472290038
1759584989671555000,4.87155517578125,2.675669992828369,9.9851676612854,-1.5789759948730469
1759584989681539000,4.8815390625,2.510769353485107,9.285761501312255,-1.7274164978027342
1759584989691524400,4.8915244140625,2.70694425201416,8.844180932617187,-1.412878254699707
1759584989701508000,4.901508056640625,2.6761189056396484,8.684218334197997,-1.1125555839538575
1759584989711492000,4.9114921875,2.9185318237304685,8.329726850891113,-1.0351929428100586
1759584989721477000,4.92147705078125,3.275866421508789,8.33825619430542,-1.0643722755432128
1759584989731461000,4.931461181640625,3.4554315460205074,8.587552442169189,-1.2828431770324706
1759584989741445000,4.941445068359375,3.4762311729431152,8.755745108795166,-1.6627730529785156
1759584989751430100,4.95143017578125,3.424007649230957,8.815899425506592,-2.0100819313049314
1759584989761414100,4.9614140625,3.1856349464416502,8.693944778442383,-2.3514053054809567
1759584989771398100,4.971398193359375,2.990956423950195,8.627056769561767,-2.499546533203125
1759584989781382100,4.981382080078125,2.8886043029785156,8.8489693359375,-2.1733365570068357
1759584989791367200,4.9913671875,2.9589339767456053,9.031826487731934,-1.8427870903015136
1759584989801351200,5.00135107421875,3.1669302459716797,9.120561586761474,-1.652298420715332
1759584989811335200,5.011335205078125,3.439869235229492,9.427617949676513,-1.5906477279663085
1759584989821320000,5.02131982421875,3.603872048950195,9.724648593139648,-1.706467233276367
1759584989831304200,5.03130419921875,3.724629595184326,9.70369932861328,-1.9710265167236327
1759584989841288200,5.0412880859375,3.727771984863281,9.47355669403076,-2.1806687995910643
1759584989851273000,5.05127294921875,3.5296517974853514,9.133729695892333,-2.198326036834717
1759584989861257000,5.061257080078125,3.3590649291992185,8.799738564300537,-1.9856910018920897
1759584989871241200,5.0712412109375,3.2974142364501953,8.674791165161132,-1.8180968856811521
1759584989881225200,5.08122509765625,3.3815105697631833,8.763077351379394,-1.8049287765502928
1759584989891210000,5.0912099609375,3.5625720703124997,8.935160595703124,-1.8580501258850097
1759584989901194000,5.101194091796875,3.647416591644287,9.060556907653808,-2.037764888000488
1759584989911178200,5.11117822265625,3.5549405525207516,9.100360510253905,-2.270301724243164
1759584989921163000,5.1211630859375,3.407846788024902,8.960299713134765,-2.296937217712402
1759584989931147000,5.13114697265625,3.3557729019165037,8.7593364112854,-2.11333187789917
1759584989941131000,5.141131103515625,3.327341757202148,8.614487210845947,-1.799691460418701
1759584989951116000,5.151115966796875,3.3042975662231444,8.520814070892333,-1.5518915885925293
1759584989961100000,5.16110009765625,3.3146225608825683,8.590994107055664,-1.5710452018737793
1759584989971084000,5.171083984375,3.3851018722534176,8.813654861450194,-1.854009910583496
1759584989981068000,5.181068115234375,3.4989760887145995,8.971223258209228,-2.1369746192932126
1759584989991053000,5.191052978515625,3.582773146820068,9.082403997802734,-2.230049208831787
1759584990001037000,5.201037109375,3.502417753601074,9.166649968719481,-2.1811177124023438
1759584990011021000,5.21102099609375,3.3750761528015136,9.134477883911133,-1.9879355659484863
1759584990021006000,5.221006103515625,3.306542130279541,9.11667100906372,-1.6460136413574218
1759584990030990000,5.230989990234375,3.464858715057373,9.11038622970581,-1.4092869522094726
1759584990040974000,5.24097412109375,3.6091093650817867,9.07267755355835,-1.456273159790039
1759584990050959000,5.250958984375,3.5826235092163086,9.100659785461426,-1.7399860565185545
1759584990060943000,5.260943115234375,3.4925416717529294,9.05921016921997,-2.0202572883605954
1759584990070927000,5.270927001953125,3.6138977684020994,8.97646057434082,-2.4245780937194823
1759584990080911000,5.2809111328125,3.895216463470459,8.98319426651001,-2.6158149513244626
1759584990090896100,5.290896240234375,4.024503353118896,9.01386997528076,-2.3255180000305176
1759584990100880100,5.300880126953125,4.042609503173828,8.745420114135742,-1.8145055831909178
1759584990110864100,5.310864013671875,4.069843547058105,8.463652506256103,-1.3456909706115723
1759584990120849200,5.32084912109375,4.095581214904785,8.461856855010986,-1.1384428894042968
1759584990130833200,5.330833251953125,4.153191692352294,8.440757952880858,-1.345840608215332
1759584990140817200,5.340817138671875,4.216338761138916,8.47188257446289,-1.7152958518981933
1759584990150802200,5.35080224609375,4.375104258728027,8.552686880493164,-1.9077298103332518
1759584990160786200,5.3607861328125,4.503792597961426,8.659977042388915,-1.9213468322753906
1759584990170770200,5.370770263671875,4.391863670349121,8.65713392791748,-1.7745523429870604
1759584990180755200,5.380755126953125,4.314650666809082,8.667159647369385,-1.5090952339172363
1759584990190739200,5.3907392578125,4.298190530395508,8.611195183563233,-1.2253823371887207
1759584990200723200,5.40072314453125,4.240729690551758,8.515876029968261,-1.086518640899658
1759584990210707200,5.410707275390625,4.2211271644592285,8.531288703155518,-1.2273276260375976
1759584990220692200,5.420692138671875,4.176535158538818,8.631994810485839,-1.5951368560791015
1759584990230676200,5.43067626953125,4.216189123535156,8.653692263031004,-1.893514237976074
1759584990240660200,5.44066015625,4.355202457427978,8.675240077972411,-1.9170073417663573
1759584990250645200,5.450645263671875,4.350264416503906,8.687809636688232,-1.7238251953125
1759584990260629200,5.460629150390625,4.254945262908936,8.75320126953125,-1.432031867980957
1759584990270613200,5.47061328125,4.1754876953124995,8.724620487213134,-1.1884218490600584
1759584990280598300,5.480598388671875,4.110544975280762,8.779088574981689,-1.0377367820739745
1759584990290582300,5.490582275390625,3.9995138732910154,8.837447240447997,-1.087266828918457
1759584990300566300,5.500566162109375,4.029291756439209,8.81724616394043,-1.3328221366882322
1759584990310550300,5.51055029296875,4.132092790222168,8.846275859069824,-1.559074193572998
1759584990320535300,5.520535400390625,4.212747458648681,8.825925144958495,-1.6771382629394531
1759584990330519300,5.530519287109375,4.147804738616943,8.768913217926025,-1.7344494651794433
1759584990340503300,5.54050341796875,4.043357691192627,8.737040408325194,-1.6295535049438477
1759584990350488000,5.550488037109375,3.953874404144287,8.728511064910888,-1.5189713157653808
1759584990360472300,5.560472412109375,3.969735990142822,8.748712141418457,-1.448641641998291
1759584990370456300,5.570456298828125,3.995324020385742,8.830264635467529,-1.390582251739502
1759584990380441000,5.580441162109375,3.9796120719909664,8.882488159179687,-1.4655506912231444
1759584990390425000,5.590425048828125,3.9146693519592284,8.828618621826172,-1.5322890624999999
1759584990400409300,5.600409423828125,3.882048354339599,8.776395098114014,-1.51942022857666
1759584990410394000,5.61039404296875,3.8802527030944822,8.75305163192749,-1.4377180969238281
1759584990420378000,5.620378173828125,3.8633436538696286,8.749161054229736,-1.2837410026550293
1759584990430361600,5.630361572265625,3.8883331336975093,8.75948604888916,-1.1456254943847655
1759584990440345600,5.640345703125,3.854215760040283,8.790461032867432,-1.121084927368164
1759584990450330400,5.650330322265625,3.828777367401123,8.786720092773438,-1.2044330726623536
1759584990460314600,5.660314697265625,3.8423943893432613,8.78552299194336,-1.3787608810424803
1759584990470298600,5.670298583984375,3.8699277084350583,8.801534215545654,-1.5224129806518554
1759584990480283400,5.680283447265625,3.8429929397583007,8.793603422546386,-1.673247685241699
1759584990490267400,5.690267333984375,3.778798407745361,8.80946500854492,-1.6707038459777832
1759584990500251600,5.700251708984375,3.7536592903137205,8.79749400024414,-1.556380716705322
1759584990510236400,5.710236328125,3.773860366821289,8.738237509155272,-1.415272456359863
1759584990520220400,5.720220458984375,3.802590786743164,8.716540056610107,-1.2690765174865721
1759584990530204400,5.730204345703125,3.8030396995544433,8.750956705474852,-1.225232699584961
1759584990540188700,5.740188720703125,3.7612908081054686,8.813954136657715,-1.3148656242370604
1759584990550173400,5.75017333984375,3.7793969581604,8.77834038696289,-1.4983213264465332
1759584990560157400,5.760157470703125,3.900154504394531,8.82323166809082,-1.6575357368469237
1759584990570141400,5.770141357421875,3.961655559539795,8.897451919555664,-1.7573440185546874
1759584990580126500,5.78012646484375,4.0063972030639645,8.865728747558594,-1.7411831573486327
1759584990590110500,5.7901103515625,3.9056910957336424,8.826224420166016,-1.7079636093139647
1759584990600094500,5.800094482421875,3.8859389320373534,8.65159733657837,-1.6627730529785156
1759584990610079500,5.81007958984375,3.9565678810119627,8.444947805786132,-1.478569162750244
1759584990620063500,5.8200634765625,3.8673838691711424,8.47876590423584,-1.3446435073852538
1759584990630047500,5.830047607421875,3.972279829406738,8.628702783203124,-1.4504372932434082
1759584990640031200,5.84003125,4.11757794265747,8.808716820526122,-1.4885948822021484
1759584990650016500,5.8500166015625,4.302530020904541,9.026289896392822,-1.5547347030639647
1759584990660000300,5.860000244140625,4.267514821624756,9.083451461029052,-1.6585832000732421
1759584990669984300,5.869984375,4.088697885131836,8.965836304473877,-1.7700632148742674
1759584990679969500,5.879969482421875,3.9537247665405273,8.851213899993896,-1.8631378044128417
1759584990689953300,5.889953369140625,3.8832454551696776,8.801534215545654,-1.773504879760742
1759584990699937300,5.899937255859375,3.9573160690307616,8.703222309875487,-1.5881038887023924
1759584990709922600,5.909922607421875,4.06041637802124,8.692747677612305,-1.3959692054748534
1759584990719906300,5.91990625,4.03512762298584,8.783278427886962,-1.2835913650512694
1759584990729890300,5.929890380859375,4.019714949798583,8.941894287872314,-1.313818161010742
1759584990739874300,5.939874267578125,3.995324020385742,9.047239160919188,-1.4695909065246582
1759584990749859300,5.949859375,4.005649015045166,8.950124356079101,-1.62805712890625
1759584990759843300,5.95984326171875,3.914968627166748,8.789712844848632,-1.726369034576416
1759584990769827300,5.969827392578125,3.8398505500793454,8.686313260650634,-1.6935983993530273
1759584990779812400,5.979812255859375,3.7647324729919434,8.676886091613769,-1.5604209320068358
1759584990789796400,5.98979638671875,3.838952724456787,8.694842604064942,-1.3896844261169432
1759584990799780400,5.9997802734375,3.972279829406738,8.729408890533447,-1.2569558715820313
1759584990809765400,6.009765380859375,3.9873932273864745,8.845378033447265,-1.247528702545166
1759584990819749400,6.019749267578125,4.001010249328613,8.895356993103027,-1.3385083656311034
1759584990829733400,6.0297333984375,4.022707701873779,8.879196131896972,-1.4531307701110838
1759584990839718400,6.039718505859375,3.9709330909729004,8.881590333557128,-1.3199533027648924
1759584990849702400,6.049702392578125,3.9543233169555663,8.745270476531982,-1.7600374954223632
1759584990859686400,6.059686279296875,3.8262335281372066,8.725219037628174,-1.9883844787597655
1759584990869670400,6.06967041015625,3.789721952819824,8.783727340698242,-1.7577929313659666
1759584990879655400,6.079655517578125,3.9360675292968748,8.70262375946045,-1.515679288482666
1759584990889639400,6.089639404296875,4.004152639007568,8.678532105255126,-1.257105509185791
1759584990899623400,6.09962353515625,4.043806604003906,8.739733885192871,-1.2057798110961913
1759584990909608400,6.1096083984375,4.032434146118164,8.805125518035888,-1.421856510925293
1759584990919592400,6.119592529296875,4.034229797363281,8.867075485992432,-1.6313491561889648
1759584990929576400,6.129576416015625,3.9924809059143063,8.940547549438476,-1.764676261138916
1759584990939561500,6.1395615234375,3.937563905334472,8.882637796783447,-1.865382368469238
1759584990949545500,6.14954541015625,3.8625954658508297,8.832958112335204,-1.8659809188842773
1759584990959529500,6.159529541015625,3.8602012641906738,8.794501248168945,-1.7143980262756346
1759584990969513500,6.169513427734375,3.930680575561523,8.705466873931885,-1.463306127166748
1759584990979498500,6.17949853515625,3.925293621826172,8.664765445709229,-1.2779051361083984
1759584990989482500,6.189482421875,3.9835026496887203,8.719233533477782,-1.2638392013549804
1759584990999466500,6.199466552734375,4.016572560119629,8.79779327545166,-1.397465581512451
1759584991009451300,6.209451171875,4.025999729156494,8.837896153259276,-1.5824176597595214
1759584991019435500,6.219435546875,4.032434146118164,8.971971446228027,-1.3013982398986816
1759584991029419500,6.22941943359375,4.022857339477539,8.895506630706787,-1.2984054878234863
1759584991039404300,6.239404296875,3.851073370361328,8.67000276184082,-1.786224076080322
1759584991049388300,6.24938818359375,3.672256433868408,8.627655319976807,-2.13862063293457
1759584991059372500,6.25937255859375,3.7645828353881834,8.659228854370117,-2.146401788330078
1759584991069356500,6.2693564453125,3.9284360115051267,8.766818291473388,-1.7127520126342772
1759584991079341300,6.27934130859375,4.00340445098877,8.770559231567383,-1.4450503395080565
1759584991089325300,6.2893251953125,3.982604824066162,8.786720092773438,-1.4094365898132324
1759584991099309600,6.2993095703125,3.968538889312744,8.850764987182616,-1.5644611473083496
1759584991109294300,6.30929443359375,4.0164229225158685,8.890867864990234,-1.6722002220153807
1759584991119278300,6.3192783203125,3.95821389465332,8.875455191802978,-1.7099088981628416
1759584991129262300,6.329262451171875,3.87516502456665,8.807070806884765,-1.7518074272155761
1759584991139247400,6.339247314453125,3.917961379241943,8.72162773513794,-1.7591396697998045
1759584991149231400,6.3492314453125,3.933374052429199,8.661922331237793,-1.701978105163574
1759584991159215400,6.35921533203125,3.9062896461486813,8.621819453430176,-1.656039360809326
1759584991169200400,6.369200439453125,3.94549469833374,8.659977042388915,-1.587206063079834
1759584991179184400,6.379184326171875,4.019415674591064,8.729857803344727,-1.5854104118347168
1759584991189168400,6.38916845703125,3.99038597946167,8.809764283752441,-1.606359676361084
1759584991199152400,6.39915234375,3.9249943466186523,8.837297602844238,-1.661875227355957
1759584991209137400,6.409137451171875,3.9508816520690915,8.981398615264892,-1.2400468223571777
1759584991219121400,6.419121337890625,3.95821389465332,8.86213744506836,-1.3705308128356932
1759584991229105400,6.42910546875,3.8507740951538083,8.683769421386717,-1.7886182777404784
1759584991239090400,6.43909033203125,3.8132150566101073,8.554033618927,-2.066046395111084
1759584991249074400,6.449074462890625,3.8711248092651367,8.499715168762206,-2.0483891578674314
1759584991259058400,6.459058349609375,3.9591117202758785,8.697536080932617,-1.7796400215148924
1759584991269043500,6.46904345703125,3.993229093933105,8.780435313415527,-1.691204197692871
1759584991279027500,6.47902734375,3.901950155639648,8.904784162139892,-1.6431705268859862
1759584991289011500,6.489011474609375,3.9107787742614746,8.94443812713623,-1.6958429634094236
1759584991298995500,6.498995361328125,3.9586628074645995,8.93800371017456,-1.6748936988830565
1759584991308980500,6.50898046875,3.899555953979492,8.926631252288818,-1.6576853744506834
1759584991318964500,6.518964599609375,3.8298248306274414,8.79090994567871,-1.7815853103637693
1759584991328948500,6.528948486328125,3.794360718536377,8.585756790924071,-1.9168577041625976
1759584991338933500,6.53893359375,3.808127378082275,8.541164785003662,-1.8164508720397947
1759584991348917500,6.54891748046875,3.8576574249267575,8.609848445129394,-1.6566379112243652
1759584991358901500,6.558901611328125,3.905990370941162,8.690952026367187,-1.573738678741455
1759584991368886500,6.568886474609375,3.9662943252563476,8.834604125976561,-1.6304513305664061
1759584991378870500,6.57887060546875,3.9993642356872554,8.890269314575194,-1.7464204734802244
1759584991388854500,6.5888544921875,3.9727287422180173,8.98364317932129,-1.5798738204956053
1759584991398839600,6.598839599609375,3.9728783798217773,8.849418248748778,-1.5396213050842285
1759584991408823600,6.608823486328125,3.7714661651611325,8.568099553680419,-2.0594623405456542
1759584991418807600,6.6188076171875,3.5933974166870115,8.660425955200195,-2.320879234313965
1759584991428792600,6.62879248046875,3.686172731018066,8.836250139617919,-2.0322282966613767
1759584991438777300,6.63877734375,3.872022634887695,8.787468280792236,-1.631798069000244
1759584991448761300,6.64876123046875,3.865139305114746,8.805873706054687,-1.4564227973937987
1759584991458745600,6.65874560546875,3.9414544830322265,8.820388553619384,-1.5770307060241697
1759584991468730400,6.66873046875,3.943699047088623,8.838045790863037,-1.8463783927917479
1759584991478714400,6.67871435546875,3.9344215156555173,8.79749400024414,-2.108543474578857
1759584991488698400,6.688698486328125,3.8811505287170407,8.761431337738037,-2.2074539306640624
1759584991498683400,6.698683349609375,3.797802383422851,8.734047656249999,-2.122908684539795
1759584991508667400,6.70866748046875,3.8323686698913573,8.648155671691894,-1.9008464805603027
1759584991518651400,6.7186513671875,3.8269817161560056,8.632593360900879,-1.5683517250061034
1759584991528635400,6.728635498046875,3.840898013305664,8.649502410125733,-1.4329296936035156
1759584991538620400,6.738620361328125,3.831470844268799,8.709806364440917,-1.4832079284667967
1759584991548604400,6.7486044921875,3.912873700714111,8.813205948638915,-1.689258908843994
1759584991558588400,6.75858837890625,3.978564608764648,8.882039246368407,-2.009184105682373
1759584991568573400,6.768573486328125,3.93891064376831,8.831910649108886,-2.1486463523864745
1759584991578557400,6.778557373046875,3.831919757080078,8.809165733337402,-2.0513819099426267
1759584991588541400,6.78854150390625,3.7831378982543944,8.807070806884765,-2.108693112182617
1759584991598526500,6.7985263671875,3.7677252250671383,8.922890312194824,-1.9054852462768554
1759584991608510500,6.808510498046875,3.8908769729614257,8.87485664138794,-1.682824491882324
1759584991618494500,6.818494384765625,3.8741175613403316,8.879196131896972,-1.6127940933227538
1759584991628478200,6.828478271484375,3.8371570732116695,8.881141420745848,-1.7483657623291016
1759584991638463500,6.83846337890625,3.826682440948486,8.804078054809569,-1.9208979194641111
1759584991648447500,6.848447509765625,3.942950859069824,8.784176253509521,-1.9773112960815429
1759584991658431200,6.85843115234375,3.8935704498291015,8.79809255065918,-2.0081366424560545
1759584991668416500,6.86841650390625,3.8028900619506834,8.73958424758911,-2.037914525604248
1759584991678400500,6.878400390625,3.759644794464111,8.706813612365723,-1.9355624046325683
1759584991688384300,6.88838427734375,3.8009447731018065,8.674491889953613,-1.7245733833312988
1759584991698369500,6.89836962890625,3.84329221496582,8.726266500854491,-1.5676035369873047
1759584991708353300,6.908353271484375,3.9399581069946286,8.77863966217041,-1.6310498809814453
1759584991718337300,6.918337158203125,3.9050925453186034,8.794650885772704,-1.8160019592285155
1759584991728322600,6.928322509765625,3.818302735137939,8.796596174621582,-1.9909283180236814
1759584991738306300,6.938306396484375,3.793612530517578,8.774898722076415,-2.0307319206237793
1759584991748290300,6.948290283203125,3.7969045578002927,8.771307419586181,-1.9566613067626952
1759584991758274300,6.9582744140625,3.806331726837158,8.662520881652831,-1.8094179046630858
1759584991768259300,6.96825927734375,3.8206969367980954,8.608950619506835,-1.631798069000244
1759584991778243300,6.978243408203125,3.847930980682373,8.673893339538573,-1.5803227333068848
1759584991788227300,6.988227294921875,3.8901287849426267,8.749011416625976,-1.693149486541748
1759584991798212400,6.99821240234375,3.976619319915771,8.832060286712647,-1.8474258560180663
1759584991808196400,7.0081962890625,3.9963714836120605,8.878747219085692,-2.013523596191406
1759584991818180400,7.018180419921875,3.9254432594299313,8.884134172821044,-2.0115783073425293
1759584991828165400,7.028165283203125,3.8500259071350094,8.857947592163086,-1.7592893074035643
1759584991838149400,7.0381494140625,3.838803086853027,8.769062855529784,-1.7431284461975096
1759584991848133400,7.04813330078125,3.831919757080078,8.660575592803955,-2.002749688720703
1759584991858117400,7.058117431640625,3.7810429718017575,8.668356748199463,-1.9856910018920897
1759584991868102400,7.068102294921875,3.860650177001953,8.597428524017333,-1.78113639755249
1759584991878086400,7.07808642578125,3.893271174621582,8.670900587463379,-1.7809867599487303
1759584991888070400,7.0880703125,3.866336405944824,8.849567886352538,-1.8683751205444334
1759584991898055400,7.098055419921875,3.8516719207763668,8.935010958099365,-1.6512509574890135
1759584991908039400,7.108039306640625,3.905990370941162,8.883984535217285,-1.8026842124938964
1759584991918023400,7.1180234375,3.891176248168945,8.853009551239014,-2.192939083099365
1759584991928008200,7.12800830078125,3.7901708656311035,8.88607946166992,-2.353350594329834
1759584991937992400,7.137992431640625,3.7773020317077632,8.803629141998291,-2.1616648239135743
1759584991947976400,7.1479765625,3.8199487487792965,8.65040023574829,-1.9217957450866698
1759584991957961200,7.157961181640625,3.821145849609375,8.603862940979003,-1.7727566917419433
1759584991967945200,7.1679453125,3.84329221496582,8.642918355560303,-1.7580922065734863
