time,seconds_elapsed,z,y,x
1758278012412786700,12.49278662109375,0.977432827758789,14.801403575897217,1.5942390304565428
1758278012422871800,12.502871826171877,1.035492218017578,14.591162742614744,1.4217068733215332
1758278012432956700,12.512956787109376,1.1406874534606932,14.089427857208252,1.3051391799926757
1758278012443041800,12.523041748046875,1.262193187713623,13.235595690155028,1.3473369842529297
1758278012453127000,12.533126953125,1.5251064575195312,12.11032090988159,1.4332289688110351
1758278012463211800,12.543211669921876,1.9393033447265624,10.882245095825194,1.528398484802246
1758278012473298000,12.5532978515625,2.3925556465148925,9.836577520751952,1.639579224395752
1758278012483382800,12.5633828125,2.72609786529541,9.02688844680786,1.7003320915222166
1758278012493468000,12.573468017578126,2.9685107833862303,8.659378491973877,1.7847277000427244
1758278012503553000,12.583552978515623,3.060537909698486,8.800187477111816,2.025045691680908
1758278012513638000,12.593637939453124,2.8350340408325194,9.50004254989624,2.5315689804077146
1758278012523723000,12.603722900390624,2.377142973327637,10.456376475524902,3.434033368682861
1758278012533807900,12.613807861328125,1.91551096572876,11.228506510925293,4.528183527374267
1758278012543892700,12.623892822265624,1.6226701751708985,11.572074449157714,5.358672228240967
1758278012553977600,12.6339775390625,1.5783774444580077,11.476904933166503,5.594501091766357
1758278012564062700,12.644062744140625,1.6412252380371093,11.091288828277587,5.331587821960449
1758278012574147600,12.654147705078126,1.6603788513183593,10.62232457809448,4.780921440124511
1758278012584232700,12.664232666015623,1.699583903503418,10.229076955413818,4.233696723175049
1758278012594317800,12.67431787109375,1.6654665298461913,9.9208234916687,3.809474116516113
1758278012604402700,12.684402587890624,1.6864157943725584,9.635614218902589,3.4241572868347165
1758278012614487800,12.69448779296875,1.6757915245056152,9.351901322174072,3.2495302032470703
1758278012624572700,12.70457275390625,1.6564882736206057,9.02195040588379,3.227832750701904
1758278012634657800,12.71465771484375,1.6689081947326658,8.61284119720459,3.201346894836425
1758278012644742700,12.72474267578125,1.5598223815917969,8.2360537109375,3.2338182548522947
1758278012654827800,12.734827880859376,1.4047978240966796,8.033444395446777,3.3188124137878416
1758278012664912600,12.74491259765625,1.1719617126464843,7.933935388946533,3.565564822387695
1758278012674997800,12.754997802734374,0.8342296409606933,7.675062334442138,3.931578401184082
1758278012685083000,12.765082763671876,0.505026912689209,7.268197689819336,4.099471792602539
1758278012695167700,12.775167724609377,0.1228524726867675,6.951414882659912,4.090493536376953
1758278012705252900,12.7852529296875,-0.2890998504638671,6.799831990051269,3.948038537597656
1758278012715338800,12.7953388671875,-0.572663109588623,6.731597242736816,3.6583401367187496
1758278012725423900,12.805423828125,-0.722749626159668,6.770203744506835,3.1866824096679687
1758278012735509000,12.815509033203124,-0.8104372619628906,6.990021384429931,2.832190926361084
1758278012745593900,12.82559375,-0.8363245674133301,7.174374912261962,2.607285607910156
1758278012755679000,12.835678955078125,-0.896329246520996,7.222558220672607,2.293345915222168
1758278012765763800,12.845763916015626,-0.9564835632324218,7.212532501220703,1.7845780624389649
1758278012775849000,12.855848876953123,-0.9118915573120115,7.124096677398681,1.2431892120361328
1758278012785933800,12.865933837890625,-0.8667010009765624,7.021744556427001,0.7812579292297362
1758278012796019000,12.87601904296875,-0.8424597091674804,6.932410906982422,0.4221276802062988
1758278012806103800,12.886103759765623,-0.7773673515319823,6.966229005432129,0.0466869323730468
1758278012816189000,12.89618896484375,-0.8104372619628906,7.224503509521484,-0.1575683967590332
1758278012826273800,12.906273681640624,-0.8264484855651855,7.748684035491943,-0.270694425201416
1758278012836359000,12.91635888671875,-0.619948592376709,8.609249894714354,-0.3420715621948242
1758278012846443800,12.92644384765625,-0.3618237258911133,9.709834470367433,-0.3787327751159667
1758278012856528600,12.936528564453123,-0.0544680877685546,10.488548560333252,-0.5446808776855468
1758278012866613800,12.94661376953125,0.4623801956176757,10.74472813796997,-0.6938695686340332
1758278012876698600,12.95669873046875,1.1719617126464843,10.531793827819824,-0.8635586112976074
1758278012886783700,12.96678369140625,1.7473182991027831,10.007014751434326,-0.9317933586120604
1758278012896868600,12.97686865234375,2.1562778701782226,9.713276135253906,-0.9038111267089844
1758278012906953700,12.98695361328125,2.5800515640258785,10.058789362335204,-0.7263409286499023
1758278012917038800,12.997038818359377,2.804507969665527,10.902446172332764,-0.2774281173706054
1758278012927123700,13.007123779296874,3.097049485015869,12.067973468017575,0.3929483474731445
1758278012937209900,13.0172099609375,3.404105847930908,13.21689098968506,1.202936696624756
1758278012947294700,13.027294677734377,3.413981929779053,13.865270726776124,1.9346645790100097
1758278012957379600,13.037379638671876,3.56885684967041,13.976601103973389,2.243366955566406
1758278012967464700,13.047464599609375,3.9996635108947753,14.098555751037598,2.031929021453857
1758278012977549800,13.0575498046875,4.2868180725097655,14.77312206878662,1.4713865577697751
1758278012987634700,13.067634765625,4.320486533355712,15.03423968734741,0.7432499778747558
1758278012997719800,13.0777197265625,4.395155697631836,14.169483975219723,0.0544680877685546
1758278013007804700,13.0878046875,4.227711219024658,12.496984477996826,-0.5521627578735351
1758278013017889800,13.097889892578126,3.5199253532409664,10.792911446380614,-1.0727519813537596
1758278013027974700,13.107974609375,2.4775498054504395,9.561543605041503,-1.3961188430786131
1758278013038059800,13.118059814453124,1.3440449569702149,9.118466660308837,-1.6144401069641112
1758278013048144600,13.12814453125,0.5687725318908691,9.520542901611329,-1.9590555084228516
1758278013058229800,13.138229736328125,0.2280477081298828,10.359411308288571,-2.0323779342651367
1758278013068315000,13.14831494140625,0.2959831802368164,10.953023682403565,-1.5536872398376464
1758278013078399700,13.158399658203123,0.7175123100280761,11.013177999114989,-0.8420107963562011
1758278013088484900,13.16848486328125,1.3729250144958496,10.87281792678833,-0.2914940521240234
1758278013098569700,13.17856982421875,1.912817488861084,10.87805524291992,0.0043394905090332
1758278013108654800,13.18865478515625,2.0554221252441405,10.871022275543211,0.1626560752868652
1758278013118739700,13.19873974609375,2.133233679199219,10.68726729812622,0.197222361755371
1758278013128824800,13.208824951171875,2.379836450195312,10.19645595779419,0.1331774673461914
1758278013138909700,13.21890966796875,2.71322903137207,9.500790737915038,0.1331774673461914
1758278013148994600,13.22899462890625,3.1114146949768067,8.743774100494385,0.3151367935180664
1758278013159080700,13.239080810546875,3.4386721343994138,8.068459594726562,0.7579144630432129
1758278013169165600,13.24916552734375,3.677942662811279,7.525873643493652,1.2963105613708494
1758278013179250700,13.259250732421876,3.755454941558838,7.066785475158691,1.6609774017333985
1758278013189335600,13.26933544921875,3.7963060073852537,6.747309191131591,1.874360624694824
1758278013199420700,13.279420654296874,3.7202901046752928,6.440701741027832,1.9399018951416012
1758278013209505800,13.289505859375,3.540874617767334,6.077531276702881,1.7565958305358886
1758278013219590700,13.299590576171877,3.4208652595520017,5.711218422698974,1.457470260620117
1758278013229675800,13.30967578125,3.5007717399597165,5.418527269744873,1.1098621070861816
1758278013239760600,13.3197607421875,3.573046702575684,5.230133526611328,0.7923311119079589
1758278013249845800,13.329845703125,3.4124855537414547,5.110124168395996,0.4640262092590331
1758278013259930600,13.3399306640625,3.26224939956665,5.034257903289794,0.1836053398132324
1758278013270015700,13.350015625,3.31357509765625,5.150227046203613,0.0103249946594238
1758278013280100600,13.3601005859375,3.4371757583618163,5.473893183135986,-0.063147068786621
1758278013290185700,13.370185791015626,3.538480416107177,5.832424881744385,-0.017208324432373
1758278013300270800,13.380270751953123,3.776853118896484,6.0142345703125,0.1256955871582031
1758278013310355700,13.390355712890624,4.087949697113037,6.051195058441162,0.3253121505737305
1758278013320440800,13.40044091796875,4.349516228485107,6.106261696624755,0.510114591217041
1758278013330525700,13.410525634765625,4.689492864227295,6.21175620727539,0.7231985389709472
1758278013340610800,13.42061083984375,5.105036489868164,6.482450632476806,1.0040683212280272
1758278013350696400,13.430696533203124,5.326350505828857,6.851756238555907,1.407790576171875
1758278013360781600,13.440781494140625,5.161449866485596,7.1589622390747065,1.8628385292053224
1758278013370866700,13.45086669921875,5.123591552734375,7.508066768646239,2.120813758087158
1758278013380951600,13.46095166015625,5.270236404418945,8.003217599487304,2.232144135284424
1758278013391036700,13.47103662109375,5.238513232421875,8.73285055541992,2.252494849395752
1758278013401121500,13.48112158203125,4.96647206878662,9.361178853607177,2.179022785949707
1758278013411206700,13.49120654296875,4.771643908691406,9.588478373718262,2.1039047088623044
1758278013421291500,13.50129150390625,4.9066170272827145,9.290549904632568,1.923142483520508
1758278013431376600,13.511376708984375,5.183296956634521,9.159766638946532,1.5150807380676268
1758278013441461500,13.52146142578125,5.569212336730956,9.592967501831057,1.207425824737549
1758278013451546600,13.531546630859374,5.886892969512939,9.815927531433104,1.2535142066955565
1758278013461631700,13.5416318359375,6.2122051200866695,9.342773428344726,1.499518427276611
1758278013471716600,13.551716552734376,6.611288609313965,8.547748839569092,1.7251719337463378
1758278013481801700,13.5618017578125,6.8870707130432125,7.962516171264648,1.8243816650390623
1758278013491886600,13.571886474609377,6.911461642456055,8.122029856872558,1.836203035736084
1758278013501971700,13.5819716796875,6.875398979949951,9.13612389755249,1.9940707077026365
1758278013512056600,13.592056640625,6.682965021514892,10.066869792938231,2.463483870697021
1758278013522142700,13.602142822265623,6.516717643737793,10.0602857383728,3.1675287963867187
1758278013532227800,13.612227783203124,6.661117931365967,9.386317971038816,3.571251051330566
1758278013542312700,13.622312744140626,6.620865415954589,9.202562993621823,3.567659748840332
1758278013552397800,13.632397705078125,6.001964286804199,10.0234748878479,3.547009759521484
1758278013562482700,13.642482666015624,5.481973613739013,10.53284129104614,3.7825393478393554
1758278013572567800,13.65256787109375,5.595698192596435,9.925312619781494,4.192247106933594
1758278013582652700,13.662652587890625,5.817910034179687,8.920196835327149,4.469824861907958
1758278013592737800,13.67273779296875,5.335179124450684,8.05633894882202,4.518457083129882
1758278013602822700,13.68282275390625,4.823418519592285,7.523030529022217,4.246715194702148
1758278013612907800,13.69290771484375,4.8512511138916015,7.415740367126465,4.085256220245361
1758278013622992600,13.70299267578125,5.0562546310424805,7.63570764465332,4.25225178604126
1758278013633077500,13.713077392578125,4.857236618041992,8.118438554382324,4.478653480529785
1758278013643162600,13.72316259765625,4.436156401062012,8.739135334777831,4.595969361877441
1758278013653247500,13.73324755859375,4.3348517433166505,9.16799670715332,4.628889634704589
1758278013663332600,13.74333251953125,4.409820182800293,9.33364553451538,4.371812231445312
1758278013673417500,13.75341748046875,4.426130681610108,9.584737433624268,3.788973764801025
1758278013683503600,13.763503662109375,4.338293408203125,9.90795465774536,3.17920052947998
1758278013693588700,13.773588623046876,4.378845198822021,10.013149893188476,2.6861446250915524
1758278013703673600,13.783673583984376,4.539855260467529,9.60867945022583,2.3382371963500974
1758278013713758700,13.7937587890625,4.740818562316894,8.881889608764649,2.0962731910705563
1758278013723843600,13.803843505859374,4.8506525634765625,8.153304116058349,1.94079972076416
1758278013733928700,13.8139287109375,4.763563478088378,7.457189983367919,1.9228432083129885
1758278013744013800,13.824013916015623,4.710591766357422,6.892607304382324,2.054374662017822
1758278013754098700,13.8340986328125,4.614075511932373,6.407631830596923,2.244713694000244
1758278013764183800,13.844183837890624,4.499902020263671,6.049249769592285,2.4513632247924804
1758278013774268700,13.8542685546875,4.440196616363525,5.788431426239013,2.6261399459838866
1758278013784353800,13.864353759765624,4.336348119354248,5.612607241821289,2.766200743103027
1758278013794438700,13.874438720703123,4.189254354858398,5.50337179107666,2.7825112419128417
1758278013804523800,13.884523681640625,4.145709812164307,5.530007284545898,2.712630480957031
1758278013814608600,13.894608642578126,4.111891713714599,5.673659384155273,2.602197929382324
1758278013824694500,13.904694580078123,4.027047192382812,5.877615438079833,2.464980246734619
1758278013834779600,13.914779541015625,3.955969330596924,6.065260993194579,2.329857490539551
1758278013844864500,13.924864501953126,3.8488288063049314,6.1364884925842285,2.1683985160827635
1758278013854949600,13.93494970703125,3.787028475952148,6.165218912506103,2.0169652610778805
1758278013865034500,13.945034423828124,3.694552436828613,6.226869605255127,1.868824033355713
1758278013875119600,13.95511962890625,3.5416228057861328,6.375010832977295,1.7516577896118164
1758278013885204700,13.965204833984377,3.507056519317626,6.594080284881591,1.7471686614990234
1758278013895289600,13.97528955078125,3.412635191345214,6.833949363708496,1.8564041122436523
1758278013905374700,13.985374755859375,3.331980522918701,7.097311546325683,2.0579659645080564
1758278013915459600,13.99545947265625,3.328688495635986,7.406313198089599,2.250250285339355
1758278013925544700,14.005544677734376,3.417423594665528,7.735366288757324,2.405723755645752
1758278013935629600,14.015629638671877,3.6745009979248047,8.134898690795898,2.503736386108398
1758278013945714700,14.025714599609374,4.0520366722106935,8.63109698486328,2.4793454566955564
1758278013955801000,14.035801025390626,4.649389986419678,8.913612780761719,2.495506317901611
1758278013965886000,14.045885986328123,5.4798786872863765,8.61329011001587,2.5745149726867678
1758278013975971000,14.05597119140625,6.158185945129394,7.66787972946167,2.6013001037597654
1758278013986056200,14.06605615234375,6.41002603225708,6.733542531585693,2.438195115661621
1758278013996141000,14.07614111328125,6.298994930267334,6.570287905883789,2.201618064117432
1758278014006226200,14.08622607421875,6.166116738128662,7.2635589241027825,2.0772692153930663
1758278014016311000,14.09631103515625,6.130203713226318,8.451681497955322,2.1253028861999512
1758278014026396200,14.106396240234377,6.0908490234375,9.771335525512695,2.252943762207031
1758278014036481000,14.11648095703125,6.114192489624023,10.978312437438964,2.464830609130859
1758278014046566000,14.12656591796875,6.1741971687316894,12.11795242767334,2.7959786262512205
1758278014056650800,14.136650634765624,6.037578036499023,12.754361156463622,3.2213983337402343
1758278014066735900,14.14673583984375,6.423643054199219,12.898013256072998,3.377470354461669
1758278014076821000,14.156821044921877,7.00318949356079,12.923002735900878,3.1649849571228024
1758278014086907000,14.166906982421876,7.255927406311034,12.209829916381835,2.743455827331543
1758278014096992000,14.176991943359376,7.1775173019409175,10.869376261901856,2.0771195777893063
1758278014107076900,14.187076904296877,6.663661770629883,9.57620809020996,1.4291887535095211
1758278014117162000,14.197161865234374,5.82883357925415,8.539967684173584,0.9787795661926268
1758278014127246800,14.207246826171875,5.078700271606445,7.8782702003479,0.4544494026184081
1758278014137332000,14.21733203125,4.219630788421631,7.78205322113037,0.1041477722167968
1758278014147417000,14.2274169921875,3.7755063804626463,8.327781562042237,0.118064069366455
1758278014157502000,14.237501953125,3.783287535858154,9.476399808502196,0.7540238853454589
1758278014167587000,14.247587158203125,3.934122240447998,10.260650489807128,1.8523638969421383
1758278014177672000,14.257671875,4.258985478210449,10.294318950653077,2.705148600769043
1758278014187757000,14.267757080078123,4.6627077331542965,10.102483542633056,2.680608033752441
1758278014197843200,14.27784326171875,5.078400996398925,9.950152462005615,2.1517887420654294
1758278014207928000,14.287927978515626,5.303755227661132,9.979930345153807,1.4688427185058592
1758278014218013000,14.298012939453123,5.2645501754760735,9.913042336273191,1.0703577796936037
1758278014228097800,14.308097900390624,5.180753117370605,9.43719475631714,1.119139638519287
1758278014238183000,14.318182861328124,5.328894345092773,8.651746974182128,1.415422093963623
1758278014248267800,14.328267822265625,5.285200164794921,7.923760031890868,1.6985364402770995
1758278014258353000,14.338352783203124,4.940584763336181,7.300369774627685,1.840692163848877
1758278014268437800,14.348437744140623,4.582950890350341,6.809857709503174,1.9174562545776368
1758278014278523000,14.35852294921875,4.3445781875610345,6.410923857879638,1.9627964485168456
1758278014288608000,14.36860791015625,4.18147319946289,6.011241818237305,1.930474726104736
1758278014298692900,14.37869287109375,3.994126919555664,5.613056154632568,1.7696143020629882
1758278014308779000,14.388779052734376,3.912275150299072,5.298517911529541,1.586757150268555
1758278014318864000,14.39886376953125,3.8591538009643553,5.101744462585449,1.4489409172058103
1758278014328949000,14.408948974609377,3.7119103988647457,4.998344878387451,1.386542036437988
1758278014339034000,14.4190341796875,3.5989340080261227,4.910806880187988,1.3199533027648924
1758278014349119000,14.429118896484376,3.6610336135864254,4.919934774017333,1.255758770751953
1758278014359204000,14.4392041015625,3.870226983642578,4.987122058105468,1.2553098579406738
1758278014369289000,14.4492890625,3.948637088012695,5.100547361755371,1.3160627250671386
1758278014379374000,14.4593740234375,4.047098631286621,5.354482375335693,1.2823942642211914
1758278014389459000,14.469458984375,4.446331758117675,5.633556506347656,1.3239935180664062
1758278014399544000,14.4795439453125,4.909160866546631,5.8092310531616205,1.4362217208862305
1758278014409630000,14.4896298828125,5.3214124649047845,5.910984623718261,1.6017209106445311
1758278014419714800,14.49971484375,5.754314052581787,5.921608893585205,1.7425298957824706
1758278014429800000,14.509800048828126,6.15504355545044,5.906944408416748,1.907879447937012
1758278014439884800,14.519884765625,6.540659660339355,5.98221212310791,2.11946701965332
1758278014449970000,14.529969970703124,6.863577609252929,6.0778305519104,2.4091654205322266
1758278014460054800,14.5400546875,6.828412772369385,6.167912389373779,2.680608033752441
1758278014470140000,14.550139892578123,6.677578067779541,6.37755467224121,2.757372124481201
1758278014480225000,14.56022509765625,6.459256803894043,6.833650088500976,2.719064897918701
1758278014490310000,14.570309814453124,6.1942486076354975,7.464522225952148,2.6102783599853514
1758278014500396000,14.58039599609375,5.770774188995361,7.92256293106079,2.479944007110596
1758278014510481000,14.59048095703125,5.435585956573486,7.904307143402099,2.325667637634277
1758278014520566000,14.60056591796875,5.594650729370117,7.802703210449218,1.9798551353454588
1758278014530651000,14.61065087890625,5.888389345550537,8.169016064453125,1.5924433792114256
1758278014540736000,14.620736083984376,6.178985572052001,8.645462194824217,1.465849966430664
1758278014550821000,14.630821044921875,6.692242552947998,8.531887253570556,1.6211737991333006
1758278014560906000,14.640906005859376,7.0838441619873045,8.090905235290528,1.815553046417236
1758278014570991000,14.6509912109375,7.045088022613525,8.113500513458252,1.9268834236145016
1758278014581076000,14.661075927734377,7.020248180389404,8.630049521636963,2.1028572456359864
1758278014591161900,14.671161865234374,7.160608252716064,9.128642017364502,2.623147193908691
1758278014601247000,14.6812470703125,7.334337510681152,9.354744436645507,3.434033368682861
1758278014611331800,14.691331787109377,7.363666481018066,9.42297918395996,4.233247810363769
1758278014621417000,14.7014169921875,7.130531094360351,9.933243412780762,4.753537758636474
1758278014631501800,14.711501708984375,6.562506750488281,10.882245095825194,5.221454545593262
1758278014641587000,14.7215869140625,6.248567057800293,11.175235523986816,5.814019456481933
1758278014651671800,14.731671875,6.321590208435058,10.12507882080078,6.064063892364501
1758278014661757000,14.7417568359375,6.519261483001708,8.690952026367187,5.360916792297363
1758278014671841800,14.751841796875,6.444592318725586,7.647529015350341,4.252850336456299
1758278014681928000,14.761927978515626,6.144868198394775,7.140856089019775,3.1955110282897947
1758278014692013000,14.772012939453123,5.808482865142822,7.085939088439941,2.527678402709961
1758278014702098000,14.782097900390625,5.45848050994873,7.435941443634033,2.352752043914794
1758278014712183000,14.79218310546875,4.9735050361633295,8.098387115478515,2.583792504119873
1758278014722268000,14.802267822265623,4.274098876190186,8.79165813369751,2.842216645812988
1758278014732353000,14.81235302734375,3.79870020904541,9.184157568359376,2.927958992767334
1758278014742438100,14.822438232421876,3.590703939819336,9.3715038482666,2.7581203125
1758278014752523000,14.83252294921875,3.226934925079345,9.415497303771971,2.2885575119018555
1758278014762609000,14.84260888671875,2.980631429290771,9.326462929534912,1.573738678741455
1758278014772693800,14.85269384765625,3.030460751342773,9.05891089401245,0.8423100715637206
1758278014782779000,14.86277880859375,3.1221886024475096,8.54281079864502,0.2983773818969726
1758278014792864000,14.872864013671874,3.0181904678344726,7.944559658813476,-0.0591068534851074
1758278014802948900,14.882948974609375,2.6765678184509274,7.432350141143798,-0.3001730331420898
1758278014813034000,14.893033935546876,2.22151986541748,7.032668101501464,-0.421978042602539
1758278014823118800,14.903118896484376,1.6964415138244628,6.676081691741943,-0.4013280532836913
1758278014833204000,14.913203857421877,1.2515689178466796,6.361393811035156,-0.3178302703857422
1758278014843290000,14.9232900390625,0.9156324974060058,6.016628771972656,-0.1886930183410644
1758278014853375000,14.933375,0.637755467224121,5.774365491485596,0.005686228942871
1758278014863460000,14.943460205078123,0.4958990188598632,5.553350750732421,0.2937386161804199
1758278014873545000,14.953544921875,0.630123949432373,5.283254875946045,0.646733723449707
1758278014883630000,14.963630126953126,0.7223007133483886,5.135113648223877,1.1379939765930176
1758278014893715000,14.97371484375,0.577152237701416,5.3202153640747065,1.8302175315856928
1758278014903800000,14.983800048828124,0.5210381362915039,5.892130285644531,2.588730545043945
1758278014913886000,14.993885986328126,0.8060977714538574,6.663063220214843,3.3343747245788573
1758278014923970800,15.003970703125,1.572691215515137,7.375787126922607,4.017320748138427
1758278014934056000,15.014055908203124,2.4369980148315427,7.584980496978759,4.628889634704589
1758278014944140800,15.024140869140624,2.9697078842163083,7.056610118103027,5.144840092468262
1758278014954225700,15.0342255859375,3.1241338912963865,6.342539472961425,5.291335306549072
1758278014964310500,15.044310546875,2.851194902038574,6.099378366851807,5.2371664939880365
1758278014974395400,15.0543955078125,2.250250285339355,6.468384697723388,5.303605590057373
1758278014984480500,15.06448046875,1.6674118186950682,7.255328855895995,5.44591095123291
1758278014994566400,15.07456640625,1.2307692909240722,8.200888874053955,5.719747766113281
1758278015004651500,15.084651611328123,0.8744821563720703,9.042001844787595,6.083516780853271
1758278015014736600,15.094736572265624,0.6470329986572265,9.516203411102294,6.377255397033691
1758278015024821500,15.104821533203124,0.5973533142089843,9.74260510559082,6.576123772430419
1758278015034906600,15.11490673828125,0.6061819328308106,10.060136100769045,6.441300291442871
1758278015044991500,15.124991455078124,0.4463689720153808,10.740987197875976,6.076783088684081
1758278015055076600,15.13507666015625,0.1511339797973632,11.643750861358642,5.383512070465088
1758278015065162800,15.145162841796877,-0.0088286186218261,12.324901233673096,4.60345124206543
1758278015075247600,15.15524755859375,0.0984615432739257,12.578985884857175,3.952826940917968
1758278015085332700,15.165332763671875,0.2328361114501953,12.574945669555664,3.384054409027099
1758278015095417600,15.17541748046875,0.0353144744873046,12.82050097732544,2.943820578765869
1758278015105502700,15.185502685546876,-0.3350385948181152,13.360094176483154,2.7151743202209477
1758278015115587600,15.195587646484377,-0.6591536445617675,14.071920257568358,2.6599580444335937
1758278015125672700,15.205672607421874,-0.7595604766845703,14.79272459487915,2.8287492614746093
1758278015135758600,15.215758544921876,-0.6748655929565429,15.268272899627684,3.045873424530029
1758278015145843500,15.225843505859377,-0.5723638343811035,15.351022494506836,3.1483751831054687
1758278015155928600,15.235928466796874,-0.5452794281005859,15.223680893707275,3.146429894256592
1758278015166013400,15.246013427734376,-0.5017348854064941,15.134796157073971,2.9583354263305663
1758278015176098600,15.2560986328125,-0.3544914833068847,14.93921980895996,2.497750881958008
1758278015186183400,15.266183349609374,-0.1394622467041015,14.35129366378784,2.0036475143432617
1758278015196269600,15.27626953125,0.0549170005798339,13.262829734039306,2.067842046356201
1758278015206354700,15.286354736328123,0.4513070129394531,12.04118833694458,2.224213342285156
1758278015216439600,15.296439453125,1.1239280418395996,10.9037929107666,2.3611317497253417
1758278015226524700,15.306524658203124,2.0024504135131838,9.860070624542235,2.397792962646484
1758278015236609500,15.316609619140625,2.888604302978516,8.821735292053223,2.20909994430542
1758278015246694700,15.326694580078126,3.727771984863281,7.92286220626831,1.8546084609985352
1758278015256779800,15.33677978515625,4.187159428405762,7.417984931182861,1.303642803955078
1758278015266865400,15.346865478515625,4.142567422485351,7.4951979347229,0.646733723449707
1758278015276950500,15.356950439453126,3.6360441337585447,8.002619049072266,0.1454477508544921
1758278015287035400,15.367035400390623,2.8280010734558103,8.750507792663575,-0.0395043273925781
1758278015297120500,15.37712060546875,2.039261264038086,9.546430207061768,-0.0088286186218261
1758278015307205400,15.387205322265626,1.418115570831299,10.299855541992187,0.1117792900085449
1758278015317290500,15.39729052734375,1.0012252067565917,10.877307054901122,0.2427121932983398
1758278015327375600,15.407375732421874,0.6248866333007812,11.115979032897949,0.3874117561340331
1758278015337461500,15.41746142578125,0.2816179702758788,10.958260998535156,0.5400421119689941
1758278015347546600,15.427546630859377,0.0634463439941406,10.501267756652831,0.6498761131286621
1758278015357631500,15.437631591796874,-0.0029927520751953,9.922469505310058,0.6775590698242188
1758278015367716600,15.447716552734375,0.0205003517150878,9.292495193481445,0.5975029518127442
1758278015377801700,15.4578017578125,0.1210568214416503,8.641870892333984,0.5144540817260742
1758278015387886600,15.467886474609376,0.2843114471435546,7.965060010528564,0.3703530693054199
1758278015397972500,15.477972412109375,0.4409820182800292,7.262810736083984,0.1580173095703125
1758278015408057300,15.488057373046876,0.5386953735351562,6.574777033996582,-0.0935235023498535
1758278015418142500,15.498142578125,0.5276221908569335,5.928192948150635,-0.36391865234375
1758278015428227600,15.5082275390625,0.4511573753356933,5.398924743652343,-0.6004957038879394
1758278015438312400,15.5183125,0.3628711891174316,4.996549227142333,-0.7148188331604004
1758278015448397600,15.5283974609375,0.2685994987487793,4.760570726013183,-0.7330746208190918
1758278015458483500,15.5384833984375,0.18510171585083,4.778527238464355,-0.5373486351013184
1758278015468568600,15.548568603515625,0.1292868896484375,5.01779776687622,-0.1761234596252441
1758278015478653700,15.55865380859375,0.1352723937988281,5.390993950653076,0.361973363494873
1758278015488738600,15.568738525390623,0.178068748474121,5.837063647460937,0.9763853645324706
1758278015498823700,15.57882373046875,0.2865560111999511,6.234650760650634,1.5846622238159178
1758278015508908500,15.588908447265624,0.4873696754455566,6.673388214874267,2.185457202911377
1758278015518994700,15.59899462890625,0.7474398307800293,7.235576692199706,2.773233710479736
1758278015529079600,15.60907958984375,1.089810668182373,7.96161834564209,3.388992449951172
1758278015539164400,15.619164306640624,1.5286977600097655,8.758288948059082,3.942202671051025
1758278015549249500,15.62924951171875,1.966986301422119,9.507823705291749,4.397100986480712
1758278015559334400,15.63933447265625,2.435501638793945,10.067468343353273,4.64759433517456
1758278015569419500,15.64941943359375,2.883516624450684,10.398616360473632,4.554968658447265
1758278015579505400,15.65950537109375,3.2014965324401854,10.456077200317385,4.048894282531738
1758278015589590500,15.669590576171874,3.393182302856445,10.326341397857666,3.382857308197021
1758278015599675600,15.679675537109375,3.3357214630126952,10.203488925170898,2.573467509460449
1758278015609760500,15.689760498046876,3.071760729980469,10.120739330291748,1.681028840637207
1758278015619845600,15.699845703125,2.7570728492736816,10.21471174545288,0.961421604156494
1758278015629930500,15.709930419921877,2.535160282897949,10.634594861602782,0.3181295455932617
1758278015640016600,15.7200166015625,2.242768405151367,11.243919184112547,-0.321122297668457
1758278015650101800,15.730101806640626,1.9399018951416012,12.012757192230223,-0.7851485069274902
1758278015660186600,15.7401865234375,1.7342998275756836,12.929137877655029,-1.084124439239502
1758278015670271700,15.750271728515624,1.6077064147949218,13.972710526275634,-1.2774562232971192
1758278015680356600,15.760356689453126,1.4317325927734377,15.036035338592528,-1.3283330085754397
1758278015690441700,15.770441650390625,1.3076830192565918,15.898696124267577,-1.114650510406494
1758278015700527600,15.780527587890624,1.1917138763427733,16.43948642425537,-0.8271966735839843
1758278015710612500,15.790612548828124,1.0736498069763185,16.312893011474607,-0.6429927833557129
1758278015720697600,15.800697509765625,1.0506056159973145,15.390227546691891,-0.6325181510925293
1758278015730782500,15.810782470703124,1.2099696640014648,14.12145030441284,-0.8502408645629882
1758278015740867600,15.82086767578125,1.4541782333374025,12.828731045532226,-1.1780968544006347
1758278015750952400,15.830952392578125,1.7096096229553222,11.493813982391355,-1.4730325714111328
1758278015761038600,15.84103857421875,1.9138649520874025,10.204985301208495,-1.6722002220153809
1758278015771123700,15.851123779296875,2.071283711242676,9.29623613357544,-1.8118121063232424
1758278015781208600,15.86120849609375,2.088791310882568,8.945934503173827,-1.8296189811706545
1758278015791293700,15.871293701171876,2.058265239715576,9.140912300872802,-1.7503110511779785
1758278015801378600,15.881378662109377,2.040608002471924,9.794978266906735,-1.5550339782714844
1758278015811464400,15.89146435546875,1.912667851257324,10.702530333709715,-1.1903671379089356
1758278015821549600,15.901549560546876,1.6888099960327148,11.608735662078857,-0.7368155609130859
1758278015831634400,15.911634521484377,1.4579191734313963,12.33387948989868,-0.2397194412231445
1758278015841719600,15.921719482421874,1.202338146209717,12.747477826690671,0.237474877166748
1758278015851804400,15.931804443359376,0.9994295555114744,12.720991970825194,0.620547142791748
1758278015861889500,15.9418896484375,0.847248112487793,12.233173382568358,0.8328829025268554
1758278015871975700,15.9519755859375,0.750133307647705,11.418546267700195,0.7879916213989258
1758278015882060500,15.962060546875,0.7499836700439453,10.576535471343991,0.603338818359375
1758278015892145700,15.972145751953123,0.7848492317199707,9.824756150054933,0.4474164352416992
1758278015902230500,15.98223046875,0.8979752601623535,9.09751739578247,0.4282628219604492
1758278015912315600,15.992315673828124,1.0859200904846191,8.383895663452147,0.607827946472168
1758278015922400500,16.002400390625,1.2030863342285156,7.714417024230957,0.8822633117675781
1758278015932486700,16.012486572265626,1.29601128616333,7.069628589630127,1.1634323692321775
1758278015942571500,16.022571533203124,1.3850456604003905,6.481403169250488,1.4196119468688964
1758278015952657200,16.0326572265625,1.395520292663574,5.954379528808594,1.5828665725708009
1758278015962742300,16.0427421875,1.3977648567199703,5.4686558670043945,1.6736965980529783
1758278015972827100,16.0528271484375,1.4863503181457518,5.023184720611572,1.73010997467041
1758278015982913300,16.062913330078125,1.562964771270752,4.675576567077637,1.713649838256836
1758278015992998400,16.072998291015626,1.6213234367370604,4.457853853607178,1.6970400642395018
1758278016003083300,16.083083251953123,1.5873557006835937,4.351760792541504,1.6371850227355955
1758278016013168400,16.09316845703125,1.439663385772705,4.377797735595703,1.6325462570190428
1758278016023253200,16.103253173828126,1.2250830619812012,4.550629167938232,1.639429586791992
1758278016033338400,16.11333837890625,0.9097966308593748,4.910956517791748,1.7172411407470702
1758278016043424300,16.12342431640625,0.608426496887207,5.481225425720215,1.8103157302856443
1758278016053509000,16.133509033203126,0.3482067039489745,6.263231542968749,1.8384475997924803
1758278016063594200,16.14359423828125,0.0878372734069824,7.154922023773193,1.8683751205444332
1758278016073679000,16.15367919921875,-0.0417488914489746,8.08955849685669,1.999607299041748
1758278016083764200,16.16376416015625,-0.072723875427246,8.91226604232788,2.1651064888000486
1758278016093850400,16.173850341796875,-0.2035071411132812,9.529670795440673,2.217330012512207
1758278016103935200,16.183935302734376,-0.3407248237609863,9.970952088928222,2.060659441375732
1758278016114020400,16.194020263671874,-0.2726397140502929,10.50171666946411,1.8118121063232424
1758278016124105200,16.204105224609375,-0.0899321998596191,11.13483337097168,1.5388731170654295
1758278016134190300,16.2141904296875,0.0252887550354003,11.710638870239258,1.262791738128662
1758278016144276500,16.2242763671875,-0.029328970336914,11.948562660217284,1.120486376953125
1758278016154361300,16.234361328125,-0.002543839263916,11.763311306762697,1.0057143348693849
1758278016164446500,16.244446533203124,0.1788169364929199,11.605892547607422,0.752677146911621
1758278016174531300,16.25453125,0.3899555953979492,11.640907746887208,0.3895066825866699
1758278016184616400,16.264616455078126,0.6169558403015136,11.710788507843017,0.1490390533447265
1758278016194702300,16.274702392578124,0.9718962364196776,12.02143617324829,0.1271919631958007
1758278016204787200,16.284787109375,1.4640543151855467,12.511648963165282,0.2855085479736328
1758278016214872300,16.294872314453126,2.0964228286743163,13.18935767059326,0.7088333290100097
1758278016224957200,16.304957275390624,2.7425580017089843,13.941585904693603,1.2071265495300292
1758278016235042300,16.315042236328125,3.149721921539306,14.579191734313964,1.6603788513183593
1758278016245127200,16.325127197265626,3.3197102394104,14.877868391418456,1.9717747047424317
1758278016255213300,16.33521337890625,3.4775779113769527,14.702044207000732,1.9743185440063475
1758278016265298400,16.34529833984375,3.784634274291992,14.100949952697754,1.750610326385498
1758278016275383300,16.35538330078125,4.022857339477539,12.925845850372314,1.5237597190856933
1758278016285468400,16.365468505859376,4.223671003723144,11.301380023956298,1.4531307701110838
1758278016295553300,16.37555322265625,4.570680606842041,9.617807344055176,1.3609540061950682
1758278016305639200,16.38563916015625,4.982782567596435,8.111854499816895,1.0012252067565917
1758278016315724300,16.395724365234376,5.227888962554931,6.998101815032959,0.4587888931274413
1758278016325809200,16.40580908203125,5.277568647003173,6.51237815322876,-0.1032499465942382
1758278016335894300,16.415894287109374,5.124040465545654,6.889315277099609,-0.5271732780456543
1758278016345979100,16.425979248046875,4.751742107391357,8.097788565063476,-0.7285854927062988
1758278016356065300,16.436065185546877,4.172494943237305,9.770138424682616,-0.5925649108886718
1758278016366150400,16.446150390625,3.57514162902832,11.30691661529541,-0.1771709228515625
1758278016376235300,16.4562353515625,3.0488661766052245,12.32056174316406,0.3471592407226562
1758278016386320400,16.4663203125,2.5397990486145017,12.609811231231689,0.7128735443115234
1758278016396405200,16.4764052734375,2.1486463523864745,12.235268309020997,0.814627114868164
1758278016406491400,16.486491455078124,1.8089689918518064,11.391611499023435,0.601393529510498
1758278016416576500,16.496576416015625,1.4963760375976562,10.474183350372314,0.1282394264221191
1758278016426661400,16.506661376953126,1.3076830192565918,9.63456675567627,-0.3559878593444824
1758278016436746200,16.516746337890623,1.2894272315979003,8.870816426086424,-0.7300818687438965
1758278016446831000,16.5268310546875,1.4278420150756834,8.111255949401855,-0.8289923248291016
1758278016456917200,16.536917236328126,1.6606781265258788,7.294982820892334,-0.7220014381408691
1758278016467002400,16.54700244140625,1.76198278427124,6.557867984771728,-0.4629787460327148
1758278016477087200,16.557087158203124,1.709759260559082,5.966949087524414,-0.1427542739868164
1758278016487172400,16.56717236328125,1.631798069000244,5.465962390136719,0.1105821891784668
1758278016497257200,16.57725732421875,1.5295955856323242,5.06897382736206,0.295534267425537
1758278016507343400,16.58734326171875,1.399410870361328,4.674828379058837,0.3793313255310058
1758278016517428500,16.597428466796874,1.2867337547302244,4.406827430725097,0.4566939666748046
1758278016527513300,16.607513427734375,1.2051812606811525,4.28382532043457,0.52986675491333
1758278016537598500,16.617598388671876,1.233462767791748,4.304325672149658,0.5303156677246094
1758278016547683300,16.627683349609374,1.3712790008544922,4.4476784965515135,0.5163993705749511
1758278016557769200,16.637769287109375,1.5285481224060058,4.635623326873779,0.5503671066284179
1758278016567854300,16.647854248046876,1.7057190452575683,4.990114810180664,0.6096235977172851
1758278016577939200,16.657939208984374,1.879747578430176,5.575048203277587,0.6792050834655762
1758278016588024300,16.6680244140625,2.0753239265441894,6.357802508544921,0.8614636848449706
1758278016598109200,16.678109130859376,2.4533085136413573,7.183353168487549,1.3124714225769043
1758278016608195300,16.6881953125,2.9044658889770507,7.762450695037841,1.9749170944213863
1758278016618280400,16.698280517578127,3.279008811187744,8.143876947021484,2.5936685859680173
1758278016628365300,16.708365234375,3.543867369842529,8.226925817108153,3.0496143646240235
1758278016638450400,16.718450439453125,3.949086000823975,8.201637062072754,3.403507297515869
1758278016648535300,16.728535400390626,4.358195209503173,8.26777688293457,3.5125931106567383
1758278016658621200,16.73862109375,4.77583376159668,8.470984748840332,3.440318148040771
1758278016668706300,16.748706298828125,5.13960277633667,8.774599446868896,3.2577602714538574
1758278016678791200,16.758791259765626,5.171774861145019,9.0412536567688,2.895936545562744
1758278016688876300,16.768876220703124,5.02468109664917,9.144952516174316,2.5821464904785154
1758278016698961200,16.778961181640625,5.059397020721435,9.143605777740476,2.4383447532653806
1758278016709047300,16.78904736328125,5.053112241363525,9.233537977600095,2.321328147125244
1758278016719132400,16.79913232421875,5.007921685028076,9.763554370117188,2.188898867797852
1758278016729217300,16.80921728515625,4.772092821502685,10.627711531829831,1.965041012573242
1758278016739302400,16.819302490234374,4.26467170715332,11.552023010253906,1.6493056686401366
1758278016749387300,16.82938720703125,3.510647821807861,12.333131301879884,1.3877391372680663
1758278016759473400,16.839473388671873,2.8063036209106444,13.179780863952637,1.158045415496826
1758278016769558300,16.849558349609374,2.296189029693603,14.177714043426512,0.9569324760437012
1758278016779643400,16.859643310546875,1.9515736282348632,15.116690007019042,0.7854477821350098
1758278016789728500,16.869728515625,1.7733552421569825,15.64116980819702,0.6079775840759277
1758278016799813400,16.8798134765625,1.568651000213623,15.601515843200684,0.2178723510742187
1758278016809899300,16.889899169921875,1.416020644378662,14.861408255004882,-0.2413654548645019
1758278016819984100,16.899984130859377,1.342847856140137,13.410372411346437,-0.514603719329834
1758278016830069200,16.9100693359375,1.3358148887634276,11.558906340026857,-0.6313210502624511
1758278016840154400,16.920154296875,1.4592659118652342,9.976189405059811,-0.5385457359313964
1758278016850239200,16.9302392578125,1.797895809173584,8.91271495513916,-0.5515642074584961
1758278016860325400,16.940325439453126,2.2512977485656736,8.528595226287841,-0.8869020774841309
1758278016870410200,16.95041015625,2.4735095901489257,8.91870045928955,-1.546803910064697
1758278016880495400,16.960495361328125,2.437147652435302,10.072107109069824,-2.039859814453125
1758278016890580500,16.97058056640625,2.225111167907715,11.575665751647948,-1.9813515113830564
1758278016900666000,16.980666015625,1.835604485321045,12.903100934600827,-1.4252981758117675
1758278016910751200,16.990751220703125,1.3754688537597657,13.784316783142089,-0.572663109588623
1758278016920836000,17.000836181640626,1.00227266998291,14.285602755737305,0.2558803024291992
1758278016930921200,17.010921142578123,0.94481183013916,14.357279167938232,0.8900444671630859
1758278016941006300,17.02100634765625,1.0860697280883789,13.89804136199951,1.2439374000549317
1758278016951092500,17.031092529296874,1.32788409576416,12.892626302337646,1.3926771781921383
1758278016961177600,17.041177490234375,1.6410756004333495,11.626841812133788,1.4359224456787107
1758278016971262700,17.0512626953125,1.927182698822021,10.313023651123046,1.5028104545593262
1758278016981347600,17.06134765625,2.127846725463867,9.05307502746582,1.677736813354492
1758278016991432700,17.0714326171875,2.318036119842529,7.896226712799072,1.9388544319152832
1758278017001518600,17.0815185546875,2.396146949005127,6.913706206512451,2.2945430160522458
1758278017011603700,17.091603759765626,2.3786393493652342,6.085761344909668,2.7486931434631345
1758278017021688600,17.1016884765625,2.255786876678467,5.353584549713134,3.186233496856689
1758278017031773400,17.1117734375,2.06873987197876,4.704157349395752,3.610755378723144
1758278017041859600,17.121859619140626,1.835604485321045,4.186261602783203,3.949086000823975
1758278017051944400,17.1319443359375,1.5578770927429195,3.795707456970215,4.129399313354492
1758278017062029600,17.142029541015624,1.3874398620605468,3.54326881942749,4.191648556518555
1758278017072114700,17.15211474609375,1.2277765388488768,3.47308878326416,4.131494239807129
1758278017082199600,17.162199462890626,1.1541548377990722,3.507954344940185,3.8326679450988768
1758278017092285700,17.17228564453125,1.1149497856140136,3.717596627807617,3.348291021728516
1758278017102370600,17.18237060546875,1.1143512351989746,4.209455431365966,2.863315547943115
1758278017112455700,17.19245556640625,1.1540052001953125,4.900631523132324,2.553266432952881
1758278017122540800,17.202540771484376,1.0823287879943848,5.645677152252197,2.3994389762878416
1758278017132625700,17.212625732421873,0.7700351089477538,6.346280413055419,2.2723966506958004
1758278017142711600,17.222711669921875,0.4342483261108398,7.047482224273681,2.2104466827392577
1758278017152796400,17.23279638671875,0.0891840118408203,7.737461215209961,2.179022785949707
1758278017162881500,17.242881591796873,-0.2302922721862793,8.254459136199952,2.1447557746887207
1758278017172966400,17.25296630859375,-0.443076944732666,8.704120135498046,2.0272902557373045
1758278017183052500,17.263052490234376,-0.572663109588623,9.267954626464844,1.7738041549682615
1758278017193137700,17.2731376953125,-0.7821557548522948,9.93414123840332,1.3750199409484862
1758278017203222500,17.283222412109374,-0.8759785324096679,10.895712480163574,0.9044096771240234
1758278017213307600,17.2933076171875,-0.9112930068969726,11.897685874938963,0.5913678100585937
1758278017223392500,17.303392578125,-0.9675567459106444,12.475885575866698,0.4059668190002441
1758278017233478700,17.313478759765626,-0.8735843307495117,12.40989539260864,0.3244143249511718
1758278017243563800,17.323563720703124,-0.5684732566833496,11.994501404571531,0.2697965995788574
1758278017253648600,17.333648681640625,-0.1123778404235839,11.624746885681152,0.1683423042297363
1758278017263733500,17.3437333984375,0.2287958961486816,11.519850925445557,0.160860424041748
1758278017273819600,17.353819580078124,0.5840355674743652,11.662455561828612,0.2847603599548339
1758278017283904500,17.363904541015625,1.1777975791931152,12.376675844573974,0.5482721801757812
1758278017293989600,17.37398974609375,1.926733786010742,13.469179989624022,0.9705494979858398
1758278017304074500,17.384074462890624,2.5053823997497555,14.565125799560546,1.5206173294067382
1758278017314159600,17.39415966796875,2.602497204589844,15.41791050338745,2.2330419609069825
1758278017324245800,17.404245849609374,2.3933038345336914,15.872210268402098,3.042731034851074
1758278017334330600,17.41433056640625,2.3683143547058103,15.97321565093994,3.5972879943847653
1758278017344415700,17.424415771484377,2.472611764526367,15.702970138549803,3.6788404884338375
1758278017354500600,17.43450048828125,2.651279063415527,14.716259779357909,3.30729031829834
1758278017364586500,17.44458642578125,2.920327474975586,13.154941021728517,2.703652224731445
1758278017374671600,17.454671630859377,3.208978412628173,11.701062063598632,1.9978116477966308
1758278017384756500,17.464756591796874,3.4000656326293943,10.6501571723938,1.2675801414489745
1758278017394841600,17.474841552734375,3.5927988662719725,10.09440311203003,0.5674257934570313
