time,seconds_elapsed,z,y,x
1759655064435982300,0.029982421875,4.61587116317749,8.809614646148681,0.26695348510742184
1759655064446065200,0.040065185546875,4.7658080421447755,8.554332894134522,0.4777928688049316
1759655064456148200,0.050148193359375,4.90287608718872,8.350975390624999,0.7366659233093261
1759655064466231300,0.060231201171875,4.960486564636231,8.330475038909912,0.9433154541015625
1759655064476315100,0.070315185546875,4.989216984558105,8.495525315856932,0.9914987625122069
1759655064486398200,0.080398193359375,5.018396317291259,8.690952026367187,0.7710825721740722
1759655064496481300,0.090481201171875,4.926668466186523,8.800187477111816,0.4513070129394531
1759655064506564000,0.100564208984375,4.7289971916198725,8.799289651489257,0.16519991455078123
1759655064516647400,0.1106474609375,4.589534944915771,8.649203134918212,-0.053719899749755856
1759655064526730200,0.120730224609375,4.547935691070556,8.42773948135376,-0.17687164764404295
1759655064536814300,0.130814453125,4.58399835357666,8.256105149841309,-0.20201076507568358
1759655064546897200,0.140897216796875,4.619911378479004,8.132504489135743,-0.18644845428466797
1759655064556980200,0.150980224609375,4.628889634704589,8.108263197326659,-0.16594810256958006
1759655064567063300,0.161063232421875,4.624400506591797,8.145074047851562,-0.11537059249877929
1759655064577146400,0.171146484375,4.6544776649475095,8.155399042510986,-0.0962169792175293
1759655064587229200,0.181229248046875,4.641159918212891,8.119037104797362,-0.10729016189575195
1759655064597313300,0.191313232421875,4.6353240516662595,8.034641496276855,-0.11192892761230468
1759655064607396000,0.20139599609375,4.613327323913574,7.923610394287109,-0.06239888076782226
1759655064617479400,0.2114794921875,4.592527696990967,7.907599170684814,0.04548983154296875
1759655064627562200,0.221562255859375,4.648791436004639,7.9569795799255365,0.18405425262451172
1759655064637645300,0.231645263671875,4.761618189239502,8.08342335510254,0.29224224014282224
1759655064647728000,0.24172802734375,4.878335520172119,8.240542839050292,0.32665888900756834
1759655064657812500,0.2518125,4.9342999839782715,8.406042028808594,0.26231471939086914
1759655064667895300,0.261895263671875,4.951209033203125,8.533832542419432,0.18989011917114257
1759655064677978400,0.271978271484375,4.9337014335632325,8.579023098754883,0.12823942642211913
1759655064688061200,0.282061279296875,4.940435125732422,8.525153561401366,0.08678981018066406
1759655064698144300,0.292144287109375,4.962431853485107,8.406490941619873,0.12479776153564452
1759655064708227000,0.30222705078125,5.004480020141601,8.292018174743651,0.17208324432373046
1759655064718311400,0.3123115234375,5.077802445983886,8.228422193145752,0.1924339584350586
1759655064728394200,0.322394287109375,5.168482833862305,8.213907345581054,0.14649521408081054
1759655064738477300,0.332477294921875,5.179855291748047,8.207024015808106,0.0032920272827148436
1759655064748560100,0.34256005859375,5.146186830902099,8.20343271331787,-0.15562310791015624
1759655064758643200,0.352643310546875,5.119401699829101,8.234407697296142,-0.303913973236084
1759655064768726300,0.362726318359375,5.082890124511718,8.368183715057372,-0.4752490295410156
1759655064778810400,0.372810302734375,5.002534731292724,8.603713303375244,-0.6438906089782714
1759655064788893200,0.38289306640625,4.857086980438232,8.88682764968872,-0.7945756759643554
1759655064798976300,0.392976318359375,4.780472527313232,9.082703273010253,-0.8855553390502929
1759655064809059000,0.40305908203125,4.745307690429687,9.151237295532226,-0.9168295982360839
1759655064819142400,0.413142333984375,4.742165300750732,9.06025763244629,-0.9288006065368651
1759655064829225200,0.42322509765625,4.753837033843994,8.928426903533936,-0.9325415466308593
1759655064839309300,0.433309326171875,4.760271450805663,8.789862482452392,-0.8647557121276855
1759655064849392000,0.44339208984375,4.808305121612548,8.633191911315917,-0.7592612014770508
1759655064859475200,0.45347509765625,4.873696754455566,8.513182553100586,-0.6567594429016113
1759655064869558300,0.463558349609375,4.94761773071289,8.460809391784668,-0.5451297904968262
1759655064879641300,0.473641357421875,4.974702136993408,8.487594522857666,-0.49470191802978514
1759655064889724200,0.48372412109375,4.992209736633301,8.543558986663818,-0.5003881469726562
1759655064899808300,0.493808349609375,4.969913733673096,8.646360020446776,-0.45759179229736324
1759655064909891000,0.50389111328125,4.961982940673828,8.71399621734619,-0.37065234451293944
1759655064919974400,0.513974365234375,5.0568531814575195,8.678981018066406,-0.2814683326721191
1759655064930057200,0.52405712890625,5.137058937072753,8.681075944519042,-0.2979284690856933
1759655064940140300,0.534140380859375,5.070470203399658,8.698433906555175,-0.4537012145996093
1759655064950223000,0.54422314453125,4.964526779937744,8.67613790359497,-0.6202478675842285
1759655064960307500,0.554307373046875,4.854842416381835,8.611344821166991,-0.7095815170288086
1759655064970390300,0.564390380859375,4.786308393859863,8.485349958801269,-0.7131728195190429
1759655064980473300,0.574473388671875,4.790498246765137,8.362497486114501,-0.5901707092285156
1759655064990556200,0.58455615234375,4.838831192779541,8.349179739379883,-0.421978042602539
1759655065000639200,0.59463916015625,4.939537300109863,8.40215145111084,-0.32486323776245113
1759655065010722000,0.60472216796875,5.02423218383789,8.49821879272461,-0.26261399459838863
1759655065020806400,0.614806396484375,5.049072026062011,8.565406076812744,-0.24929624786376953
1759655065030889200,0.62488916015625,5.036502467346191,8.61284119720459,-0.24600422058105467
1759655065040972300,0.63497216796875,4.999242704010009,8.646659295654297,-0.21532851181030271
1759655065051055000,0.64505517578125,4.961683665466309,8.660126679992675,-0.1466448516845703
1759655065061138200,0.65513818359375,4.950311207580566,8.646360020446776,-0.0652419952392578
1759655065071221200,0.66522119140625,4.911405430603027,8.628702783203124,0.016759411621093748
1759655065081305300,0.675305419921875,4.927865567016601,8.618228150939942,0.05850830307006836
1759655065091388200,0.68538818359375,4.918139122772216,8.590245919036864,-0.010773907470703125
1759655065101471200,0.69547119140625,4.88372247390747,8.584260414886474,-0.1274912384033203
1759655065111554000,0.705553955078125,4.820874680328369,8.537723120117187,-0.2911947769165039
1759655065121637400,0.715637451171875,4.7661073173522945,8.476222064971923,-0.40491935577392574
1759655065131720200,0.72572021484375,4.758924712371826,8.415618835449218,-0.4993406837463379
1759655065141804300,0.73580419921875,4.744559502410889,8.380304360961913,-0.5647323165893554
1759655065151887000,0.74588720703125,4.708646477508545,8.372672843170166,-0.5906196220397949
1759655065161970200,0.75597021484375,4.7183729217529295,8.3379569190979,-0.5687725318908691
1759655065172053200,0.76605322265625,4.748599717712402,8.282291730499267,-0.515202269744873
1759655065182136300,0.77613623046875,4.838083004760742,8.26732797012329,-0.44277766952514647
1759655065192220200,0.78622021484375,4.919635498809814,8.271517823028564,-0.3763385734558105
1759655065202303000,0.796302978515625,4.966621706390381,8.296357665252685,-0.3043628860473633
1759655065212385800,0.8063857421875,4.983830030822753,8.316409104156493,-0.2765302917480469
1759655065222468900,0.81646875,4.99909306640625,8.347683363342284,-0.27727847976684566
1759655065232552000,0.826552001953125,5.01809704208374,8.36309603652954,-0.3060088996887207
1759655065242634800,0.836634765625,4.994304663085937,8.365639875793457,-0.3655646659851074
1759655065252717800,0.8467177734375,4.985775319671631,8.362347848510742,-0.404769718170166
1759655065262802000,0.856802001953125,4.97978981552124,8.348281913757324,-0.43155484924316406
1759655065272884700,0.866884765625,4.955099610900879,8.332869240570068,-0.4369418029785156
1759655065282967800,0.8769677734375,4.943278240203857,8.353219954681396,-0.4128501487731933
1759655065293051000,0.88705078125,4.951508308410644,8.343194235229491,-0.43200376205444335
1759655065303133700,0.8971337890625,4.970063371276855,8.351873216247558,-0.4192845657348633
1759655065313217000,0.907217041015625,5.016002115631103,8.349030101776123,-0.40057986526489253
1759655065323300900,0.91730078125,5.0285716743469235,8.396614859771727,-0.4032733421325683
1759655065333383700,0.9273837890625,4.996249951934814,8.456170626068115,-0.45190556335449217
1759655065343466800,0.937466796875,4.953303959655761,8.518569506835936,-0.46238019561767574
1759655065353549800,0.9475498046875,4.945373166656494,8.58770207977295,-0.4697124382019043
1759655065363633000,0.9576328125,4.9820343795776365,8.582464763641356,-0.46791678695678707
1759655065373716000,0.967716064453125,5.019593418121338,8.498518067932128,-0.4439747703552246
1759655065383799800,0.9777998046875,5.031414788818359,8.452579323577881,-0.4234744186401367
1759655065393882600,0.987882568359375,4.992957924652099,8.488641986083984,-0.4616320075988769
1759655065403965700,0.997965576171875,4.911405430603027,8.568548466491698,-0.5189432098388671
1759655065414049000,1.008049072265625,4.830301849365234,8.641870892333984,-0.5220855995178222
1759655065424131800,1.0181318359375,4.843469958496094,8.635885388183594,-0.4783914192199707
1759655065434215000,1.02821484375,4.87100327758789,8.587402804565428,-0.4176385520935058
1759655065444298800,1.038298828125,4.911555068206787,8.525153561401366,-0.3389291725158691
1759655065454381800,1.0483818359375,4.962132578277588,8.496273503875733,-0.3145382431030273
1759655065464465000,1.05846484375,4.945373166656494,8.474725688934326,-0.3372831588745117
1759655065474548000,1.0685478515625,4.9263691909790035,8.470386198425292,-0.3194762840270996
1759655065484630800,1.078630859375,4.930259768676757,8.463502868652343,-0.3124433166503906
1759655065494713900,1.0887138671875,4.919036948394775,8.467991996765136,-0.30840310134887694
1759655065504798000,1.0987978515625,4.879382983398437,8.463203593444824,-0.314089330291748
1759655065514880800,1.108880859375,4.868160163116455,8.459761928558349,-0.3371335212707519
1759655065524963800,1.1189638671875,4.862324296569824,8.4789155418396,-0.3752911102294922
1759655065535047000,1.129046875,4.8132431625366205,8.504653209686278,-0.40940848388671874
1759655065545129700,1.139129638671875,4.778227963256835,8.519317694854736,-0.43454760131835934
1759655065555212800,1.149212890625,4.7493479057312005,8.516025667572022,-0.45893853073120117
1759655065565297000,1.159296875,4.714781619262695,8.538321670532227,-0.4478653480529785
1759655065575380000,1.1693798828125,4.683806635284424,8.519916245269775,-0.4789899696350097
1759655065585462800,1.179462890625,4.703858074188232,8.501810095214843,-0.47330374069213865
1759655065595545900,1.1895458984375,4.717026183319091,8.489988724517822,-0.4346972389221191
1759655065605628700,1.199628662109375,4.732139581298828,8.506149585723877,-0.41419688720703124
1759655065615712000,1.2097119140625,4.752191020202637,8.526500299835204,-0.38621465530395505
1759655065625795800,1.2197958984375,4.780023614501953,8.549095578002929,-0.37918168792724605
1759655065635879000,1.22987890625,4.795885200500488,8.555230719757079,-0.3699041564941406
1759655065645961700,1.239961669921875,4.805761282348633,8.520814070892333,-0.3532943824768066
1759655065656044800,1.250044921875,4.798728314971924,8.49073691253662,-0.3616740882873535
1759655065666128000,1.2601279296875,4.829852936553955,8.455871350860596,-0.31573534393310543
1759655065676211000,1.2702109375,4.8409261192321775,8.417414486694335,-0.2883516624450683
1759655065686294800,1.280294677734375,4.8229696067810055,8.430582595825195,-0.29613281784057616
1759655065696377900,1.2903779296875,4.825513446044922,8.449736209106446,-0.31259295425415035
1759655065706460700,1.300460693359375,4.834940615081787,8.461108666992187,-0.3113958534240722
1759655065716544000,1.3105439453125,4.838831192779541,8.43297679748535,-0.3232172241210937
1759655065726626800,1.320626708984375,4.872200378417968,8.431031508636474,-0.3280056274414062
1759655065736710000,1.3307099609375,4.899883335113525,8.40170253829956,-0.299424845123291
1759655065746793700,1.340793701171875,4.912602531433105,8.410680794525145,-0.33967736053466796
1759655065756876800,1.350876708984375,4.887463414001465,8.419060500335693,-0.3672106796264648
1759655065766959900,1.3609599609375,4.876689506530761,8.393173194885254,-0.37394437179565426
1759655065777043000,1.37104296875,4.893897830963135,8.352771041870117,-0.3553893089294433
1759655065787125800,1.381125732421875,4.893299280548096,8.301594981384277,-0.3295020034790039
1759655065797208800,1.391208740234375,4.874295304870605,8.259097901916503,-0.28266543350219725
1759655065807293000,1.40129296875,4.847360536193848,8.276455863952636,-0.2337339370727539
1759655065817376000,1.4113759765625,4.825363808441161,8.282591005706786,-0.1897404815673828
1759655065827458800,1.421458740234375,4.833294601440429,8.254309498596191,-0.14290391159057617
1759655065837542000,1.4315419921875,4.878185882568359,8.163180197906494,-0.06015431671142578
1759655065847624700,1.441624755859375,4.938489836883544,8.05035344467163,0.006434416961669922
1759655065857707800,1.451707763671875,4.969913733673096,8.004414700317382,0.047285482788085934
1759655065867792000,1.4617919921875,4.946270992279053,8.011597305297851,0.06209960556030273
1759655065877875000,1.471875,4.945971717071533,8.03838243637085,0.08723872299194335
1759655065887957800,1.481957763671875,4.927267016601562,8.040178087615967,0.08215104446411133
1759655065898040800,1.492040771484375,4.93474889678955,7.975085729980468,0.11192892761230468
1759655065908123600,1.50212353515625,4.950909757995605,7.892934685516357,0.14589666366577148
1759655065918207000,1.51220703125,4.982184017181396,7.804199586486816,0.1758241844177246
1759655065928290800,1.522290771484375,5.007023859405518,7.74419490737915,0.20635025558471679
1759655065938374000,1.532373779296875,5.029319862365722,7.759457942962646,0.17642273483276366
1759655065948456700,1.542456787109375,5.078849909210205,7.879168025970459,0.14335282440185546
1759655065958539800,1.552539794921875,5.117606048583984,8.023119400787353,0.060603229522705075
1759655065968622800,1.562622802734375,5.098751710510253,8.193257356262206,-0.042048166656494135
1759655065978706000,1.572705810546875,5.052962603759766,8.34424169845581,-0.1379658706665039
1759655065988789800,1.582789794921875,4.979939453125,8.457816639709472,-0.24615385818481444
1759655065998872800,1.592872802734375,4.847061260986328,8.537872757720947,-0.3064578125
1759655066008955600,1.60295556640625,4.731989943695068,8.564358613586425,-0.3298012786865234
1759655066019039000,1.6130390625,4.627542896270752,8.488492348480223,-0.3359364204406738
1759655066029121800,1.623121826171875,4.542997650146484,8.37641378326416,-0.2941875289916992
1759655066039204900,1.633204833984375,4.518008170318604,8.242937040710448,-0.26964696197509763
1759655066049288700,1.643288818359375,4.530428091430664,8.134749053192138,-0.2567781280517578
1759655066059371800,1.653371826171875,4.50109912109375,8.084321180725096,-0.2825157958984375
1759655066069454800,1.663454833984375,4.459948780059814,8.110358123779296,-0.2688987739562988
1759655066079538000,1.673537841796875,4.394407509613037,8.132654126739501,-0.27293898925781246
1759655066089620700,1.683620849609375,4.305822048187256,8.136245429229735,-0.2567781280517578
1759655066099703800,1.693703857421875,4.267664459228516,8.173505192565917,-0.17821838607788085
1759655066109788000,1.703787841796875,4.21978042602539,8.180089247131347,-0.07122749938964844
1759655066119871000,1.71387109375,4.164414512634277,8.156895418548583,0.028730419921875
1759655066129953800,1.723953857421875,4.095581214904785,8.170063527679442,0.12823942642211913
1759655066140036900,1.734036865234375,4.052485585021972,8.232911321258545,0.19557634811401367
1759655066150119700,1.74411962890625,4.033930522155761,8.298302954101562,0.21951836471557615
1759655066160202800,1.75420263671875,3.998616047668457,8.317905480194092,0.22939444656372068
1759655066170286800,1.764286865234375,3.9407062950134275,8.29860222930908,0.21727380065917967
1759655066180370000,1.774369873046875,3.858106337738037,8.248174356842041,0.1571194839477539
1759655066190452700,1.78445263671875,3.7907694160461425,8.211962056732178,0.09965864410400391
1759655066200536000,1.7945361328125,3.6227263870239255,8.258648989105223,0.03621230010986328
1759655066210619000,1.804618896484375,3.3864486106872556,8.443002516937256,-0.04534019393920898
1759655066220702200,1.8147021484375,3.1006407875061033,8.747515040588379,-0.11956044540405272
1759655066230786000,1.8247861328125,2.8755858314514158,9.082403997802734,-0.12240355987548827
1759655066240869000,1.834869140625,2.717568521881103,9.37868645324707,-0.18854338073730467
1759655066250952000,1.844951904296875,2.6509797882080077,9.58279214477539,-0.2911947769165039
1759655066261035000,1.855034912109375,2.6198551666259764,9.745148944854735,-0.41105449752807616
1759655066271118000,1.8651181640625,2.6138696624755857,9.900772052764893,-0.48243163452148435
1759655066281201200,1.875201171875,2.5472809288024902,10.030358217620849,-0.4927566291809082
1759655066291285000,1.885284912109375,2.3994389762878416,10.174908142852782,-0.48033670806884765
1759655066301368000,1.8953681640625,2.072929724884033,10.43916815109253,-0.49260699157714843
1759655066311451000,1.905450927734375,1.6243161888122557,10.761038636779784,-0.4885667762756347
1759655066321534200,1.9155341796875,1.236006607055664,11.010933435058593,-0.47285482788085936
1759655066331617000,1.925616943359375,0.8863035270690918,11.148001480102538,-0.44636897201538084
1759655066341700000,1.9357001953125,0.6317699630737305,11.154435897064209,-0.4008791404724121
1759655066351784000,1.945783935546875,0.532410594177246,11.123460913085937,-0.28086978225708004
1759655066361867300,1.9558671875,0.500537784576416,11.198578990173338,-0.02977788314819336
1759655066371950000,1.9659501953125,0.4418798439025879,11.401038668060302,0.2932897033691406
1759655066382033200,1.976033203125,0.21862053909301757,11.735029799652098,0.6679822631835937
1759655066392116000,1.986115966796875,-0.11133037719726561,12.121843005371092,1.0527005424499511
1759655066402199000,1.996198974609375,-0.5556044227600098,12.49414136352539,1.4665981544494628
1759655066412282000,2.0062822265625,-1.0793360359191895,12.682535106658936,1.9571102195739745
1759655066422366200,2.0163662109375,-1.7034744812011717,12.712312989807128,2.512265729522705
1759655066432449000,2.026448974609375,-2.2752397651672362,12.530652938842772,3.1857845840454098
1759655066442532000,2.036531982421875,-2.600252640533447,12.182146959686278,3.7829882606506344
1759655066452615000,2.046614990234375,-2.693027954864502,11.737274363708496,4.097077590942383
1759655066462698000,2.056697998046875,-2.572420046234131,11.315296321105956,4.080467816925049
1759655066472781000,2.066781005859375,-2.4058733932495118,10.926687464141844,3.768473413085937
1759655066482865200,2.076865234375,-2.3116017028808593,10.608707556152343,3.425803300476074
1759655066492948000,2.086947998046875,-2.262520568847656,10.347440299987792,3.0856770271301266
1759655066503031000,2.097031005859375,-2.3391350219726563,10.173860679626465,2.8752865562438963
1759655066513113900,2.10711376953125,-2.6062381446838376,10.065074141693115,2.761262702178955
1759655066523197200,2.117197265625,-3.158849815368652,9.952097750854492,2.653224352264404
1759655066533281000,2.127281005859375,-3.9146693519592284,9.900472777557372,2.6200048042297364
1759655066543364000,2.137364013671875,-4.675726204681396,9.945663333892822,2.648286311340332
1759655066553447000,2.147447021484375,-5.317671524810791,10.100687891387938,2.702604761505127
1759655066563530000,2.157530029296875,-5.612906517028808,10.44470474243164,2.781164503479004
1759655066573613000,2.167613037109375,-5.537040251922607,10.942100137329101,2.853140190887451
1759655066583696100,2.177696044921875,-5.236717581176758,11.608436386871338,2.957138325500488
1759655066593779200,2.187779296875,-4.896142395019531,12.314576239013672,3.073855656433105
1759655066603863000,2.197863037109375,-4.644900858306885,12.935123381805418,3.147028444671631
1759655066613945900,2.20794580078125,-4.528931715393066,13.447632174682616,3.1953613906860348
1759655066624029200,2.218029296875,-4.599859939575195,13.768455197143554,3.197306679534912
1759655066634112000,2.228112060546875,-4.832546413421631,13.898340637207031,3.1847371208190918
1759655066644195000,2.238195068359375,-5.1782092781066895,13.902081577301024,3.0494647270202635
1759655066654278100,2.248278076171875,-5.69490792388916,13.786112434387206,2.8553847549438474
1759655066664362200,2.2583623046875,-5.984755962371826,13.443591959381102,2.505083124542236
1759655066674445000,2.268445068359375,-5.374533814239502,12.886341522979736,2.0184616371154784
1759655066684528000,2.278528076171875,-4.1846155891418455,12.166584648895263,1.4893430702209471
1759655066694611200,2.288611083984375,-3.357418915557861,11.449371614074707,1.0896610305786132
1759655066704694000,2.298694091796875,-3.1917700881958004,10.927435652160645,0.9808744926452636
1759655066714777000,2.308777099609375,-3.464260164642334,10.735600244140624,1.066916114807129
1759655066724861200,2.318861083984375,-3.7434839332580565,10.7007346824646,1.2298714653015137
1759655066734944000,2.328944091796875,-3.962104472351074,10.71869119491577,1.3869909492492676
1759655066745027000,2.339027099609375,-4.106654397583007,10.73799444580078,1.520168416595459
1759655066755110100,2.349110107421875,-4.10515802154541,10.731111116027831,1.6424223388671875
1759655066765193000,2.35919287109375,-3.8850411064147945,10.678139404296875,1.8050784141540526
1759655066775276300,2.3692763671875,-3.5571851165771484,10.618882913208008,1.9511247154235838
1759655066785360100,2.379360107421875,-3.2022447204589843,10.501267756652831,2.2008698760986327
1759655066795443000,2.38944287109375,-2.9007249488830564,10.42644895477295,2.486079148864746
1759655066805526000,2.399526123046875,-2.7349264839172363,10.357316381835936,2.7023054862976075
1759655066815609000,2.409609130859375,-2.6514287010192867,10.321403356933594,2.8303952751159667
1759655066825692200,2.419692138671875,-2.684498611450195,10.258705200958252,2.864811923980713
1759655066835775200,2.429775146484375,-2.748543505859375,10.089165795898436,2.805405795288086
1759655066845859000,2.439859130859375,-2.744054377746582,9.837026433563231,2.744054377746582
1759655066855942000,2.44994189453125,-2.6345196517944336,9.572018237304688,2.5948656867980957
1759655066866025000,2.46002490234375,-2.5137621055603026,9.31374373321533,2.385373041534424
1759655066876108300,2.4701083984375,-2.4250270065307618,9.056217417144774,2.1930887207031247
1759655066886191000,2.480191162109375,-2.379986087799072,8.737788596343993,1.9876362907409666
1759655066896274200,2.490274169921875,-2.352452768707275,8.454075699615478,1.8568530250549315
1759655066906358000,2.50035791015625,-2.2934955528259278,8.220790675354003,1.7755998062133789
1759655066916441000,2.510441162109375,-2.196979298400879,8.043021202087402,1.8103157302856445
1759655066926524200,2.520524169921875,-2.126350349426269,7.858518036651611,1.9373580558776855
1759655066936607200,2.530607177734375,-2.044199304962158,7.6565072715759275,2.032527571868896
1759655066946690000,2.54068994140625,-1.9451392112731933,7.448062089538574,2.0527286483764646
1759655066956773000,2.550773193359375,-1.8664298316955565,7.293486444854736,2.039859814453125
1759655066966857000,2.56085693359375,-1.8104653678894043,7.189787585449218,2.001702225494385
1759655066976940000,2.57093994140625,-1.741033519744873,7.155071661376953,1.9610007972717285
1759655066987023000,2.581023193359375,-1.6231190879821777,7.229740825653076,1.8332102836608886
1759655066997106200,2.591106201171875,-1.3440449569702149,7.39957950592041,1.5791256324768066
1759655067007189000,2.60118896484375,-0.9882067352294921,7.568969273376465,1.13006318359375
1759655067017272000,2.61127197265625,-0.7386112121582031,7.639448584747314,0.522235237121582
1759655067027356200,2.621356201171875,-0.5698199951171875,7.636006919860839,-0.10863690032958984
1759655067037439200,2.631439208984375,-0.40716391983032224,7.554454425811767,-0.690128628540039
1759655067047522000,2.64152197265625,-0.2371756019592285,7.3754878517150875,-1.179293955230713
1759655067057605000,2.651605224609375,0.014814122772216796,7.060500695800781,-1.5803227333068848
1759655067067688000,2.66168798828125,0.3661632164001465,6.673388214874267,-1.8050784141540526
1759655067077771300,2.671771240234375,0.7579144630432129,6.306776085662841,-1.8017863868713377
1759655067087855000,2.681855224609375,1.1022305892944335,6.051045420837402,-1.5705962890624998
1759655067097938200,2.691938232421875,1.533486163330078,6.048202306365966,-1.2767080352783202
1759655067108021000,2.70202099609375,2.005293527984619,6.278195303344726,-0.9834183319091796
1759655067118104000,2.71210400390625,2.4947581298828125,6.616825200653076,-0.8194155181884765
1759655067128187100,2.722187255859375,2.897283283996582,6.9150529449462885,-0.8002619049072265
1759655067138270200,2.732270263671875,3.132214321899414,7.0944684318542475,-0.9736918876647949
1759655067148353000,2.74235302734375,3.210774063873291,7.093720243835449,-1.2274772636413573
1759655067158437000,2.75243701171875,3.2754175086975095,6.913556568908691,-1.4399626609802245
1759655067168520000,2.76252001953125,3.407846788024902,6.721870798492431,-1.5987281585693358
1759655067178603300,2.772603271484375,3.6707600578308104,6.699874070739746,-1.7963994331359863
1759655067188686000,2.78268603515625,3.891176248168945,6.921936274719238,-2.00439570236206
1759655067198769000,2.792768798828125,4.0252515411376955,7.245452774047851,-2.155230406951904
1759655067208851700,2.802851806640625,4.110544975280762,7.544877619171142,-2.1871032165527344
1759655067218935800,2.812935791015625,4.168155452728271,7.711274634552002,-2.029684457397461
1759655067229019000,2.823018798828125,4.2217257148742675,7.7130702857971185,-1.7781436454772948
1759655067239102000,2.83310205078125,4.395604610443115,7.563432682037353,-1.4354735328674315
1759655067249184800,2.843184814453125,4.62230558013916,7.331344758605956,-1.0925041450500488
1759655067259267800,2.853267822265625,4.830301849365234,7.153575285339355,-0.8084919731140137
1759655067269350700,2.8633505859375,5.051316590118408,7.082497423553466,-0.6030395431518555
1759655067279435000,2.87343505859375,5.184643695068359,7.084891625213623,-0.4381389038085937
1759655067289517800,2.883517822265625,5.220107807159423,7.069778227233886,-0.34386721343994137
1759655067299601000,2.893600830078125,5.32440521697998,7.090577854156494,-0.22565350646972654
1759655067309683700,2.90368359375,5.505915630340576,7.122301026153564,-0.07003039855957031
1759655067319766800,2.913766845703125,5.670516994476318,7.029376074218749,0.17642273483276366
1759655067329849600,2.923849609375,5.729773485565185,6.988973921203613,0.44592005920410155
1759655067339934000,2.933933837890625,5.745485433959961,7.024438033294677,0.6711246528625487
1759655067350016800,2.944016845703125,5.800252796936035,6.99091921005249,0.81073653717041
1759655067360099800,2.954099853515625,5.833771620178222,6.932560544586181,0.8632593360900879
1759655067370182700,2.9641826171875,5.9032034683227534,6.80596713180542,0.8825625869750976
1759655067380265700,2.974265625,5.876268699645996,6.648698010253906,0.852335791015625
1759655067390348800,2.984348876953125,6.021716450500488,6.516119093322754,0.8812158485412597
1759655067400433000,2.994432861328125,6.097881990814209,6.479906793212891,0.8533832542419433
1759655067410515700,3.004515625,6.070947222137451,6.56310530090332,0.7733271362304687
1759655067420598800,3.014598876953125,6.147112762451171,6.644657794952392,0.7410054138183594
1759655067430681900,3.024681884765625,6.164620362091064,6.635978813934326,0.680551821899414
1759655067440765000,3.034764892578125,6.096684889984131,6.478560054779052,0.673518854522705
1759655067450847700,3.04484765625,6.099976917266845,6.317250717926025,0.7474398307800293
1759655067460931800,3.054931884765625,6.21190584487915,6.275352188873291,0.9359832115173339
1759655067471014700,3.0650146484375,6.3521162796020505,6.350170990753173,1.1969511924743652
1759655067481098000,3.075097900390625,6.39087241897583,6.415263348388671,1.3838485595703125
1759655067491180800,3.085180908203125,6.456264051818847,6.516418368530273,1.4682441680908203
1759655067501264000,3.095263916015625,6.466289771270752,6.55667088394165,1.4398130233764648
1759655067511347000,3.105346923828125,6.568492254638672,6.581660363769531,1.372027188873291
1759655067521429800,3.1154296875,6.643460694122314,6.549039366149902,1.2898761444091795
1759655067531513900,3.125513916015625,6.655880615234374,6.504896273040771,1.2062287239074707
1759655067541597000,3.135596923828125,6.587795505523681,6.515520542907715,1.13006318359375
1759655067551679700,3.1456796875,6.6154784622192375,6.615927375030517,1.14278237991333
1759655067561762800,3.1557626953125,6.681917558288574,6.730849054718017,1.1649287452697754
1759655067571846000,3.165845947265625,6.797886701202392,6.85654464187622,1.2603975364685058
1759655067581928700,3.1759287109375,6.913107656097412,6.910264541625976,1.3385083656311034
1759655067592012800,3.1860126953125,6.924929026794433,6.926425402832031,1.4158710067749023
1759655067602095900,3.196095947265625,6.8876692634582515,6.889614552307129,1.526602833557129
1759655067612178700,3.2061787109375,6.803273654937744,6.863577609252929,1.5861585998535155
1759655067622261800,3.21626171875,6.708104138946533,6.851606600952148,1.626710390472412
1759655067632344800,3.2263447265625,6.629394759368896,6.870012026214599,1.5774796188354492
1759655067642428000,3.236427978515625,6.60799658203125,6.908768165588379,1.4643535903930662
1759655067652511700,3.24651171875,6.675034228515624,6.951714157867431,1.343895319366455
1759655067662594800,3.2565947265625,6.715885294342041,7.0370075920104975,1.2315174789428711
1759655067672677600,3.266677734375,6.706458125305176,7.127687979888916,1.1794435928344726
1759655067682760700,3.2767607421875,6.749254479980468,7.18844084701538,1.1469722328186034
1759655067692844000,3.286843994140625,6.751947956848144,7.166144844055175,1.1487678840637205
1759655067702926800,3.2969267578125,6.7757403358459465,7.103446688079834,1.1158476112365723
1759655067713010000,3.307010009765625,6.874800429534912,7.061847434234619,1.0485106895446776
1759655067723093800,3.31709375,6.88258158493042,7.10584088973999,0.9464578437805176
1759655067733176800,3.3271767578125,6.84382544555664,7.110928568267822,0.8049006706237792
1759655067743260000,3.337260009765625,6.787561706542968,7.1203557373046875,0.745045629119873
1759655067753343000,3.347343017578125,6.665906334686279,7.12499450302124,0.7829039428710937
1759655067763425800,3.35742578125,6.555324145507812,7.165845568847656,0.8610147720336914
1759655067773508900,3.3675087890625,6.598419775390624,7.152228546905517,0.8880991783142089
1759655067783593000,3.377593017578125,6.617274113464355,7.154772386169433,0.9311948081970214
1759655067793675800,3.38767578125,6.461501367950439,7.190835048675536,0.9115922821044922
1759655067803758800,3.3977587890625,6.40389089050293,7.179163315582275,0.795473501586914
1759655067813842000,3.407842041015625,6.376806484222412,7.20759446029663,0.7417536018371581
1759655067823924700,3.4179248046875,6.313060865020751,7.168239770507812,0.7136217323303222
1759655067834007800,3.4280078125,6.228216343688964,7.100304298400879,0.7202057868957519
1759655067844092000,3.438091796875,6.235548586273193,7.0741177177429195,0.8586205703735351
1759655067854175000,3.448175048828125,6.32084202041626,7.080701772308349,1.020827732849121
1759655067864257800,3.4582578125,6.348824252319336,7.133673484039306,1.1462240447998047
1759655067874340900,3.4683408203125,6.402693789672851,7.18245534286499,1.1773486663818358
1759655067884423700,3.478423583984375,6.364236925506591,7.247248425292969,1.131260284423828
1759655067894507000,3.488507080078125,6.2204351882934565,7.2717889923095695,1.0269628746032715
1759655067904590800,3.4985908203125,6.280739142608642,7.261314360046386,0.8928875816345214
1759655067914674000,3.508673828125,6.204573602294921,7.2803183357238765,0.8098387115478515
1759655067924756700,3.5187568359375,6.215347509765625,7.3085998428344725,0.7628525039672851
1759655067934839800,3.52883984375,6.253654736328125,7.400626969146728,0.7483376564025879
1759655067944923000,3.5389228515625,6.158185945129394,7.51450118560791,0.7704840217590332
1759655067955006000,3.549005859375,6.062118603515625,7.583035208129882,0.7653963432312011
1759655067965088800,3.5590888671875,6.09683452758789,7.633313442993163,0.7876923461914062
1759655067975172900,3.5691728515625,6.077531276702881,7.634360906219482,0.7835024932861328
1759655067985255700,3.579255615234375,6.085462069702148,7.5902178131103515,0.845901374053955
1759655067995339000,3.589339111328125,6.187215640258788,7.563432682037353,0.9445125549316405
1759655068005421800,3.599421875,6.244526842498779,7.586925785827637,0.9894038360595703
1759655068015505000,3.6095048828125,6.278045665740966,7.625532287597656,1.0051157844543457
1759655068025587700,3.619587646484375,6.334309404754638,7.613112366485595,0.9696516723632812
1759655068035671800,3.629671875,6.415562623596191,7.639598222351074,0.8987234481811522
1759655068045755000,3.6397548828125,6.436811163330078,7.658153285217285,0.8436568099975585
1759655068055838000,3.649837890625,6.36513475112915,7.663540238952637,0.7906850982666015
1759655068065920800,3.659920654296875,6.348225701904297,7.639747859954833,0.7888894470214843
1759655068076003800,3.67000390625,6.367528952789306,7.652616693878174,0.8493430389404296
1759655068086086700,3.680086669921875,6.3980550239562985,7.681197476196289,0.9071031539916992
1759655068096169700,3.690169677734375,6.443095942687988,7.687781530761718,0.9229647399902343
1759655068106253800,3.70025390625,6.456264051818847,7.7224974548339835,0.9353846611022949
1759655068116337000,3.7103369140625,6.407332555389404,7.702146740722656,0.903362213897705
1759655068126419700,3.720419677734375,6.386981841278076,7.664587702178955,0.9041104019165038
1759655068136502800,3.730502685546875,6.3633390998840325,7.603834835052489,0.9569324760437011
1759655068146585900,3.7405859375,6.347926426696777,7.529464945983887,0.985064345550537
1759655068156669000,3.7506689453125,6.3898249557495115,7.476343596649169,1.0003273811340332
1759655068166752800,3.760752685546875,6.319345644378662,7.459584185028076,0.9856628959655761
1759655068176835800,3.7708359375,6.242431916046142,7.46272657470703,0.9726444244384765
1759655068186918700,3.780918701171875,6.256198575592041,7.486518953704834,0.9504980590820312
1759655068197002000,3.791001953125,6.245275030517578,7.518541400909424,0.860565859222412
1759655068207085000,3.8010849609375,6.093392862701416,7.552060224151611,0.7821557548522948
1759655068217168100,3.811168212890625,6.046406655120849,7.563881594848632,0.6884826148986816
1759655068227251200,3.821251220703125,6.079177290344238,7.56492905807495,0.6329670639038085
1759655068237335300,3.831335205078125,6.147561675262451,7.572710213470459,0.6292261238098145
1759655068247418000,3.841418212890625,6.189460204315186,7.5816884696960445,0.706139852142334
1759655068257501200,3.851501220703125,6.180781223297119,7.617152581787109,0.8051999458312988
1759655068267584000,3.861583984375,6.09054974822998,7.691372833251953,0.8807669357299804
1759655068277667300,3.871667236328125,6.026953766632079,7.755417727661133,0.927004955291748
1759655068287750100,3.881750244140625,5.999570085144042,7.787589812469482,0.9409212524414062
1759655068297834200,3.891834228515625,6.031442894744873,7.792827128601074,0.9325415466308593
1759655068307917000,3.9019169921875,6.056731649780273,7.741800705718994,0.9190741622924804
1759655068318000400,3.91200048828125,6.079476565551757,7.7334209999084464,0.9145850341796874
1759655068328083200,3.922083251953125,6.096235977172851,7.714417024230957,0.8677484642028808
1759655068338166300,3.932166259765625,6.049399407196044,7.740603604888916,0.817769504547119
1759655068348249000,3.9422490234375,6.003311025238037,7.73776049041748,0.755220986175537
1759655068358333200,3.952333251953125,6.027851592254638,7.670722843933105,0.701650724029541
1759655068368416300,3.962416259765625,6.048202306365966,7.580192093658447,0.7203554244995117
1759655068378499300,3.972499267578125,6.025008477783203,7.578546080017089,0.8708908538818358
1759655068388582100,3.98258203125,5.989694003295898,7.6108678024291985,1.0570400329589844
1759655068398665200,3.992665283203125,5.9953802322387695,7.658602198028564,1.192013151550293
1759655068408748000,4.002748046875,6.0425160774230955,7.682095301818848,1.2259808876037597
1759655068418831000,4.0128310546875,6.088155546569824,7.649175028991698,1.1459247695922852
1759655068428915200,4.022915283203125,6.052990709686279,7.653364881896972,1.0586860466003418
1759655068438998300,4.032998291015625,5.993883856201172,7.660397849273681,0.9675567459106444
1759655068449081000,4.0430810546875,5.86744008102417,7.663390601348876,0.9614216041564941
1759655068459164200,4.0531640625,5.84140313796997,7.634360906219482,0.9882067352294921
1759655068469247000,4.0632470703125,5.850680669403076,7.6850880538940425,1.0146925910949707
1759655068479330300,4.073330322265625,5.80997924118042,7.7210010787963865,1.0512041664123535
1759655068489414100,4.0834140625,5.823895538330078,7.753173163604736,1.0634744499206543
1759655068499497200,4.093497314453125,5.847687917327881,7.797465894317627,1.0529998176574706
1759655068509580000,4.103580078125,5.916670852661133,7.7886372756958,1.0079588989257813
1759655068519663000,4.1136630859375,5.910086798095703,7.7596075805664055,1.0027215827941893
1759655068529746200,4.12374609375,5.866542255401611,7.753622076416015,1.0411784469604493
1759655068539829200,4.133829345703125,5.792621279144287,7.757811929321289,1.0583867713928221
1759655068549912300,4.143912353515625,5.849184293365478,7.725490206909179,1.0739490821838378
1759655068559996200,4.15399609375,5.865794067382812,7.709478983306885,1.106420442199707
1759655068570079000,4.164078857421875,5.8743234107971185,7.6759601600646965,1.1067197174072265
1759655068580162300,4.174162353515625,5.837961473083496,7.665186252593994,1.1348515869140625
1759655068590245000,4.1842451171875,5.857414361572265,7.671620669555663,1.1086650062561034
1759655068600328200,4.194328125,5.805789388275146,7.700800002288818,1.0785878479003905
1759655068610411300,4.204411376953125,5.741295581054687,7.710825721740722,1.0277110626220702
1759655068620494000,4.214494140625,5.764190134429931,7.722946367645263,0.9834183319091796
1759655068630578200,4.224578125,5.7597010063171385,7.789834376525879,1.0108020133972166
1759655068640661200,4.2346611328125,5.749525649261474,7.871386870574951,1.028608888244629
1759655068650744300,4.244744384765625,5.729623847961426,7.896376350402831,1.0537480056762694
1759655068660827100,4.2548271484375,5.700145240020752,7.934085026550292,1.052850180053711
1759655068670910200,4.26491015625,5.685929667663574,7.9569795799255365,1.0691606788635253
1759655068680993300,4.2749931640625,5.743091232299804,7.952640089416503,1.0773907470703123
1759655068691077000,4.2850771484375,5.71361262435913,7.963563634490966,1.0420762725830077
1759655068701160200,4.29516015625,5.696703575134277,7.914931413269042,1.0226233840942383
1759655068711243300,4.3052431640625,5.658845261383056,7.8818615028381345,1.018283893585205
1759655068721326000,4.315326171875,5.6181438331604,7.838017684936523,1.0301052642822266
1759655068731409400,4.325409423828125,5.6091655769348145,7.826645227050781,1.0868179161071776
1759655068741492200,4.3354921875,5.576544579315185,7.845200289916992,1.1417349166870117
1759655068751575300,4.3455751953125,5.600336958312988,7.858218761444092,1.1819874320983885
1759655068761659100,4.3556591796875,5.613804342651367,7.895927437591553,1.2125135032653809
1759655068771742200,4.3657421875,5.631760855102539,7.93573104019165,1.223137773132324
1759655068781825300,4.3758251953125,5.6574985229492185,7.979574858093261,1.203984159851074
1759655068791908400,4.385908447265625,5.692513722229004,7.96161834564209,1.1394903526306153
1759655068801991200,4.3959912109375,5.666327141571045,7.953986827850342,1.0850222648620604
1759655068812074200,4.40607421875,5.61829347076416,7.914033587646484,1.0473135887145995
1759655068822158000,4.416157958984375,5.595847830200195,7.874080347442627,1.0773907470703123
1759655068832241400,4.426241455078125,5.551106186676025,7.877970925140381,1.0911574066162109
1759655068842324200,4.43632421875,5.48376926498413,7.898471276855468,1.1062708045959473
1759655068852407300,4.4464072265625,5.495141722869873,7.895927437591553,1.0938508834838867
1759655068862490000,4.456489990234375,5.5270145324707025,7.906252432250976,1.0529998176574706
1759655068872573200,4.4665732421875,5.497984837341308,7.852083619689941,1.0299556266784666
1759655068882656000,4.476656005859375,5.456984133911132,7.722647092437744,0.9507973342895507
1759655068892740400,4.486740234375,5.3028574020385735,7.832930006408691,0.9914987625122069
1759655068902823200,4.4968232421875,5.26739328994751,8.055590760803222,1.1637316444396972
1759655068912906200,4.50690625,5.231929177856445,8.01249513092041,1.2003928573608398
1759655068922989000,4.516989013671875,5.294627333831786,7.902960404968261,1.1558008514404297
1759655068933072100,4.527072021484375,5.366154108428955,7.957129217529296,1.1806406936645508
1759655068943155200,4.5371552734375,5.440673635101318,7.99334151763916,1.271769994354248
1759655068953238300,4.54723828125,5.636249983215332,7.98032304611206,1.3748703033447265
