time,seconds_elapsed,z,y,x
1757614112969381400,0.05238134765625,9.22998700712025,3.1819474901005624,-0.9235437819872051
1757614112979338200,0.062338134765625,9.230278099021316,3.180383017262816,-0.9260203281685709
1757614112989295400,0.07229541015625,9.22937442817986,3.1805259328648448,-0.9345012293312698
1757614112999252200,0.082252197265625,9.22782369160652,3.1799443335846065,-0.9516325430046766
1757614113009208300,0.092208251953125,9.22622034806311,3.1771766224369404,-0.9761104200486094
1757614113019165200,0.102165283203125,9.225258225032686,3.1706825842425226,-1.0058649953864514
1757614113029122300,0.112122314453125,9.225341227141023,3.1597669302135705,-1.0389105750937013
1757614113039079200,0.1220791015625,9.226698486968875,3.1444281990453598,-1.0728412670724092
1757614113049036300,0.132036376953125,9.229908681187034,3.1261776720836756,-1.0982621971201152
1757614113058993400,0.141993408203125,9.235071763038635,3.1074107200324534,-1.1080783654745667
1757614113068949200,0.15194921875,9.240015649181604,3.0939062185540793,-1.104642180480808
1757614113078906400,0.16190625,9.241206320270896,3.0944355031251907,-1.0931420776274055
1757614113088863500,0.171863525390625,9.236130332180856,3.1132872108504173,-1.0824611091371625
1757614113098820000,0.181820068359375,9.225210878759622,3.1476921692773696,-1.0760578179661184
1757614113108777200,0.191777099609375,9.210251794558763,3.192612091977894,-1.0718564938187598
1757614113118734300,0.201734375,9.19205329004526,3.2439179163232446,-1.0740293078131973
1757614113128690200,0.211690185546875,9.171421420904993,3.297432941150665,-1.087358671920374
1757614113138647300,0.221647216796875,9.150680246171355,3.3479254032865167,-1.107623680509627
1757614113148604200,0.231604248046875,9.134322985610366,3.3888661932229995,-1.1180839189212768
1757614113158561300,0.241561279296875,9.125271079626678,3.41719446208477,-1.1057118555389345
1757614113168518400,0.251518310546875,9.11998817078769,3.44100116186887,-1.075037754203379
1757614113178475300,0.261475341796875,9.110458710420131,3.4761724284932014,-1.0421871856115759
1757614113188431400,0.271431396484375,9.090863198590277,3.5318075142145156,-1.0261214553430675
1757614113198388200,0.28138818359375,9.059765465015172,3.6088118434399363,-1.033202426579967
1757614113208345000,0.291344970703125,9.020967824587226,3.6973449901565907,-1.0593189376763998
1757614113218302200,0.30130224609375,8.982758213180302,3.779785080695152,-1.0925512721274047
1757614113228259300,0.31125927734375,8.95305397979021,3.8425808518260713,-1.1170412049353122
1757614113238215200,0.321215087890625,8.934363892367482,3.883561973772943,-1.1249319581851362
1757614113248172300,0.33117236328125,8.923528610098362,3.910054551640153,-1.1191492100652307
1757614113258129400,0.34112939453125,8.915614183712005,3.931387262526154,-1.1074294731117784
1757614113268086300,0.351086181640625,8.907506280580163,3.9520866439446807,-1.098965303888172
1757614113278043400,0.36104345703125,8.900008033779264,3.968704309007525,-1.0998328805029391
1757614113288000300,0.371000244140625,8.894614065781235,3.9798376974403857,-1.1032318752914667
1757614113297956400,0.380956298828125,8.89031549180448,3.988649657188356,-1.1060535085834562
1757614113307913200,0.390913330078125,8.889470273151993,3.9891254580065607,-1.1111177331704645
1757614113317870000,0.4008701171875,8.896009904053807,3.970764456407726,-1.1244655827824026
1757614113327827200,0.4108271484375,8.908278433996438,3.9372242981165644,-1.1450862729415296
1757614113337784300,0.420784423828125,8.929749676570296,3.8926375528931616,-1.1301925821270793
1757614113347740200,0.430740234375,8.95766410393417,3.845649591746926,-1.0684642210319637
1757614113357697300,0.440697265625,8.983169132068753,3.8024069546088572,-1.0073537726394832
1757614113367654400,0.450654296875,9.005626463070511,3.7604254234477876,-0.9634712301626801
1757614113377611300,0.460611328125,9.026557022896409,3.718666595126688,-0.9290708017803728
1757614113387568000,0.470568115234375,9.04535407782495,3.6793624664813276,-0.9023568362474441
1757614113397525200,0.480525146484375,9.061196374601126,3.6448341739356516,-0.883340439479798
1757614113407481000,0.490481201171875,9.075833971762657,3.61696387797445,-0.8468719726517796
1757614113417438200,0.500438232421875,9.09009338326156,3.5940365913733836,-0.7896135235123336
1757614113427395300,0.510395263671875,9.104352210238575,3.5742180844426152,-0.7114229071117937
1757614113437352200,0.520352294921875,9.115467478492855,3.561804008549452,-0.6262509804565459
1757614113447309300,0.530309326171875,9.118317607226967,3.5669951474517583,-0.5506461792981252
1757614113457265400,0.540265380859375,9.115854431983829,3.5825334928452968,-0.4868605203470215
1757614113467222300,0.55022216796875,9.111796681025623,3.597518003748357,-0.4510041210027411
1757614113477179400,0.560179443359375,9.10537220093608,3.6131659469962116,-0.4556396353162825
1757614113487136300,0.57013623046875,9.097023474785685,3.633013095499575,-0.46450646705664694
1757614113497093000,0.580093017578125,9.089933224263786,3.650935705681145,-0.4627760265348479
1757614113507050200,0.59005029296875,9.085030254653097,3.662978025652468,-0.4638957878123969
1757614113517006000,0.600006103515625,9.081111035382747,3.6723166396230456,-0.46679351854789997
1757614113526963200,0.609963134765625,9.078978115007281,3.679020813436806,-0.4553593570701778
1757614113536920300,0.61992041015625,9.079094434863329,3.6830998994439836,-0.41858039952088144
1757614113546877200,0.629877197265625,9.079697661453485,3.6882717491239307,-0.3551373434623703
1757614113556834300,0.639834228515625,9.078992728054523,3.6971722639381883,-0.2705400931562297
1757614113566790400,0.649790283203125,9.076180008721352,3.710276367922127,-0.16489873964712023
1757614113576747300,0.659747314453125,9.070870211875437,3.726664315882325,-0.0408536094099516
1757614113586704100,0.6697041015625,9.062786274141073,3.7453766151368617,0.09190402965554967
1757614113596661200,0.6796611328125,9.056084146153927,3.7566637328267096,0.21260107787409796
1757614113606618000,0.6896181640625,9.053272011342644,3.7565409832298755,0.31153489656858147
1757614113616574200,0.69957421875,9.054189710709451,3.7478818759560584,0.3813346281774342
1757614113626531300,0.70953125,9.060620036017895,3.728581547680497,0.4162033316586166
1757614113636488200,0.71948828125,9.074683048161864,3.6935257241293784,0.42235290379691864
1757614113646445300,0.7294453125,9.09292948347032,3.6487265051990745,0.4193016995327547
1757614113656402400,0.73940234375,9.112046856394409,3.601272387845814,0.4145119079729542
1757614113666359300,0.749359375,9.131229695770143,3.552922490696609,0.40959903802275655
1757614113676315400,0.7593154296875,9.148310009908675,3.5077690515011546,0.4175667654989287
1757614113686272300,0.769272216796875,9.160795981994271,3.472200309991836,0.440485978391394
1757614113696231400,0.7792314453125,9.168850693634152,3.448953582178056,0.4552806292781606
1757614113706188300,0.789188232421875,9.175626471379399,3.432155007590353,0.44561420812532304
1757614113716145200,0.799145263671875,9.18394187978208,3.4136446606487034,0.4154822143098339
1757614113726101200,0.809101318359375,9.190834561905264,3.3975594950273633,0.3943761152539402
1757614113736058000,0.81905810546875,9.191579242792725,3.39597047227025,0.3907004589485004
1757614113746015200,0.82901513671875,9.183794580265879,3.4155116235643623,0.40321046949680894
1757614113755972000,0.83897216796875,9.168058666473627,3.4534666756883263,0.43664157792292535
1757614113765929200,0.84892919921875,9.14654884545505,3.5019594884395597,0.49730475747194136
1757614113775885300,0.85888525390625,9.121678608092665,3.5543034236609934,0.5764480349548161
1757614113785842200,0.86884228515625,9.095897685626149,3.60586789894253,0.6578343786567449
1757614113795799300,0.87879931640625,9.071357118609548,3.652355217090249,0.7356392836753278
1757614113805756400,0.88875634765625,9.049898150995373,3.690273736596107,0.8072212955910713
1757614113815713300,0.89871337890625,9.03298968629241,3.718128250466287,0.8666019245162606
1757614113825669400,0.90866943359375,9.021137920457123,3.7366260301873084,0.9094392687890678
1757614113835626200,0.918626220703125,9.014968291911483,3.7447386094942687,0.9368369057372212
1757614113845583000,0.9285830078125,9.01939253809452,3.7330098855167626,0.9410520392142235
1757614113855540200,0.938540283203125,9.03580299014747,3.6983494910240173,0.920252704552561
1757614113865497300,0.948497314453125,9.058314681684971,3.651708443619311,0.8845021036703139
1757614113875453200,0.958453125,9.084326490297913,3.5980285836189982,0.836410857457295
1757614113885410300,0.968410400390625,9.112350807777046,3.539723109644651,0.7783351005855947
1757614113895367200,0.9783671875,9.14186682511866,3.476232634247839,0.7158608895592391
1757614113905324300,0.98832421875,9.171662243923544,3.4093849573776125,0.6535181228928267
1757614113915281400,0.998281494140625,9.200681417658924,3.3417297635167835,0.5921870540196076
1757614113925237200,1.0082373046875,9.228989812776446,3.2737738331437107,0.5277680656010285
1757614113935194400,1.0181943359375,9.25693989597559,3.2046412602066994,0.45795989495739337
1757614113945151200,1.028151123046875,9.284237652745842,3.134606477732956,0.3841392007367685
1757614113955108000,1.038108154296875,9.31007235122621,3.065441171570122,0.30985457879882305
1757614113965064200,1.048064208984375,9.333544412228465,2.999752309346199,0.23835505753476172
1757614113975021300,1.058021240234375,9.354043010377884,2.939849629308283,0.1719089289364405
1757614113984978200,1.067978271484375,9.371408571198582,2.886874702706933,0.11418080732547678
1757614113994935300,1.077935302734375,9.38594270798564,2.8407310834303496,0.06867110203825869
1757614114004892400,1.087892333984375,9.397831298699975,2.801759255479276,0.03606867897164775
1757614114014848300,1.09784814453125,9.407212290507555,2.7702880124166605,0.015726542034064185
1757614114024805400,1.107805419921875,9.414540441438556,2.7453192831158635,0.005546798780938843
1757614114034762200,1.11776220703125,9.420382737725973,2.7252105610668655,0.0003783649007847998
1757614114044719000,1.127718994140625,9.425149513736367,2.708676190373301,-0.003297685271943919
1757614114054676200,1.13767626953125,9.429179792165757,2.694605579444766,-0.007405327799214865
1757614114064632000,1.147632080078125,9.432886829990148,2.681581554959714,-0.012085394211357924
1757614114074589200,1.157589111328125,9.436467611086368,2.6689216876119373,-0.017724312272138193
1757614114084546300,1.16754638671875,9.43987595822513,2.6567902280524374,-0.024354453876952172
1757614114094503200,1.177503173828125,9.442885076913237,2.645995862315595,-0.031892863724881315
1757614114104460300,1.187460205078125,9.445238946563006,2.637488146211207,-0.03880828055297025
1757614114114416400,1.19741650390625,9.44663010866046,2.632429986038804,-0.043276311078807334
1757614114124373200,1.207373291015625,9.446751689213514,2.631986333924532,-0.04376488918019458
1757614114134330400,1.217330322265625,9.445381569904088,2.6369921793878075,-0.03772844029385596
1757614114144287200,1.227287353515625,9.442222813612222,2.6484298114642497,-0.02503093064969871
1757614114154244000,1.237244140625,9.437255546593665,2.6661870019510387,-0.006348714293705415
1757614114164200200,1.2472001953125,9.430759170311688,2.6890339167922734,0.016367930368764792
1757614114174157000,1.257156982421875,9.423311776915192,2.7147721691608426,0.03997431952450424
1757614114184114200,1.2671142578125,9.415751570793987,2.7404572300374506,0.06245159276917111
1757614114194071300,1.2770712890625,9.408822063791751,2.763625631918013,0.08259371933084912
1757614114204027100,1.287027099609375,9.402841820338368,2.783346231432259,0.09968635409483685
1757614114213984300,1.296984375,9.39800607074499,2.7990926666185256,0.11375963190449401
1757614114223941400,1.30694140625,9.394234150990844,2.8112717647120355,0.12448633009945041
1757614114233898200,1.316898193359375,9.391122156450152,2.821211267185211,0.1340770008686464
1757614114243855400,1.32685546875,9.388129404374956,2.8306045339524744,0.14521802461869082
1757614114253811500,1.3368115234375,9.384614089730382,2.8415073284998535,0.15885617154724896
1757614114263768300,1.346768310546875,9.380167631715535,2.855242131602764,0.17444580873660742
1757614114273725200,1.35672509765625,9.374763726845384,2.871926139900088,0.19034641157127916
1757614114283682300,1.366682373046875,9.36861747917533,2.8908038588494063,0.2065059758693911
1757614114293638100,1.37663818359375,9.36203225556612,2.9108126276552677,0.22340284146610645
1757614114303595300,1.38659521484375,9.355352339410782,2.9307950929760933,0.2412626520771533
1757614114313552100,1.39655224609375,9.34867534586489,2.950399957156181,0.2603747460379265
1757614114323509200,1.40650927734375,9.342173708885907,2.969158141379058,0.2797816764931194
1757614114333466400,1.41646630859375,9.335894190225005,2.987026975546777,0.2985513867570087
1757614114343422200,1.426422119140625,9.329740928292274,3.004277677816152,0.3172280667088926
1757614114353379300,1.43637939453125,9.323625075760484,3.0211633461654186,0.3361048723427579
1757614114363336400,1.44633642578125,9.317610930037498,3.03758168926388,0.35441392455864695
1757614114373293000,1.45629296875,9.311763373053074,3.0534190176039933,0.37159035601541396
1757614114383249400,1.46624951171875,9.305876068580151,3.069294632127881,0.38792178801540284
1757614114393206300,1.476206298828125,9.299376769688726,3.086641195987165,0.4057384170718491
1757614114403163100,1.4861630859375,9.291593276205658,3.107007107667625,0.4279975586203858
1757614114413120300,1.496120361328125,9.281886121183634,3.1319238145202397,0.45610188253317024
1757614114423077400,1.506077392578125,9.269923296189308,3.1616391538262367,0.49289574539065356
1757614114433033200,1.516033203125,9.255928673106432,3.194986712154746,0.5387320888163522
1757614114442990300,1.525990234375,9.24032135412991,3.230804167728126,0.5905519270984455
1757614114452947200,1.535947265625,9.223729115769267,3.2675507208451626,0.6452239764738827
1757614114462904300,1.545904296875,9.206988993370532,3.303373729376495,0.699616003331542
1757614114472860400,1.5558603515625,9.19108473727405,3.336379926921427,0.7502759309887885
1757614114482817300,1.5658173828125,9.176846953085064,3.365089888577163,0.7950060302056372
1757614114492774100,1.575774169921875,9.164759040406345,3.3888740842685103,0.8325328469801694
1757614114502731300,1.585731201171875,9.155145408886671,3.4073388385027643,0.8624016963474452
1757614114512687000,1.59568701171875,9.148141667604445,3.4205697837367652,0.8840756949517875
1757614114522644200,1.605644287109375,9.14363734192252,3.428979300163686,0.8979898732095957
1757614114532601300,1.615601318359375,9.141480456149578,3.4330727069571614,0.9042825436130165
1757614114542558200,1.62555810546875,9.141151370325684,3.4337413999989628,0.9050737670559436
1757614114552515300,1.635515380859375,9.141652305585145,3.432659157720208,0.9041173431139439
1757614114562471200,1.64547119140625,9.14216376223862,3.431250752227008,0.9042945993769913
1757614114572428300,1.65542822265625,9.142280666616559,3.430177862298488,0.9071781919892877
1757614114582385400,1.665385498046875,9.141783823010325,3.4297917855903504,0.9136214498445391
1757614114592342300,1.67534228515625,9.13985431625247,3.430842755948007,0.928850802354142
1757614114602298400,1.68529833984375,9.135458711642027,3.435139576359093,0.9558226151056587
1757614114612255200,1.695255126953125,9.128144589236378,3.444386128132045,0.9917503991857171
1757614114622212000,1.705212158203125,9.117630794006585,3.459619937621057,1.034515920331329
1757614114632169200,1.715169189453125,9.103768272870779,3.4814816408172247,1.0821587651897222
1757614114642125300,1.725125244140625,9.087553635650872,3.509591883014142,1.1267307512354106
1757614114652082200,1.735082275390625,9.070331282693147,3.541901330466568,1.1637893659763037
1757614114662039300,1.745039306640625,9.053013068145512,3.574491056165099,1.198479498020187
1757614114671996400,1.754996337890625,9.037505117890237,3.602783376930654,1.2303798532150685
1757614114681952300,1.7649521484375,9.026335489100218,3.6230423211053013,1.2526827243074774
1757614114691907800,1.774907958984375,9.021392772001027,3.6321857047647237,1.2617775926500558
1757614114701865000,1.784864990234375,9.022759384179114,3.628846331208944,1.2616131958685814
1757614114711821800,1.79482177734375,9.029585430806875,3.6145524329185483,1.2537876168094575
1757614114721778000,1.80477783203125,9.04121215571463,3.5917549101769923,1.2353821915470062
1757614114731735000,1.814735107421875,9.057976243510842,3.5608266879498958,1.2016482642494142
1757614114741692000,1.82469189453125,9.080629389345646,3.5188656150549646,1.1533153182350098
1757614114751649000,1.83464892578125,9.108560767844319,3.464559732110798,1.0960521929204463
1757614114761606000,1.84460595703125,9.139438721188903,3.4026667550384997,1.0309700644180178
1757614114771562000,1.85456201171875,9.16965558027625,3.3416330251440405,0.9598388650096953
1757614114781518800,1.864518798828125,9.196012841325997,3.2888264408469197,0.8873300205726176
1757614114791475700,1.874475830078125,9.216689718651772,3.2483336869388815,0.8193548740424216
1757614114801432800,1.884432861328125,9.231578075703977,3.2214483103618026,0.7553947353072464
1757614114811389000,1.894388916015625,9.24201822117567,3.206276752454042,0.6894027984835207
1757614114821345800,1.904345703125,9.249740924382209,3.1975966023921965,0.6229414175171405
1757614114831303000,1.914302978515625,9.256457665416598,3.1898104785606263,0.5598937905170023
1757614114841260000,1.924260009765625,9.262855257499217,3.180974553415179,0.501297809163481
1757614114851216000,1.9342158203125,9.26883725451827,3.1715847937792536,0.4473095773337409
1757614114861173000,1.944173095703125,9.274386120817065,3.1618907904997466,0.3982335213344544
1757614114871130000,1.954130126953125,9.280351751223206,3.1499957700446246,0.35069022786039855
1757614114881086700,1.964086669921875,9.287858765852452,3.132782769437134,0.30287878496944903
1757614114891043000,1.97404296875,9.297440248668194,3.1085441079765554,0.2548426299445331
1757614114900999700,1.983999755859375,9.30876769836843,3.0779768280163404,0.2080587582693435
1757614114910956800,1.993956787109375,9.320676162827015,3.044210752014816,0.167798771937564
1757614114920914000,2.003913818359375,9.331741162198782,3.011856004115939,0.1331089504209347
1757614114930869800,2.013869873046875,9.341233213165403,2.9836995846897363,0.09631285907374694
1757614114940827000,2.023826904296875,9.348933704540134,2.9605767755165693,0.052991530676279215
1757614114950784000,2.033783935546875,9.35425577634573,2.9441923346877097,0.004335647448855161
1757614114960740900,2.043740966796875,9.357250866508483,2.934307777272165,-0.04563117167584132
1757614114970697000,2.053697021484375,9.357488182395697,2.932475008887052,-0.09161202443903312
1757614114980654000,2.063654052734375,9.353922014346718,2.9422756874114273,-0.13245818576146848
1757614114990611000,2.07361083984375,9.350500807726382,2.952392300017178,-0.14799664075286126
1757614115000567800,2.08356787109375,9.34752208417654,2.9615237009778617,-0.1535810989548452
1757614115010524000,2.09352392578125,9.34481633234918,2.9699761797636746,-0.15502658505542202
1757614115020480800,2.103480712890625,9.342446680608392,2.977321866351366,-0.15691893814066424
1757614115030438000,2.11343798828125,9.339591291177273,2.9854838377580046,-0.17117259575221686
1757614115040394800,2.123394775390625,9.33674350053072,2.993093728239834,-0.19234755879323928
1757614115050350800,2.133350830078125,9.333481868386269,3.0009225221693514,-0.22576032784506678
1757614115060308000,2.143307861328125,9.32881446109712,3.0118384684592483,-0.269135560120549
1757614115070264800,2.153264892578125,9.32404242438972,3.022730449351668,-0.3093824677750468
1757614115080222000,2.163221923828125,9.321333749952911,3.028708646978438,-0.3317257439430803
1757614115090177800,2.173177734375,9.32044176954925,3.0313240901738405,-0.33289518958125264
1757614115100135000,2.183135009765625,9.319668447089194,3.0355741488337515,-0.31536143258679655
1757614115110092000,2.193092041015625,9.319422363373636,3.0398244997546073,-0.2796693386924453
1757614115120049000,2.203048828125,9.318902723413705,3.045290071684122,-0.23375901671508326
1757614115130005000,2.2130048828125,9.316122152784466,3.0569214727669953,-0.18837019786117598
1757614115139961900,2.2229619140625,9.310489115333556,3.076350980380177,-0.14575628708070143
1757614115149918700,2.232918701171875,9.301141441273689,3.1059929621890183,-0.10936442915285005
1757614115159874800,2.242874755859375,9.28798911423385,3.146048201462626,-0.07759668736169115
1757614115169832000,2.25283203125,9.272899681651591,3.1908021199464796,-0.05001554250621702
1757614115179788800,2.262788818359375,9.257886821436882,3.2343744274303314,-0.02724057865634095
1757614115189746000,2.272745849609375,9.244614667409659,3.2722134519591926,-0.010367161292227683
1757614115199701800,2.28270166015625,9.23392493109107,3.3022742437019943,0.0007325691115616791
1757614115209659000,2.292658935546875,9.225173469358682,3.3266362392812967,0.007091027410855167
1757614115219616000,2.302615966796875,9.216463508680462,3.3506872692152854,0.008794033648923505
1757614115229572900,2.31257275390625,9.205741039136052,3.380041666254401,0.00556494521733839
1757614115239529000,2.322529052734375,9.192257288184761,3.416535998176038,-0.008433827171803568
1757614115249486000,2.332486083984375,9.176871503004431,3.457485848201811,-0.034786788218235595
1757614115259442700,2.342442626953125,9.162209355923533,3.495653374032676,-0.06863389356671833
1757614115269399800,2.35239990234375,9.150607765457034,3.524974745585024,-0.10635989530831574
1757614115279355600,2.362355712890625,9.143218824249505,3.5427103087618943,-0.14538577326787636
1757614115289312800,2.372312744140625,9.139652656200528,3.55016910033524,-0.18284752544956281
1757614115299270000,2.382269775390625,9.138748985359072,3.5506343797594306,-0.2159718146825209
1757614115309227000,2.39222705078125,9.139289668107033,3.5476430889889596,-0.24083242570003494
1757614115319182800,2.402182861328125,9.140102153533697,3.54463923099786,-0.2538675195683725
1757614115329140000,2.412139892578125,9.140309074282646,3.5440757518962025,-0.25429297843882814
1757614115339096800,2.422096923828125,9.139598295664786,3.5464164698034524,-0.2470974591778591
1757614115349054000,2.432053955078125,9.138101335105299,3.5508664349496364,-0.23839464062647892
1757614115359010000,2.442010009765625,9.136066029885411,3.5564851516142486,-0.23259128810996188
1757614115368967000,2.451966796875,9.133980455783009,3.561901623705029,-0.2316142415050417
1757614115378923800,2.461923828125,9.13244959295392,3.565674712502956,-0.23390089113749563
1757614115388881000,2.471880859375,9.13205620972216,3.566502687759697,-0.236620214832481
1757614115398836700,2.481836669921875,9.133106595557928,3.5637308849588036,-0.23785437800362705
1757614115408793900,2.4917939453125,9.135421886762977,3.5578783595383165,-0.23654283874733373
1757614115418751000,2.5017509765625,9.138374891349672,3.55048708024323,-0.2335294640092179
1757614115428706800,2.511706787109375,9.141375826731323,3.5431536686152216,-0.22735499489167704
1757614115438664000,2.521663818359375,9.143951814699172,3.53724532135427,-0.21546704349815846
1757614115448620800,2.531620849609375,9.145886582154034,3.5333532823517917,-0.19636066689211873
1757614115458578000,2.541577880859375,9.147138628041743,3.531415592287481,-0.17130983053212984
1757614115468534000,2.551533935546875,9.147821934130787,3.530888938064873,-0.14338062572423368
1757614115478491000,2.561490966796875,9.148011319223047,3.5314608927339313,-0.11427416643104515
1757614115488448000,2.571447998046875,9.147825441262125,3.5327474254131315,-0.08586636605965904
1757614115498404900,2.58140478515625,9.147598062247038,3.533846911087632,-0.06134944021354895
1757614115508361000,2.59136083984375,9.147858759009837,3.533455281421542,-0.041970215182611716
1757614115518317800,2.60131787109375,9.149017865917086,3.5305963848590847,-0.027403347453020976
1757614115528274700,2.611274658203125,9.151202808740734,3.5249957883730527,-0.01666328973628115
1757614115538231800,2.621231689453125,9.154394882780313,3.5167268494606017,-0.00834467502553889
1757614115548188000,2.63118798828125,9.158380737546086,3.5063442793950435,-0.0004436768736832164
1757614115558144800,2.641144775390625,9.16271964353323,3.4949794202938675,0.008118490741227287
1757614115568102000,2.651101806640625,9.166940476098656,3.4838597681254146,0.017622809817665255
1757614115578057700,2.6610576171875,9.170546976158022,3.4742850073114036,0.028113897742016704
1757614115588014800,2.671014892578125,9.173001383572815,3.4676813712626693,0.04023009351701475
1757614115597972000,2.680971923828125,9.173912068676948,3.4650796643316744,0.05425172333782539
1757614115607929000,2.69092919921875,9.173178493705391,3.4667464285001155,0.0696211830044398
1757614115617885000,2.700885009765625,9.170901196423172,3.4724113223940134,0.08553641258608549
1757614115627842000,2.710842041015625,9.167422706657648,3.4811394032508134,0.1020479047275614
1757614115637799000,2.720798828125,9.16318433843553,3.49172947858721,0.11941282622744329
1757614115647755800,2.730755859375,9.15850231809914,3.5032667716458437,0.13909843662669882
1757614115657711900,2.7407119140625,9.15360051753223,3.5150700221642848,0.1620843946124427
1757614115667668700,2.750668701171875,9.148314101561903,3.527492865885794,0.188483193248976
1757614115677625900,2.7606259765625,9.142708536639809,3.5403125999704,0.21784549959991126
1757614115687581700,2.770581787109375,9.136972038814426,3.553006077326834,0.2495497294344939
1757614115697539000,2.7805390625,9.131437201040983,3.5646447849333285,0.283811461732164
1757614115707496000,2.790495849609375,9.126255414488911,3.5747254494428633,0.32122802306525405
1757614115717453000,2.800453125,9.121454151687026,3.5830692071571946,0.3620400720555335
1757614115727409200,2.8104091796875,9.116823569276928,3.59015448924303,0.4058337672051042
1757614115737366000,2.820365966796875,9.111969114983081,3.59716758287549,0.45031898828279227
1757614115747323100,2.8303232421875,9.106346598926185,3.6061224582254883,0.4906233434792608
1757614115757280000,2.840280029296875,9.099723381394147,3.6182168006449937,0.523383091982454
1757614115767236000,2.850236083984375,9.092243254771828,3.633162148581445,0.5492074882645159
1757614115777193000,2.86019287109375,9.08438786509633,3.649616439776122,0.5697261428212747
1757614115787149800,2.87014990234375,9.076786742442845,3.665994158603251,0.5855014022432268
1757614115797106000,2.88010595703125,9.069820410561562,3.681215985393524,0.5978209682533517
1757614115807063000,2.89006298828125,9.063620386877655,3.694507428643107,0.6097399541059508
1757614115817020000,2.90002001953125,9.058077365797757,3.705481534861028,0.625316329954937
1757614115826977000,2.90997705078125,9.052765230864287,3.7146898004502056,0.6472302017297595
1757614115836932900,2.919932861328125,9.047267217969894,3.723175596983731,0.6747590638421476
1757614115846890000,2.929889892578125,9.04147168343365,3.7309400935053825,0.7087012270629406
1757614115856847000,2.93984716796875,9.035652183499932,3.7376921981140967,0.746342171736434
1757614115866804200,2.94980419921875,9.02994724985659,3.743479549343884,0.7853673373099416
1757614115876760000,2.959760009765625,9.023900955429673,3.749507431331277,0.8251032815013081
1757614115886717200,2.96971728515625,9.01754486440122,3.7557176841482516,0.8653622266534715
1757614115896673800,2.979673828125,9.011614305308461,3.7600992602333423,0.9071073187101631
1757614115906630100,2.989630126953125,9.006959172978997,3.760527130256593,0.9505300616554916
1757614115916587000,2.9995869140625,9.004037148052454,3.756050861625373,0.9948779566217213
1757614115926544000,3.0095439453125,9.002301118040084,3.74791636274755,1.0402319598905743
1757614115936501000,3.0195009765625,9.000664456748963,3.7380586933389304,1.088731129317358
1757614115946456800,3.029456787109375,8.998234599253534,3.7276755387514826,1.1430649962469934
1757614115956414000,3.0394140625,8.994295506238936,3.7179184071078892,1.2042101506266742
1757614115966371000,3.04937109375,8.988256226074695,3.7099922902837394,1.2718433518514036
1757614115976328000,3.059327880859375,8.979975304463505,3.7030876254618166,1.3481751886427402
1757614115986284000,3.069283935546875,8.969811637845634,3.693862408737838,1.438139829467237
1757614115996241200,3.0792412109375,8.958397678905724,3.677852646440267,1.5462510984875262
1757614116006198000,3.089197998046875,8.945252950650453,3.6522944268137216,1.677374263652414
1757614116016154000,3.099154052734375,8.929794100233911,3.6141587574258445,1.8349438294552265
1757614116026111200,3.109111328125,8.911847524654865,3.5589971344351765,2.0206173538446426
1757614116036067800,3.11906787109375,8.891476352277397,3.483703700780868,2.230658572901785
1757614116046025000,3.12902490234375,8.865991197887062,3.3891739439979194,2.4653765525758264
1757614116055980800,3.138980712890625,8.830292107996344,3.2796436019599438,2.727685719008744
1757614116065938000,3.14893798828125,8.783063908353448,3.1574618681415916,3.0097528943568466
1757614116075895000,3.15889501953125,8.739021937531232,3.027888855028152,3.260640210804343
1757614116085852000,3.168851806640625,8.72470348932147,2.889820985291898,3.4203608171612023
1757614116095808000,3.17880810546875,8.756327292597293,2.7295412837475537,3.470838081727922
1757614116105765000,3.18876513671875,8.827641301226615,2.5362413561329245,3.436657287445664
1757614116115722000,3.198721923828125,8.914462091067433,2.309265661148727,3.37194954521358
1757614116125678000,3.208677978515625,8.974079816684126,2.0527046829789874,3.37974531365633
1757614116135635000,3.218635009765625,8.990870207965374,1.7931359012953936,3.4812785194605587
1757614116145592000,3.228592041015625,9.000554566633701,1.573757383441925,3.5614164705365896
1757614116155549000,3.238548828125,9.011736470383406,1.417447170050442,3.5985882633283732
1757614116165505000,3.248505126953125,8.998949469524621,1.3211461658112704,3.6665874483212826
1757614116175462000,3.2584619140625,8.948993306222558,1.2880705562919377,3.798259479540586
1757614116185419000,3.2684189453125,8.862094774970412,1.3222349839612841,3.985644337892532
1757614116195374800,3.278374755859375,8.74137697622478,1.4128988590963183,4.21454983189553
1757614116205332000,3.28833203125,8.63031664814055,1.5092179835140704,4.405709824872017
1757614116215289000,3.2982890625,8.585113232323527,1.5563832009233534,4.477039907853305
1757614116225246000,3.308245849609375,8.57915987687707,1.5827023219197986,4.479224266155064
1757614116235202000,3.3182021484375,8.583045193877815,1.608631128424406,4.462513662111759
1757614116245159000,3.328158935546875,8.58268454387188,1.6388342512473464,4.452205618587136
1757614116255116000,3.338115966796875,8.567997262349724,1.6741859890051185,4.467314924913644
1757614116265072000,3.348072021484375,8.533295366802811,1.7163759022198617,4.51744556799978
1757614116275029000,3.358029052734375,8.482936467918753,1.7663957784079014,4.592386827215552
1757614116284986000,3.367986083984375,8.427617900800705,1.8210864228859542,4.672181956203282
1757614116294943000,3.37794287109375,8.376616027837992,1.8777346311725676,4.740970830269157
1757614116304899000,3.387899169921875,8.331940435287356,1.9410171629071236,4.793913608166575
1757614116314856000,3.39785595703125,8.286272909089922,2.0148478305324913,4.842360243688524
1757614116324812800,3.407812744140625,8.23200648137331,2.0922768149107696,4.901717272542417
1757614116334770000,3.41777001953125,8.165200305557251,2.1680995331361888,4.97988333902359
1757614116344726000,3.42772607421875,8.080725786581635,2.241869118224084,5.083923559212685
1757614116354683000,3.437682861328125,7.973793352082371,2.318764580247551,5.216543977198004
1757614116364640000,3.447639892578125,7.846766224059462,2.4042209498673675,5.368274169322848
1757614116374596000,3.45759619140625,7.706264112913608,2.4937150505706667,5.528585727310181
1757614116384553000,3.467552978515625,7.567846406826376,2.580914610596001,5.677760974255204
1757614116394510000,3.477510009765625,7.4522677245348685,2.6618922273665664,5.792099301096797
1757614116404467200,3.48746728515625,7.368471835473179,2.731305370810628,5.866514198350906
1757614116414423000,3.497423095703125,7.306708329999447,2.7858459392935035,5.9178936724543565
1757614116424380200,3.507380126953125,7.248556585282087,2.827817241321504,5.969276653689145
1757614116434337000,3.5173369140625,7.185373276138305,2.8633050265491007,6.028455403366684
1757614116444293000,3.527293212890625,7.109946571493149,2.9016067001536485,6.0991580020993945
1757614116454250000,3.53725,7.01266400887072,2.9563769857391713,6.18488222887516
1757614116464206800,3.547206787109375,6.900251097133755,3.030304099476337,6.274883986839652
1757614116474164000,3.5571640625,6.764259156888723,3.126979343855381,6.3747296779483555
1757614116484119800,3.567119873046875,6.59939826503396,3.2580119081273673,6.481024399065971
1757614116494077000,3.577076904296875,6.4451961298376315,3.3934991137206554,6.566124940985441
1757614116504034000,3.587033935546875,6.329747211405635,3.490897411677241,6.627089989557862
1757614116513991200,3.5969912109375,6.244127029526234,3.543067451636493,6.6804141679883
1757614116523947000,3.606947021484375,6.174331608766317,3.5616508638143536,6.7351803619205945
1757614116533904100,3.616904052734375,6.109862935987114,3.55928939538002,6.794954739403725
1757614116543861000,3.626861083984375,6.048910746896267,3.5476857590869066,6.855289088857173
1757614116553817000,3.636817138671875,5.99120090072751,3.539225096994638,6.910121333763003
1757614116563774200,3.646774169921875,5.92991611868143,3.5480180597811937,6.958308733826875
1757614116573731000,3.65673095703125,5.856469774198532,3.581756955514848,7.003082526054978
1757614116583688000,3.66668798828125,5.77224893772304,3.638023909398913,7.04388449204266
1757614116593643800,3.676643798828125,5.687817088845372,3.7063735152646897,7.07685854088366
1757614116603601000,3.686600830078125,5.6124435756921764,3.7749493311017748,7.100748535037041
1757614116613558000,3.69655810546875,5.545683577105403,3.835585586111247,7.120678977909684
1757614116623513900,3.706513916015625,5.482660426959395,3.8846588290989397,7.142845217010378
1757614116633471000,3.716470947265625,5.418660540735721,3.920897140432894,7.171825227779149
1757614116643428000,3.726427978515625,5.352192218571901,3.946237625655532,7.207748774075507
1757614116653385000,3.736385009765625,5.2939381825238465,3.9612455174341794,7.242454761275648
1757614116663341000,3.746341064453125,5.246724595928192,3.966101140771806,7.274085578814148
1757614116673298200,3.756298095703125,5.210877621999383,3.9622488492578265,7.301898883891106
1757614116683255000,3.766255126953125,5.189383583071828,3.952354062709212,7.322539520859718
1757614116693211000,3.7762109375,5.183838808426261,3.9402120817556976,7.333003631728887
1757614116703167700,3.786167724609375,5.191091556033491,3.927864641357958,7.334497085157036
1757614116713124900,3.796124755859375,5.194984471818804,3.916365342222154,7.337888481160998
1757614116723081700,3.806081787109375,5.189437943607569,3.904947291629016,7.347890819737315
1757614116733037800,3.816037841796875,5.171633991369605,3.8971097298711537,7.364585933950543
1757614116742994700,3.82599462890625,5.149861135500669,3.8892753829836844,7.3839599119842045
1757614116752951800,3.835951904296875,5.123825946012139,3.886096168425679,7.4037196744650595
1757614116762907600,3.84590771484375,5.086472074651718,3.8980727296844124,7.423153858253359
1757614116772864800,3.85586474609375,5.058463539263606,3.9121959475830197,7.434853648397326
1757614116782821600,3.865821533203125,5.057974878963828,3.925257965990901,7.428298819926381
1757614116792778800,3.87577880859375,5.080821501544118,3.9387794186040757,7.405515325710177
1757614116802734800,3.88573486328125,5.129457814419269,3.918821210941672,7.382538939270376
1757614116812691700,3.895691650390625,5.2124797964990135,3.871953661304712,7.349042912381887
1757614116822648800,3.90564892578125,5.320548541551828,3.7979534823313355,7.310109662875533
1757614116832604700,3.915604736328125,5.445467883640528,3.6985982050880786,7.2689505540132515
1757614116842561800,3.925561767578125,5.589694568267464,3.5849063594564794,7.216241877132654
1757614116852519000,3.935518798828125,5.7508928459614514,3.462650391358137,7.148962238585948
1757614116862475800,3.945475830078125,5.946524723654985,3.3274028397396207,7.052489238780736
1757614116872431900,3.955431884765625,6.1970601579248905,3.177487295821309,6.904376068109274
1757614116882388700,3.965388671875,6.490660242417454,3.013179946196079,6.70540598590374
1757614116892345600,3.975345703125,6.807435450792312,2.829963605700433,6.466878384813666
1757614116902302700,3.985302734375,7.120145893946289,2.6269439558431507,6.2107227725744245
1757614116912258800,3.9952587890625,7.420810509997606,2.4121342072099448,5.939997367712855
1757614116922215700,4.005215576171875,7.700000960865617,2.194530590074509,5.662544115900993
1757614116932172800,4.0151728515625,7.942274178224801,1.985668936190754,5.398868629550933
1757614116942128600,4.025128662109375,8.146796049338578,1.797063011611253,5.154674088740348
1757614116952085800,4.035085693359375,8.326663956189154,1.6369962221652268,4.915007254487276
1757614116962043000,4.04504296875,8.48613088004589,1.5119823336608706,4.676523492538928
1757614116971998700,4.054998779296875,8.622772808632254,1.4254806927718222,4.448165695546567
1757614116981955800,4.064955810546875,8.728943026587366,1.3724592966802418,4.253503831928968
1757614116991913000,4.074912841796875,8.792028720575571,1.3463190393820403,4.130138733544945
1757614117001869600,4.08486962890625,8.809829165682196,1.344466104991734,4.0926399007558825
1757614117011826000,4.094825927734375,8.797484647893905,1.3618205598965287,4.113403579582274
1757614117021782800,4.10478271484375,8.765158833828568,1.395634566693008,4.170680879552662
1757614117031739600,4.11473974609375,8.724155207788943,1.4315991756521165,4.243822103609144
1757614117041696800,4.12469677734375,8.686314429694413,1.4634094414107501,4.310076783022284
1757614117051652600,4.134652587890625,8.66106776023507,1.49912913569808,4.348436032032966
1757614117061609700,4.144609619140625,8.641345407155155,1.5357292660817503,4.374822519177198
1757614117071566800,4.15456689453125,8.617420926210285,1.5766002056524158,4.407354669469595
1757614117081522700,4.164522705078125,8.589114869180321,1.6257877226695416,4.4445808227971195
1757614117091479800,4.174479736328125,8.559061676222086,1.681062450645864,4.481839124828577
1757614117101437000,4.18443701171875,8.521569273173808,1.7427045216970145,4.52948350405693
1757614117111393800,4.194393798828125,8.467856972208619,1.8138579329371451,4.60170673648566
1757614117121350000,4.204349853515625,8.39681827338934,1.8894158627465367,4.700419331911206
1757614117131306800,4.214306640625,8.314973518395423,1.9560523810841142,4.817204759643972
1757614117141263600,4.224263671875,8.231083521309495,2.0038979819729925,4.940045249632001
1757614117151220000,4.234219970703125,8.156220880287885,2.0327366845749317,5.051180396518111
1757614117161176600,4.244176513671875,8.100314284148812,2.0525538763314484,5.132475700935721
1757614117171133700,4.2541337890625,8.058589358097315,2.0763208286270496,5.188295787835121
1757614117181090800,4.2640908203125,8.017693868607282,2.1084917443916202,5.238437829098105
1757614117191046700,4.274046630859375,7.970203218635916,2.149938584154099,5.293771009263396
1757614117201003800,4.284003662109375,7.910538731268048,2.1970533865503965,5.363461800605059
1757614117210961000,4.2939609375,7.843278966465592,2.240000401742756,5.443873892447352
1757614117220916700,4.303916748046875,7.78225838831365,2.2690850419297814,5.5188850020289415
1757614117230873900,4.313873779296875,7.739992194992303,2.2804719667322932,5.573360688582063
1757614117240830700,4.323830810546875,7.726830515602231,2.2736397826246915,5.594376004081965
1757614117250787800,4.333787841796875,7.744163343197107,2.2518733564965427,5.579192463475465
1757614117260744000,4.343743896484375,7.7765441023200745,2.2203006988860667,5.546711166587472
1757614117270700800,4.35370068359375,7.8039125862389795,2.183832232058048,5.522699007359146
1757614117280657700,4.36365771484375,7.821104544058442,2.148941682071239,5.512055448269844
1757614117290613800,4.37361376953125,7.836285746577381,2.113905878394842,5.504035807943343
1757614117300570600,4.383570556640625,7.847949296364188,2.0762461559556424,5.501752080920339
1757614117310527700,4.39352783203125,7.856096362462639,2.033972948371619,5.5059138767749065
1757614117320484900,4.40348486328125,7.86540195094645,1.985329621233791,5.510381377577781
1757614117330440700,4.413440673828125,7.880573216593265,1.9313976861685513,5.507872025105357
1757614117340397800,4.423397705078125,7.9079463766872875,1.8748463623851537,5.488143826806545
1757614117350354700,4.433354736328125,7.946426621729135,1.8175543032370507,5.451714084553719
1757614117360310800,4.443310791015625,8.00287039348483,1.7636657689221202,5.386458060789108
1757614117370268000,4.453267822265625,8.091223215198516,1.7225756336428224,5.266424152654409
1757614117380224800,4.463224853515625,8.220736314818263,1.7098410936236381,5.0661938412547105
1757614117390182000,4.473181884765625,8.369206043842434,1.725530391795188,4.811374153794348
1757614117400137700,4.4831376953125,8.511936352431773,1.7641680193558333,4.539277168318629
1757614117410094800,4.4930947265625,8.618877554759383,1.814947189478576,4.31176254415214
1757614117420051700,4.5030517578125,8.668182560676335,1.865970105229318,4.18940954542011
1757614117430007800,4.5130078125,8.679363295382261,1.9183342064559459,4.14234647321105
1757614117439964700,4.522964599609375,8.689033041003347,1.9768363720461726,4.094289421528577
1757614117449921800,4.532921875,8.711495632702112,2.032452899197489,4.018627154561877
1757614117459878700,4.542878662109375,8.747261942610145,2.0698541168309745,3.9206501799345013
1757614117469834800,4.552834716796875,8.7946397798568,2.0832930057272314,3.8058623557597397
1757614117479791600,4.56279150390625,8.84879865554571,2.0740140129894016,3.6834246013537046
1757614117489748700,4.572748779296875,8.902470624500513,2.045336346168071,3.5683331180572506
1757614117499704800,4.582704833984375,8.948215892109275,2.0013025586523114,3.477729302546382
1757614117509661700,4.59266162109375,8.983851853635906,1.9472076881103217,3.4160172349989413
1757614117519618800,4.602618896484375,9.00402545761466,1.8913930080384016,3.3941926489427683
1757614117529576000,4.612575927734375,9.003874066445231,1.840671413321793,3.4223633891552683
1757614117539531800,4.62253173828125,8.98528217869997,1.8002682373933494,3.4920082955285903
1757614117549489000,4.632489013671875,8.950492604869604,1.7751180140458047,3.5927740240916606
1757614117559445800,4.64244580078125,8.900041936048865,1.7680477833986281,3.719360714870691
1757614117569401900,4.65240185546875,8.839582498911023,1.7796150332041083,3.8555329801186917
1757614117579358700,4.662358642578125,8.778439755684136,1.8068701198764143,3.9805274332702156
1757614117589315600,4.672315673828125,8.722256680691242,1.8413032814845443,4.086835890652239
1757614117599272700,4.682272705078125,8.671620133909583,1.8724550833344458,4.179390255708992
1757614117609228800,4.692228759765625,8.626244284135103,1.8942539504274725,4.26263932454288
1757614117619185700,4.702185546875,8.582470024338365,1.9071518643148242,4.344463621270656
1757614117629142800,4.712142822265625,8.530472126075624,1.9140283259555697,4.442738702061772
1757614117639098600,4.7220986328125,8.460918112856149,1.9158862287819385,4.573033015187084
1757614117649055700,4.7320556640625,8.377203472337126,1.9127642973691223,4.7259047785624855
1757614117659012900,4.742012939453125,8.293275481328367,1.9044716853201389,4.874931556947529
1757614117668970000,4.751969970703125,8.22273537968099,1.8909049322605131,4.998148479032516
1757614117678925800,4.76192578125,8.176272319191694,1.8724601979009805,5.0806344545394175
1757614117688883000,4.771883056640625,8.159265070289372,1.8496943854719399,5.116191505610942
1757614117698839600,4.781839599609375,8.16292709992826,1.8257395093888042,5.118953371539711
1757614117708796000,4.7917958984375,8.172207553970813,1.8051405196048318,5.111445772388577
1757614117718752800,4.801752685546875,8.172761096200347,1.7917786414675414,5.115260362240671
1757614117728709600,4.811709716796875,8.153147464191914,1.7885811606004833,5.147576239433884
1757614117738665700,4.821665771484375,8.112394013521074,1.795284457631409,5.209260834452509
1757614117748622600,4.83162255859375,8.061029152464867,1.8084158880136907,5.283920646378397
1757614117758579700,4.841579833984375,8.014636234602332,1.82159364175573,5.349559531980753
1757614117768536800,4.851536865234375,7.987084210810065,1.8283919235937296,5.388308072569966
1757614117778492700,4.86149267578125,7.983722625422478,1.8247195186913012,5.39453030808568
1757614117788449800,4.87144970703125,8.011573924422263,1.8097417297899723,5.35816252515316
1757614117798407000,4.881406982421875,8.073047507038712,1.7823279454246161,5.2744280108898876
1757614117808362800,4.89136279296875,8.162953987935184,1.7358727759808301,5.150079162165523
1757614117818320000,4.90131982421875,8.264428157028556,1.6723726559728382,5.007272865730524
1757614117828277000,4.911277099609375,8.36184808229506,1.5957621483705937,4.8686166747123
1757614117838233600,4.921233642578125,8.453390639960766,1.513412366463989,4.734992924903333
1757614117848190000,4.93118994140625,8.542651224169134,1.4304218024358153,4.598629520997405
1757614117858146600,4.941146484375,8.63100638397038,1.3507399245642124,4.4555151815265415
1757614117868103700,4.951103759765625,8.718917307135463,1.2788247351713478,4.302961690320075
1757614117878059800,4.961059814453125,8.808438003584742,1.2165242732767014,4.135440347084403
1757614117888016600,4.9710166015625,8.901271770104765,1.162185145650059,3.948046136382222
1757614117897973800,4.980973876953125,8.993988632246852,1.1094842867497354,3.748013101120293
1757614117907931000,4.990930908203125,9.084024292480946,1.0488703166373075,3.5427050480648874
1757614117917886700,5.00088671875,9.174338185134529,0.9685681149102747,3.3262256126537917
1757614117927843800,5.01084375,9.264732157287002,0.861300603237748,3.097302875255048
1757614117937800700,5.02080078125,9.353535060855746,0.7290545715227723,2.8548645304620264
1757614117947756800,5.0307568359375,9.437579956242441,0.578325738460198,2.6015385886907576
1757614117957714000,5.0407138671875,9.510286296012998,0.4159157103562727,2.3562381324648856
1757614117967670800,5.0506708984375,9.567966916087268,0.2498841672869399,2.1358730877920986
1757614117977627600,5.060627685546875,9.61250046981871,0.0903071797850076,1.9396027660645543
1757614117987584000,5.070583984375,9.644872461113334,-0.051561178212752565,1.7731771091111004
1757614117997540600,5.08054052734375,9.66576736510396,-0.16209268751675263,1.6483473450019954
1757614118007497700,5.090497802734375,9.6811356146276,-0.2271908538385294,1.5473802486479282
1757614118017453600,5.10045361328125,9.693175596511363,-0.24394683139352127,1.4673871128700673
1757614118027410700,5.11041064453125,9.700399702546,-0.219888093077112,1.4227709954217076
1757614118037367800,5.120367919921875,9.703823831775784,-0.16236489205425605,1.4070605083316563
1757614118047323600,5.13032373046875,9.703976976510882,-0.0828897888011299,1.412921947710961
1757614118057280800,5.14028076171875,9.701732996976375,0.007764247072368743,1.4306298922285436
1757614118067238000,5.15023779296875,9.698151631358265,0.10240590611868537,1.4511207454629242
1757614118077194800,5.16019482421875,9.69387176208198,0.19771566169764845,1.469743320607394
1757614118087150800,5.17015087890625,9.688588853242992,0.29071439125472676,1.4889979100450872
1757614118097107700,5.180107666015625,9.682574122998117,0.3775360396120697,1.508513196245581
1757614118107064800,5.19006494140625,9.677389998358487,0.45427959900945425,1.5205717366993425
1757614118117021000,5.20002099609375,9.673580084681511,0.517903089668788,1.5244713744863867
1757614118126977800,5.209977783203125,9.67145300952494,0.5664692233845591,1.5206877642944454
1757614118136934700,5.2199345703125,9.671217447203396,0.6005191943613812,1.5090790134347973
1757614118146891800,5.229891845703125,9.67291022259593,0.6233206991583109,1.4888449114404618
1757614118156847600,5.23984765625,9.675923432937264,0.6409745754010975,1.4615221663594244
1757614118166804700,5.2498046875,9.6794352404505,0.6612581425603479,1.4288650745131075
1757614118176761900,5.259761962890625,9.68178677201271,0.6916898134421556,1.3981984258316456
1757614118186717700,5.2697177734375,9.681492172980308,0.7361668146807699,1.3773720570325851
1757614118196674800,5.2796748046875,9.678054015225172,0.7955312961887567,1.3684969689205289
1757614118206631700,5.289631591796875,9.671386374029517,0.86744458588548,1.3719355650670826
1757614118216587800,5.299587890625,9.661803137648105,0.948867023814097,1.3854934041678906
1757614118226545000,5.309544921875,9.648734397238492,1.0366017136294394,1.413423029100895
1757614118236501800,5.319501708984375,9.631848144367337,1.1226880517158657,1.4620032278746367
1757614118246459000,5.329458984375,9.613079731011391,1.1984777444545178,1.524052126161009
1757614118256414700,5.339414794921875,9.595222002759575,1.2591584961928426,1.5863852482162415
1757614118266371800,5.349371826171875,9.581349544751644,1.302003512315452,1.6349040721915662
1757614118276328700,5.35932861328125,9.57238765513897,1.3216327802844345,1.6712480358570814
1757614118286284800,5.369284912109375,9.567340308621525,1.3106930147275329,1.7083530470229684
1757614118296241700,5.37924169921875,9.565545826420188,1.2656892131358384,1.7517830234266816
1757614118306198800,5.38919873046875,9.566947509911655,1.1914148933961988,1.7956702420786022
1757614118316155600,5.39915576171875,9.568738484981656,1.0977353967670351,1.84515776495561
1757614118326734800,5.40973486328125,9.569043605408073,0.9928551455572246,1.902111239799112
1757614118336692000,5.41969189453125,9.566595627734065,0.9083109223462641,1.9559154568314552
1757614118346648600,5.429648681640625,9.559828617817162,0.8525351129800081,2.0132681601256133
1757614118356605000,5.43960498046875,9.549621696579456,0.8395278204340487,2.0664704657420514
1757614118366561500,5.4495615234375,9.538139933100343,0.8806457935683428,2.102079685392231
1757614118376518700,5.4595185546875,9.52628173752427,0.9712829998921603,2.1158801010772583
1757614118386475800,5.469475830078125,9.51688321006,1.0907604431878775,2.0998962038733064
1757614118396431600,5.479431640625,9.513333993145823,1.2115680391088128,2.0491380765385925
1757614118406388700,5.489388671875,9.517157350826263,1.3052069845318794,1.972445151349902
1757614118416345900,5.499345947265625,9.531964459335803,1.347371763305366,1.8699283413358032
1757614118426301700,5.5093017578125,9.5625016364187,1.3229868252418935,1.7258778900586067
1757614118436258800,5.5192587890625,9.608266193249822,1.220533216657117,1.536849940674752
1757614118446216000,5.5292158203125,9.663639705425501,1.029605351936072,1.313150929273665
1757614118456172800,5.5391728515625,9.72399042149186,0.7437479174595326,1.0301637895364313
1757614118466129000,5.54912890625,9.769272163242102,0.3772374950569123,0.7677220827650278
1757614118476085800,5.559085693359375,9.78244027237296,0.005894303894223412,0.688629329892993
1757614118486042600,5.569042724609375,9.782527950656414,-0.2940852741936222,0.6213258720792829
1757614118495999000,5.5789990234375,9.783289582678675,-0.4654750928930938,0.4908757473377511
1757614118505955600,5.58895556640625,9.784637490156292,-0.5067002892615273,0.4177462867842987
1757614118515912700,5.59891259765625,9.787534965163468,-0.44108496719785034,0.4242479237632826
1757614118525869800,5.608869873046875,9.788946001005172,-0.3106420028494671,0.5004226702967658
1757614118535825700,5.61882568359375,9.785356452080606,-0.15791061605913564,0.6262947465330362
1757614118545782800,5.62878271484375,9.776761642214655,-0.011047342700778971,0.7649829401247203
1757614118555739600,5.63873974609375,9.765976044306159,0.11410477381404488,0.8849150683853775
1757614118565695700,5.64869580078125,9.756243170320987,0.208361832869146,0.9709212539076805
1757614118575652900,5.65865283203125,9.750396782380342,0.2728200207869522,1.0127740441225468
1757614118585609700,5.668609619140625,9.74890800512731,0.31409159531407055,1.0151496872127055
1757614118595565800,5.67856591796875,9.749984109926222,0.33360834281928836,0.9984500429548323
1757614118605523000,5.68852294921875,9.752864633798598,0.3396277492392808,0.9678180271953344
1757614118615479800,5.698479736328125,9.756771578109264,0.3460146372647956,0.9252391146630048
1757614118625436700,5.708436767578125,9.760733467477559,0.36448943796902894,0.8749920055903494
1757614118635392800,5.718392822265625,9.764047706592082,0.4034555668316781,0.8191320250719786
1757614118645349600,5.728349609375,9.765997671616077,0.4685852242702618,0.7590109530430287
1757614118655306800,5.738306640625,9.765418410423397,0.5631860369954258,0.6998630368951708
1757614118665262600,5.7482626953125,9.761487500715255,0.6842270032808184,0.6446518026091158
1757614118675219700,5.7582197265625,9.754116095164418,0.82408087965101,0.5903336812378839
1757614118685176800,5.7681767578125,9.74349942408204,0.9722474610101431,0.5378991451235487
1757614118695133400,5.778133544921875,9.730361125567555,1.1182311453722418,0.4899125283287838
1757614118705089300,5.78808935546875,9.715629420381784,1.254213441006094,0.45152759688757355
1757614118715046400,5.79804638671875,9.700055419152974,1.3765382365569472,0.42947833523005247
1757614118725003500,5.80800341796875,9.684775432434677,1.4830767033025622,0.4195097893254831
1757614118734959400,5.81795947265625,9.67139923351109,1.5717578801877796,0.40496111255642026
1757614118744916500,5.82791650390625,9.661129183909296,1.6414197376959025,0.37243688984215256
1757614118754873600,5.83787353515625,9.654059391653536,1.6928820677772163,0.32198231203127653
1757614118764830500,5.84783056640625,9.649610011029242,1.728341357562691,0.2612414093372412
1757614118774786600,5.85778662109375,9.647125208476185,1.750955486561358,0.19367535506458952
1757614118784743400,5.867743408203125,9.64586731736958,1.7641582286141813,0.12397187777129001
1757614118794700300,5.8777001953125,9.645227265900372,1.7710488649107514,0.058008637319086113
1757614118804656400,5.887656494140625,9.644994626188277,1.773262595437467,0.00009066576148820786
1757614118814613200,5.89761328125,9.645191025543213,1.7715270038165152,-0.04864772018515505
1757614118824570400,5.9075703125,9.646055533418059,1.7651498700000345,-0.09079135570591315
1757614118834527500,5.917527587890625,9.647888594064115,1.752693270139396,-0.12921005241940728
1757614118844483300,5.9274833984375,9.650607789894938,1.7347933101810513,-0.16322934513017534
1757614118854440400,5.9374404296875,9.653823244810104,1.7136632822602986,-0.19350706755928693
1757614118864397600,5.9473974609375,9.657021748590468,1.6917638774022459,-0.2241547740782611
1757614118874353400,5.957353515625,9.659764909818769,1.6714958731383085,-0.2557871625193395
1757614118884310500,5.967310546875,9.661799045994877,1.6545665117777884,-0.2871069778799079
1757614118894267400,5.977267333984375,9.663215342533588,1.6402236597791313,-0.31986981338933107
1757614118904224500,5.987224609375,9.664284433069824,1.6264773123688996,-0.3557571193285286
1757614118914180600,5.9971806640625,9.665475688681006,1.6101692977771163,-0.39536680679172276
1757614118924137500,6.007137451171875,9.667335637333988,1.5884136853039263,-0.4358347185194492
1757614118934094300,6.01709423828125,9.67007587595284,1.560542658690363,-0.4740513807216659
1757614118944051500,6.027051513671875,9.673564887112379,1.5280919030711053,-0.507410666020587
1757614118954007300,6.03700732421875,9.676929395109415,1.4969567600950597,-0.5353016029110178
1757614118963964400,6.04696435546875,9.677788642287254,1.4824294914402067,-0.559636893146485
1757614118973921500,6.056921630859375,9.675984223213792,1.4863064790040255,-0.5801794035028666
1757614118983877400,6.06687744140625,9.672379476720094,1.5061916214302182,-0.5889349203558638
1757614118993834500,6.07683447265625,9.668567224955558,1.534016763075441,-0.579636821058765
1757614119003791400,6.086791259765625,9.665402038922906,1.5576419688127934,-0.5693277911534532
1757614119013748500,6.09674853515625,9.663785251376032,1.566203460931033,-0.5732805108346045
1757614119023704600,6.10670458984375,9.663800448945164,1.5567290917515755,-0.5982821560243144
1757614119033661400,6.116661376953125,9.663888711750507,1.5353244846731424,-0.6499406297322362
1757614119043618600,6.12661865234375,9.663825583386421,1.5042740973711013,-0.7197337124045938
1757614119053575400,6.136575439453125,9.664370942309498,1.4674530177131295,-0.785432292304933
1757614119063531500,6.146531494140625,9.664954295155406,1.4346673310510814,-0.8371246317498385
1757614119073488400,6.15648828125,9.664178634607792,1.4150763492658733,-0.8784049558389931
1757614119083445200,6.1664453125,9.661268884640931,1.4138205039858818,-0.911799860440567
1757614119093401300,6.1764013671875,9.656038582772016,1.4322047403298317,-0.9381335214190184
1757614119103358500,6.1863583984375,9.64853156814277,1.46850544937551,-0.9590162235151976
1757614119113315300,6.1963154296875,9.63881739885807,1.5187129570901392,-0.9783090991366654
1757614119123272400,6.2062724609375,9.627462476629018,1.5781412976145743,-0.9959040847990661
1757614119133228500,6.216228515625,9.615676761767268,1.6430011616684495,-1.0048361637953669
1757614119143185400,6.226185302734375,9.604317747884988,1.7111660586170852,-0.9996871104691177
1757614119153142500,6.236142578125,9.593576573640108,1.7829089601829646,-0.977191931675002
1757614119163099600,6.246099609375,9.582474164867401,1.859699208266288,-0.9423896444935351
1757614119173055500,6.256055419921875,9.56975555306971,1.9415547769151627,-0.9058310882292687
1757614119183012600,6.2660126953125,9.554670212140678,2.0270389113247393,-0.8773702059637755
1757614119192969200,6.27596923828125,9.53747240910232,2.1132374776139855,-0.8609504746258259
1757614119202926300,6.28592626953125,9.519034835135937,2.195892818338424,-0.858146742316708
1757614119212882400,6.29588232421875,9.500843929407,2.2712150396957993,-0.8636744927622377
1757614119222839300,6.30583935546875,9.484095039179921,2.332877715143561,-0.8831796959601342
1757614119232796400,6.31579638671875,9.46923181656897,2.3736253205955027,-0.9327028746724129
1757614119242752300,6.325752197265625,9.456199901038408,2.3883285303391513,-1.0230134063251315
1757614119252709400,6.33570947265625,9.445512502807379,2.3765587436988946,-1.1422133478537202
1757614119262666500,6.34566650390625,9.4391692712605,2.337901242394,-1.267551938267797
1757614119272623600,6.35562353515625,9.439570837798714,2.2715717441789804,-1.3801615416206419
1757614119282579500,6.365579345703125,9.447688677802681,2.179009195815772,-1.470878023725748
1757614119292536600,6.37553662109375,9.46123204998672,2.066432033427805,-1.5444529630243777
1757614119302493400,6.385493408203125,9.474619354826212,1.9446476283639669,-1.6187392654627561
1757614119312450300,6.3954501953125,9.480576217404007,1.8281632294043897,-1.7166459513328969
1757614119322406700,6.40540673828125,9.468919681879877,1.7271552165180444,-1.8779976660229265
1757614119332363300,6.41536328125,9.430731697782873,1.6435504661142826,-2.1284803471922875
1757614119342320400,6.4253203125,9.363338077467679,1.5791402455240486,-2.4504293049432335
1757614119352277500,6.435277587890625,9.26952757486999,1.5357802656166255,-2.8084911940827966
1757614119362233300,6.4452333984375,9.1547923576653,1.5218870570816099,-3.1692297550857065
1757614119372190500,6.4551904296875,9.020258799535036,1.549034737856686,-3.5221883297368883
1757614119382147300,6.465147216796875,8.875331273162365,1.6162854425698518,-3.845321382705867
1757614119392104400,6.4751044921875,8.737091846251488,1.7016564719937741,-4.1155774164900185
1757614119402060500,6.485060546875,8.613515735465288,1.7712563701815902,-4.340551416262984
1757614119412017400,6.495017333984375,8.50698252941668,1.8124274617426097,-4.529540787202119
1757614119421974500,6.504974609375,8.419660219794512,1.839389118426293,-4.679354332050681
1757614119431930600,6.5149306640625,8.354147006398438,1.8681585551843045,-4.784202361491322
1757614119441887500,6.524887451171875,8.292583991932869,1.911610743419826,-4.873313600356877
1757614119451844400,6.53484423828125,8.217220415651799,1.9798365767754613,-4.972718269699811
1757614119461801500,6.544801513671875,8.1268732052505,2.0873368742905556,-5.07615409425497
1757614119471757300,6.55475732421875,8.036334856191276,2.2250376642800864,-5.161095646220446
1757614119481714400,6.56471435546875,7.9986969071924685,2.332164160046726,-5.172257091704011
1757614119491671300,6.57467138671875,8.037403362205625,2.3647914412766693,-5.096890008291602
1757614119501628400,6.58462841796875,8.091845146489144,2.366886367729306,-5.009019417136908
1757614119511584500,6.59458447265625,8.114426980653406,2.3857475739352405,-4.963332601717114
1757614119521541400,6.604541259765625,8.13394475107193,2.40331713289544,-4.922742232653499
1757614119531498500,6.61449853515625,8.16313285163343,2.4125091780021783,-4.869645433238149
1757614119541455600,6.62445556640625,8.20169843687117,2.4131053903296587,-4.804107377661764
1757614119551411500,6.634411376953125,8.264449784338474,2.3919765314526855,-4.706135079209506
1757614119561368600,6.64436865234375,8.357575227281451,2.3547838420033456,-4.558104910646379
1757614119571325400,6.654325439453125,8.480950262537599,2.3128199926294384,-4.3468072617873545
1757614119581282300,6.6642822265625,8.631294553261995,2.2776645080961284,-4.059973602689802
1757614119591238400,6.67423828125,8.81140912835002,2.260242540913075,-3.663435121770203
1757614119601195300,6.6841953125,9.006127982851863,2.272998415981233,-3.1453970440775154
1757614119611152400,6.69415234375,9.140258220878243,2.2783747021920977,-2.726732363806665
1757614119621109500,6.704109619140625,9.201380505838989,2.282373854830861,-2.509132692193985
1757614119631065300,6.7140654296875,9.217777513888478,2.283839835730195,-2.4468416557148096
1757614119641022500,6.7240224609375,9.221203396683931,2.2712581481851637,-2.4456436781018973
1757614119650979600,6.7339794921875,9.214400146409869,2.2413505011774597,-2.4983123152330515
1757614119660936400,6.7439365234375,9.20361805563271,2.182115199007094,-2.5888547559455035
1757614119670892500,6.753892578125,9.202524999698996,2.0896146099641917,-2.667850551249087
1757614119680849400,6.763849365234375,9.219235311481356,1.975272483730316,-2.6971070408716797
1757614119690806300,6.77380615234375,9.255361102351547,1.8573475305736065,-2.6568665081590415
1757614119700763100,6.78376318359375,9.31081703211367,1.7487851567849515,-2.533933371451497
1757614119710719200,6.79371923828125,9.383070951941608,1.6529662369742988,-2.3229444962806998
1757614119720676000,6.803676025390625,9.467264900410175,1.5752948221422731,-2.0148758875831962
1757614119730633200,6.81363330078125,9.547560087874531,1.5224986131086944,-1.6420945682175456
1757614119740590000,6.823590087890625,9.610829906257987,1.4925724075309932,-1.2548141833782196
1757614119750546200,6.833546142578125,9.655494977414607,1.4739698522612452,-0.8770482805330306
1757614119760503300,6.84350341796875,9.685687286582588,1.4526087920635937,-0.49777431121245025
1757614119770460200,6.853460205078125,9.702978613123298,1.4193540265850721,-0.08958927730661817
1757614119780417300,6.863417236328125,9.703057523578405,1.3744858340717852,0.3631158845935017
1757614119790373000,6.873373046875,9.680340080335736,1.3217014616064726,0.8452822192423045
1757614119800330200,6.883330322265625,9.636647069081663,1.258707099163532,1.31189610690698
1757614119810287400,6.893287353515625,9.583452069988846,1.1777706181209533,1.7148425551727413
1757614119820244000,6.903243896484375,9.532557164531946,1.0718502102084457,2.0376145197443662
1757614119830200300,6.913200439453125,9.49054874536395,0.9396334776531904,2.284065461179614
1757614119840157200,6.9231572265625,9.462095973339677,0.7865792703829705,2.453653966078162
1757614119850114000,6.933114013671875,9.445182832461596,0.617090791792795,2.5647815141797063
1757614119860071200,6.9430712890625,9.437717903408407,0.4352181940563023,2.628772632575035
1757614119870027000,6.953027099609375,9.43724677876532,0.24834373291190712,2.6546350958451628
1757614119879984000,6.962984130859375,9.440949140414595,0.06486988312439061,2.652291747589409
1757614119889941200,6.972941162109375,9.43905645853579,-0.0954121382412035,2.6580992648243904
1757614119899898400,6.9828984375,9.433054003250598,-0.2079744957856834,2.672943198212981
1757614119909854200,6.992854248046875,9.422072005987166,-0.2615406114795245,2.706757497270405
1757614119919811300,7.002811279296875,9.403996251070499,-0.2599508215374313,2.7690552557513115
1757614119929768200,7.012768310546875,9.386159565606713,-0.21410463257115334,2.8327640500739215
1757614119939725000,7.02272509765625,9.379372097423673,-0.13318728548730724,2.8600732050210236
1757614119949681400,7.032681396484375,9.387331531995533,-0.02279874886755133,2.8368764538288116
1757614119959638000,7.042637939453125,9.404597139573097,0.10967349510202183,2.7770322259798643
1757614119969595100,7.05259521484375,9.422918393683434,0.2530164374306798,2.7046219465464354
1757614119979552300,7.06255224609375,9.434062888032198,0.39256318408045915,2.648534440882504
1757614119989508000,7.072508056640625,9.432859357461332,0.5081731017604469,2.6331170915201305
1757614119999465200,7.08246533203125,9.422150331920385,0.5796367845261469,2.656593536436558
1757614120009422000,7.092422119140625,9.412418626978992,0.6010232714259997,2.686173558925092
1757614120019379200,7.102379150390625,9.411957439208031,0.5792925741983578,2.692556245699525
1757614120029335300,7.112335205078125,9.420292136833071,0.5196553401635959,2.675525908182561
1757614120039292200,7.122292236328125,9.431069551435112,0.4237258726505562,2.6543860895201563
1757614120049249300,7.132249267578125,9.437423888897895,0.29746406644433737,2.648948574641347
1757614120059206100,7.1422060546875,9.436204576236008,0.15628425696631892,2.6653335999920964
1757614120069163000,7.1521630859375,9.427947035500406,0.018447646694182186,2.698862652367353
1757614120079119000,7.162119140625,9.413098425936699,-0.10350642383964731,2.7483170036271214
1757614120089076200,7.172076171875,9.39576910547316,-0.201029078828264,2.8016955425933
1757614120099033000,7.182033203125,9.378487715804576,-0.27273687254814427,2.8530630339980125
1757614120108990200,7.191990234375,9.358567209804058,-0.32248342995382845,2.9126632239580155
1757614120118946000,7.201946044921875,9.331665758875012,-0.3566375919574871,2.9938620822638273
1757614120128903200,7.211903076171875,9.294491335734724,-0.3804469220900908,3.1045249354630706
1757614120138860300,7.2218603515625,9.245365193516015,-0.3969697484763339,3.2459245799705383
1757614120148817200,7.231817138671875,9.185456375998259,-0.40525019516348837,3.410799208089709
1757614120158773200,7.241773193359375,9.11918796032071,-0.4027581591520458,3.5844916411757466
1757614120168730400,7.25173046875,9.053077950075268,-0.3879730432786047,3.749885616993904
1757614120178687000,7.26168701171875,8.993120617240667,-0.3594716463396325,3.8942189768657087
1757614120188644000,7.27164404296875,8.943007217550278,-0.3137419781588018,4.01180432280451
1757614120198600200,7.28160009765625,8.901512008601427,-0.2453441492371261,4.107709459593892
1757614120208557000,7.29155712890625,8.866852198630571,-0.15128784605166873,4.1864577098771925
1757614120218514200,7.30151416015625,8.842744762334227,-0.031409799765539356,4.2397243129014965
1757614120228471300,7.31147119140625,8.831526033705472,0.11068239814992993,4.261722501958906
1757614120238428200,7.32142822265625,8.832942914766072,0.2667191283622756,4.251865709333122
1757614120248384300,7.33138427734375,8.843971089258789,0.4257172291308641,4.215842502054572
1757614120258341000,7.341341064453125,8.858021241921186,0.5768196082135663,4.168107521933317
1757614120268298200,7.35129833984375,8.86991450881064,0.7127200342502444,4.121532525502145
1757614120278255000,7.361255126953125,8.879697067156433,0.8318986407298594,4.077905565221608
1757614120288211200,7.371211181640625,8.889222435870765,0.9364327819157391,4.034254347282648
1757614120298168000,7.38116796875,8.89926802906692,1.029675348432362,3.9891333490520715
1757614120308125200,7.391125244140625,8.908304737481474,1.1146988795928656,3.9458758066058155
1757614120318082000,7.40108203125,8.914445724454522,1.1938493540015072,3.9086782948508856
1757614120328038100,7.4110380859375,8.914900482484697,1.268670567034185,3.883994519971311
1757614120337995300,7.420995361328125,8.90475201343596,1.3413871359378098,3.8828415505439042
1757614120347952000,7.4309521484375,8.881144343355297,1.4136736428610979,3.911161343838274
1757614120357909200,7.4409091796875,8.844618739512562,1.4832218108616768,3.967764690069854
1757614120367865000,7.450864990234375,8.796424325186013,1.544718189831823,4.050573321659863
1757614120377822200,7.460822265625,8.73639451163709,1.5924707056097684,4.1605090296283365
1757614120387779300,7.470779296875,8.668131122750044,1.6226812810868023,4.289614132969081
1757614120397736200,7.480736083984375,8.598709795999527,1.6346816616125404,4.4227129821211095
1757614120407693000,7.490693115234375,8.535065299084781,1.6311765761010348,4.545580944637954
1757614120417649200,7.500649169921875,8.480911099570989,1.6164600684843957,4.6509769633501765
1757614120427606000,7.51060595703125,8.43256646311879,1.5945190164417027,4.745494445173442
1757614120437563100,7.520563232421875,8.38118874258101,1.5724727504588663,4.8428699467763305
1757614120447520300,7.530520263671875,8.318589370805025,1.5618362056322395,4.952991240444779
1757614120457476000,7.54047607421875,8.237132153823971,1.5746243755348026,5.083364756286144
1757614120467433200,7.55043310546875,8.131367009538412,1.6200881958536804,5.237037899172305
1757614120477390300,7.560390380859375,8.035562118253111,1.657987426137179,5.371331218805909
1757614120487347200,7.57034716796875,7.991340699210762,1.6280414929457008,5.445946022546291
1757614120497304300,7.58030419921875,7.962012897917628,1.58805727308169,5.500437491190433
1757614120507260200,7.59026025390625,7.930177497717738,1.542933352241665,5.558958653742074
1757614120517217300,7.60021728515625,7.889368517467379,1.5072709410995244,5.626400789374113
1757614120527174100,7.610174072265625,7.833068538096547,1.504983122423291,5.705124781998991
1757614120537131000,7.620131103515625,7.7594293013900515,1.5420400566637515,5.795149920839071
1757614120547087000,7.630087158203125,7.662689175081253,1.6243271485976873,5.900436341696977
1757614120557044200,7.640044189453125,7.545593073964119,1.7405542117953299,6.01704962773323
1757614120567001000,7.6500009765625,7.461779649245739,1.836906946221739,6.092455289590358
1757614120576958200,7.659958251953125,7.3860700360059734,1.9195706163831054,6.15886457504332
1757614120586914000,7.6699140625,7.302137953343987,1.995817551369965,6.234250363156199
1757614120596871200,7.67987109375,7.206303251442312,2.0684030412398275,6.32149376232326
1757614120606828300,7.689828369140625,7.104288984122872,2.135708691010624,6.413907842126489
1757614120616785400,7.699785400390625,7.000706444573402,2.194424207090586,6.50730391870439
1757614120626742000,7.709741943359375,6.894141674342751,2.249331855320185,6.601644582656026
1757614120636698400,7.719698486328125,6.784422823995351,2.310556723872572,6.693528501105308
1757614120646655000,7.729655029296875,6.668923052158951,2.3860497717522082,6.78252312785387
1757614120656612000,7.739612060546875,6.548504528620839,2.4775121037885546,6.86654288879931
1757614120666569200,7.7495693359375,6.421317241600155,2.5818282183095813,6.9477493458896875
1757614120676526000,7.759526123046875,6.283014101803302,2.6911130611538887,7.032212758949399
1757614120686482200,7.769482177734375,6.1349617214083665,2.7966765453875064,7.121182251256704
1757614120696439300,7.779439208984375,5.990076280611753,2.890010662645101,7.206746903556585
1757614120706398000,7.78939794921875,5.86512654338479,2.9643554172724484,7.278960491374135
1757614120716354800,7.799354736328125,5.768442531177401,3.018250381328165,7.333868139603734
1757614120726311000,7.809310791015625,5.697676804080605,3.055948536081612,7.37346891310811
1757614120736268000,7.81926806640625,5.642148978126048,3.0869135831877585,7.403209386855363
1757614120746225000,7.829224853515625,5.587726483064889,3.1218601011455056,7.429783505526185
1757614120756182000,7.83918212890625,5.522349463269114,3.1678140430688857,7.459155145961046
1757614120766139100,7.84913916015625,5.437489159846305,3.2293685819670555,7.495017317458987
1757614120776095000,7.859094970703125,5.3270256286114455,3.3078824389725923,7.539966466253995
1757614120786052000,7.869052001953125,5.197785500714183,3.3970553448975083,7.5903510841012
1757614120796008700,7.8790087890625,5.062980139905214,3.488178508107364,7.639975823491811
1757614120805965800,7.8889658203125,4.951310155490041,3.5668607074171303,7.676744588440656
1757614120815922000,7.898921875,4.874068218116462,3.6346959340199825,7.6943369437545535
1757614120825878800,7.908878662109375,4.816254619312286,3.6954929325491186,7.701779660975933
1757614120835836000,7.9188359375,4.761818095725775,3.7543244762241836,7.7071730444520705
1757614120845793000,7.92879296875,4.702718256503343,3.815835468241572,7.713249734017253
1757614120855750000,7.93875,4.620708958597481,3.891467340070009,7.725019082266092
1757614120865706000,7.9487060546875,4.489550137597322,3.9988969104364513,7.747460631176829
1757614120875663000,7.9586630859375,4.292011257238686,4.148308888746798,7.780781301498413
1757614120885620000,7.968619873046875,4.029228043553233,4.333008745798469,7.8205334661722175
1757614120895576800,7.978576904296875,3.7506326359689233,4.5185082287952305,7.854058719155192
1757614120905534000,7.988533935546875,3.5290804273381826,4.6704514791488645,7.867835900095105
1757614120915489800,7.99848974609375,3.3972444377288222,4.771989068867266,7.864937256044149
1757614120925447000,8.008447021484375,3.3369200251474975,4.8298199110671876,7.855456310993432
1757614120935403800,8.01840380859375,3.3154198487401008,4.85954343367964,7.846222034180164
1757614120945361000,8.02836083984375,3.3255662719622254,4.86665735733807,7.837513827067613
1757614120955318000,8.038318115234375,3.3534830374136564,4.857326342152059,7.831404988798498
1757614120965273900,8.04827392578125,3.380082582786679,4.840933133494854,7.830119625163078
1757614120975231000,8.05823095703125,3.397747711075842,4.8301256160154935,7.829149903348088
1757614120985188000,8.06818798828125,3.3836759311035274,4.838396893015504,7.830137160819769
1757614120995145000,8.07814501953125,3.315966084446013,4.8812473159655925,7.8325073970824475
1757614121005101000,8.08810107421875,3.234121621713042,4.955082659766077,7.820358109605312
1757614121015058000,8.098057861328124,3.1438316944569347,5.049127555641531,7.7969889244556425
1757614121025014800,8.108014892578124,3.0585493662297725,5.158540701040625,7.759196661677956
1757614121034972000,8.117971923828126,2.9771561543956397,5.282416671556234,7.707334957015514
1757614121044929000,8.127928955078126,2.898076187939942,5.416676673442125,7.644026560187339
1757614121054884900,8.137884765625,2.833790762773156,5.555729754823446,7.56795162076652
1757614121064842000,8.147842041015625,2.7956007328495383,5.688915405476093,7.4827306673377745
1757614121074798800,8.157798828125,2.7720620363518593,5.794113563528657,7.410418295320868
1757614121084756000,8.167755859375,2.745197410301864,5.890182074186206,7.344387780052423
1757614121094713000,8.177713134765625,2.71673616271019,6.014305297461152,7.253816697767377
1757614121104669000,8.1876689453125,2.701541223926842,6.163940563133359,7.132873273572326
1757614121114626000,8.1976259765625,2.727549233147502,6.284881064718961,7.0164902891606085
1757614121124583000,8.2075830078125,2.7945632064953445,6.377313849222659,6.905843218052387
1757614121134539800,8.217539794921874,2.8631436985075474,6.454373123505711,6.805428202623128
1757614121144497000,8.227496826171874,2.9111656788766385,6.513188885089755,6.728585785961151
1757614121154453000,8.237452880859376,2.9549989753842354,6.557164804938435,6.666479750660061
1757614121164409900,8.247409912109376,3.0124814425379034,6.584428659439086,6.613670536014437
1757614121174367000,8.257366943359376,3.0848347310870885,6.592905980405211,6.571741611823439
1757614121184324000,8.267323974609376,3.1589579519182442,6.586824614664912,6.542562863612175
1757614121194281000,8.277281005859376,3.224162537756562,6.572708411028981,6.524927253678441
1757614121204237000,8.287237060546875,3.27738413259536,6.55769730437994,6.5135051114320754
1757614121214194000,8.29719384765625,3.3152164351224895,6.549904458546638,6.502191105735301
1757614121224150800,8.30715087890625,3.3381936983451244,6.553486408686638,6.48680882768631
1757614121234108000,8.31710791015625,3.3560157707616685,6.56206017576456,6.468920119774341
1757614121244064800,8.327064697265625,3.3873648487493395,6.560242897209525,6.454408194819092
1757614121254020900,8.337020751953125,3.446196976946294,6.535851967796683,6.448002419430017
1757614121263978000,8.34697802734375,3.52998000652641,6.4867796015918255,6.452233773389458
1757614121273934800,8.356934814453124,3.6242516968950627,6.421527084958553,6.46522886404097
1757614121283892000,8.36689208984375,3.725700147025287,6.347447703269124,6.480698820373416
1757614121293849000,8.37684912109375,3.8418402625918384,6.267003462722897,6.4911716990709305
1757614121303805000,8.386804931640626,3.97609909543395,6.180490131396055,6.493270132654905
1757614121313762000,8.396761962890626,4.122607461257279,6.08961860485971,6.48775984480083
1757614121323719000,8.406718994140626,4.272610683459043,6.000323533859849,6.473893232011795
1757614121333675800,8.41667578125,4.414910491676628,5.917372278928756,6.454738449686765
1757614121343633000,8.4266328125,4.548604091851413,5.839660678216815,6.4326464448660605
1757614121353588700,8.436588623046875,4.67791991533339,5.762991280034184,6.4090077951252455
1757614121363545900,8.4465458984375,4.7975902508527035,5.686077551701665,6.3892112077653405
1757614121373503000,8.4565029296875,4.9015419159755105,5.60978867726922,6.377738212114572
1757614121383459800,8.4664599609375,4.9925838306427,5.5355999899864194,6.371940339490771
1757614121393417000,8.4764169921875,5.073167771920562,5.46551113923788,6.368795027202367
1757614121403373000,8.486373046875,5.141031932356953,5.401253478860855,6.369194255653023
1757614121413330000,8.496329833984374,5.191718748021126,5.3464352624803775,6.37432869593203
1757614121423287000,8.506287109375,5.218542457538843,5.305608746573329,6.38652649872601
1757614121433244000,8.516243896484376,5.2232414290100335,5.2814510413944715,6.402687359932065
1757614121443200800,8.52620068359375,5.208099973979592,5.27410477028489,6.421052453184127
1757614121453156900,8.536156982421875,5.1634045076847075,5.2868923556655645,6.446582031238079
1757614121463114000,8.546114013671875,5.096188582023978,5.312753357630967,6.4787278125613925
1757614121473070800,8.55607080078125,5.030211258247494,5.3333150841444725,6.513302282336354
1757614121483028000,8.566028076171875,4.9855783357948065,5.336785390603542,6.544701629206537
1757614121492985000,8.575985107421875,4.960340434163808,5.331150015065074,6.568427372708916
1757614121502941000,8.58594091796875,4.9470560051769015,5.325051698189974,6.583375935515761
1757614121512898000,8.59589794921875,4.944210552617907,5.320668368539214,6.589055734717846
1757614121522855200,8.605855224609375,4.949876907816529,5.322601966950297,6.583237988349795
1757614121532811800,8.615811767578125,4.956152919346094,5.3350978759080165,6.568384702610969
1757614121542769000,8.625768798828124,4.963947518745065,5.356823970025777,6.54477235635519
1757614121552726000,8.63572607421875,4.979146256920695,5.3791316634237765,6.514862371259928
1757614121562681900,8.645681884765626,5.023664028561115,5.392126754075289,6.469786965736747
1757614121572639000,8.655638916015626,5.076814603990316,5.409435616272687,6.41360622883141
1757614121582595800,8.665595947265626,5.105177359643578,5.441389089894295,6.363869845759869
1757614121592553000,8.675552978515626,5.111748554727435,5.484636695468425,6.321328342628479
1757614121602510000,8.685510009765625,5.114506913524866,5.517735831993818,6.290213657918572
1757614121612466000,8.6954658203125,5.145720966956019,5.537708944964408,6.247056653237342
1757614121622423000,8.705423095703125,5.200503527501225,5.55426786557734,6.186699507430196
1757614121632380000,8.7153798828125,5.255676548668742,5.579937728884816,6.116580261543393
1757614121642336800,8.725336669921875,5.303787376365065,5.6214820376724,6.036486734130978
1757614121652294000,8.7352939453125,5.3359395874291655,5.678092982688546,5.954610999476909
1757614121662250000,8.74525,5.346365704375505,5.753629577448963,5.872181138071418
1757614121672206800,8.755206787109374,5.326025511658191,5.851011508792639,5.79391950226128
1757614121682164000,8.7651640625,5.251317184415459,5.970095568856596,5.740384311428666
1757614121692121000,8.77512109375,5.099405205982923,6.112288701829314,5.727684404331446
1757614121702077200,8.7850771484375,4.922293319842219,6.270404211077094,5.7116942235171795
1757614121712034000,8.795033935546876,4.737358777251839,6.436668539988994,5.683054989010095
1757614121721990100,8.804990234375,4.5312598660796874,6.6153294091373676,5.64583848029375
1757614121731947000,8.814947021484375,4.292937724433839,6.8031023900240655,5.608820124498009
1757614121741904100,8.824904052734375,3.99475849545747,6.985755543678999,5.604596369323134
1757614121751861000,8.834861083984375,3.6630458301916717,7.161907060354948,5.608881499296427
1757614121761817900,8.84481787109375,3.344352805496752,7.33269851130247,5.587238407287002
1757614121771774000,8.85477392578125,3.056533350232243,7.498929522466659,5.531189187806844
1757614121781731000,8.86473095703125,2.793801282212138,7.659724480056762,5.44919245712161
1757614121791688000,8.87468798828125,2.544410926324129,7.813454906088113,5.352219691100716
1757614121801645000,8.88464501953125,2.3085959451936184,7.96016230161488,5.241812858489156
1757614121811602200,8.894602294921874,2.101632087755203,8.101309724926947,5.110998613142967
1757614121821559000,8.90455908203125,1.9379471078120172,8.231245433872937,4.966021402409672
1757614121831515100,8.91451513671875,1.8189434195078908,8.341934006035327,4.824309038691222
1757614121841472300,8.92447216796875,1.7294801523342727,8.43322171215713,4.69681166280806
1757614121851428900,8.934428955078126,1.6496937911748886,8.510915192690492,4.58401764279902
1757614121861386000,8.944385986328125,1.57293700696975,8.580367499101161,4.480354146967828
1757614121871343000,8.954343017578125,1.49723616155833,8.642664088538288,4.385547911331058
1757614121881299000,8.964298828125,1.4340719955064356,8.697123993000387,4.2981230181172485
1757614121891256000,8.974256103515625,1.3777097645543515,8.750605407819151,4.20704252500534
1757614121901213000,8.984212890625,1.3021125256478785,8.801742305338383,4.1236160537779325
1757614121911170000,8.994170166015625,1.2275979674115776,8.854506511798501,4.0325080881372095
1757614121921127200,9.004127197265625,1.1713218803729861,8.908987459048628,3.927890944842994
1757614121931084000,9.014083984375,1.1431919105622916,8.957153231802582,3.825298877635598
1757614121941040000,9.0240400390625,1.137744239615649,8.996235534390806,3.7341236919775604
1757614121950997000,9.0339970703125,1.126565550736338,9.032188891303539,3.6497669541627165
1757614121960953900,9.043953857421876,1.0981916161019354,9.06597951722443,3.573843405911326
1757614121970911000,9.053910888671876,1.0653788953024894,9.097688660696148,3.5024864349231124
1757614121980868000,9.0638681640625,1.0520733504623174,9.131028035718202,3.418746659962833
1757614121990824000,9.073823974609375,1.0411037012238056,9.172506293532251,3.30932328543067
1757614122000781000,9.083781005859375,1.0105302837837487,9.22510391125381,3.169644765627384
1757614122010738200,9.09373828125,0.9763590610474348,9.279999284523726,3.016409721897542
1757614122020695000,9.103695068359375,0.9515072361245751,9.33099648131132,2.863130546765029
1757614122030652200,9.113652099609375,0.9302609614130108,9.379365667682885,2.7078569829449055
1757614122040609000,9.123609130859375,0.8995751696396619,9.424145889651776,2.5586384813800453
1757614122050565000,9.133565185546875,0.8544485453858971,9.45461000149846,2.4598133654907346
1757614122060522000,9.14352197265625,0.7969608175352215,9.475095155644416,2.399546236054599
1757614122070479000,9.15347900390625,0.7398603354364633,9.493974628159403,2.342531824804097
1757614122080436000,9.16343603515625,0.705600922960043,9.511607315483689,2.280756775023043
1757614122090393000,9.17339306640625,0.7103560085326432,9.523345684072375,2.2297246530525383
1757614122100349000,9.183348876953126,0.751154978845641,9.526875611764192,2.201090971503407
1757614122110306000,9.19330615234375,0.8161489906731992,9.522599249619246,2.196450452221185
1757614122120263200,9.20326318359375,0.8958804798401891,9.51207259490788,2.210945426041633
1757614122130220000,9.213219970703125,0.9871115604039281,9.496382858344912,2.2393523130975663
1757614122140177000,9.223177001953125,1.0777185177199542,9.478212410882115,2.274290063226968
1757614122150134000,9.233134033203125,1.1577200559999794,9.460229010424017,2.3095734119236466
1757614122160089900,9.24308984375,1.2193768131636082,9.44524771439135,2.338979685280472
1757614122170047000,9.253046875,1.2738109986625612,9.43336672246158,2.3578370920941234
1757614122180004000,9.263004150390625,1.3382244341231881,9.422507474794983,2.3655584801264107
1757614122189961000,9.2729609375,1.4214429616883397,9.41018575336039,2.366068037083745
1757614122199918000,9.28291796875,1.5222474148266016,9.396487482875585,2.357792960691452
1757614122209875200,9.292875244140625,1.6339621151663362,9.382579369032383,2.3383218058936297
1757614122219831000,9.3028310546875,1.749259788559377,9.36943580982089,2.3074071738004682
1757614122229788200,9.3127880859375,1.8621815266013144,9.357640742608904,2.2665451481886207
1757614122239745000,9.3227451171875,1.9639140543699263,9.348872914263605,2.2163057840310034
1757614122249702000,9.332701904296876,2.0464188807077703,9.346094097200035,2.1524545124977825
1757614122259659000,9.342658935546876,2.1003312342897056,9.35119580425322,2.0770440283350644
1757614122269614800,9.35261474609375,2.1167950239650906,9.365120284709334,1.9960135123334823
1757614122279572000,9.362572021484375,2.089709302510321,9.386915352410078,1.920757488080114
1757614122289529000,9.372529052734375,2.024117470920086,9.415449957498907,1.8500370614297688
1757614122299486200,9.382486328125,1.9195653556860983,9.450570370718836,1.7811191541567444
1757614122309443000,9.392443115234375,1.788546381548047,9.489404251503943,1.7095915027767419
1757614122319400200,9.402400146484375,1.6457415464177727,9.527933011862634,1.637188968258351
1757614122329356000,9.41235595703125,1.4970250030256806,9.563932546004652,1.5685943015903234
1757614122339313200,9.422313232421875,1.3430242356203497,9.597838907259701,1.4993896863304077
1757614122349270000,9.43227001953125,1.1859314935490488,9.629929743525386,1.424220901969075
1757614122359227000,9.442226806640624,1.0252675419274717,9.659944942560792,1.3433807939730584
1757614122369184000,9.45218408203125,0.8611417594142258,9.687490536612271,1.257513067073375
1757614122379141000,9.46214111328125,0.6993176779720932,9.71168097501695,1.168159763080254
1757614122389097000,9.472096923828126,0.5466777871238068,9.73139748287797,1.0823272536244242
1757614122399054000,9.48205419921875,0.39901345619838685,9.747357268553971,1.0001036553807556
1757614122409011200,9.49201123046875,0.24656905138958243,9.760382169821858,0.9189777892459183
1757614122418968000,9.501968017578125,0.09117387961694039,9.770763278582692,0.8332297432031482
1757614122428925000,9.511925048828125,-0.06361517948871478,9.778324653747678,0.7420885328799486
1757614122438881300,9.52188134765625,-0.2210761155515909,9.782927763628958,0.6448507592473178
1757614122448838000,9.531837890625,-0.3816516217047348,9.78451123342812,0.5366985006295144
1757614122458795000,9.541794921875,-0.5459413626080378,9.78245897707343,0.41931415715552867
1757614122468752100,9.551752197265625,-0.7137362255554646,9.776167183452843,0.2958624034013599
1757614122478709000,9.561708984375,-0.8765303941387682,9.765979551437496,0.16648283050078896
1757614122488666000,9.571666015625,-1.0123257158331573,9.754187406834959,0.03745128786988789
1757614122498622000,9.5816220703125,-1.1147214567508548,9.742730777797103,-0.08340161078078671
1757614122508579000,9.5915791015625,-1.2024953095328061,9.730787242025137,-0.1901556747721508
1757614122518536200,9.6015361328125,-1.2705484897352755,9.719913965833186,-0.28174974342938514
1757614122528493000,9.6114931640625,-1.3097574874430895,9.71211118312776,-0.36030795103330165
1757614122538450000,9.621449951171876,-1.332980395989865,9.706222125089168,-0.427573780250363
1757614122548407000,9.631406982421876,-1.3478963717013597,9.702142162299156,-0.47119215536564585
1757614122558363000,9.64136279296875,-1.3474525734566152,9.700408470374345,-0.5067886251321062
1757614122568320000,9.651320068359375,-1.3278586690619587,9.701392220714688,-0.5386687777891754
1757614122578277000,9.661277099609375,-1.2986664768472314,9.704673726603389,-0.5506136652680114
1757614122588234000,9.67123388671875,-1.2658043639481067,9.711006436756252,-0.5142845703780651
1757614122598191000,9.681191162109375,-1.2354023575522004,9.71830419254899,-0.4457573794556781
1757614122608148200,9.691148193359375,-1.2045093527689577,9.725593180513382,-0.36381939322035756
1757614122618104000,9.70110400390625,-1.1711981809280811,9.732394092699884,-0.2813737497238442
1757614122628061200,9.711061279296874,-1.1257155828434973,9.739753807812928,-0.20080498774880542
1757614122638018000,9.72101806640625,-1.055882022030279,9.748554369384049,-0.1455936255985871
1757614122647975000,9.730974853515624,-0.9764293498046696,9.75715210185945,-0.12226560357636772
1757614122657932000,9.74093212890625,-0.8937184795007109,9.765238962203263,-0.10833262015338986
1757614122667888000,9.75088818359375,-0.8077356017887591,9.772918410789966,-0.08956848111376166
1757614122677845000,9.760844970703126,-0.7190395926605909,9.780039056450128,-0.0649081921410514
1757614122687802000,9.770802001953125,-0.6288481573428958,9.786368843993545,-0.043735832049068994
1757614122697759200,9.78075927734375,-0.5376397635350003,9.79180431304574,-0.04337778499217238
1757614122707716400,9.79071630859375,-0.45395029398985204,9.795955587506294,-0.05956540634098928
1757614122717673200,9.800673095703125,-0.3867338934050873,9.798601718100905,-0.09075127029069699
1757614122727629300,9.81062939453125,-0.34264914288707077,9.799849672335386,-0.12629807396284304
1757614122737586400,9.82058642578125,-0.29977831646976993,9.800422503787278,-0.1795985883899033
1757614122747543300,9.830543212890625,-0.25033729961561035,9.80012030597031,-0.25566956402165814
1757614122757500400,9.84050048828125,-0.23036941080940887,9.797889770439266,-0.3445094203336164
1757614122767457500,9.85045751953125,-0.2409165603195317,9.794590144371986,-0.42231728449426587
1757614122777414400,9.860414306640624,-0.28336828454192725,9.790821731749176,-0.4794799085764214
1757614122787370500,9.87037060546875,-0.3458197722798213,9.786995451459289,-0.5152761752313003
1757614122797327400,9.880327392578126,-0.40785526309534903,9.78385832247734,-0.5292946541137993
1757614122807284500,9.890284423828126,-0.4537164121687412,9.782215815967321,-0.5222666917057708
1757614122817241300,9.900241455078126,-0.4803090163443237,9.782343826261162,-0.49539278637077655
1757614122827198200,9.9101982421875,-0.4933607690865174,9.783931387713551,-0.44906248541567473
1757614122837155300,9.9201552734375,-0.5015506148807705,9.786270059794187,-0.3843662874909118
1757614122847111400,9.930111328125,-0.5100268033357337,9.78856080107987,-0.30713677120748906
1757614122857068300,9.940068359375,-0.5191660222766921,9.790262928822637,-0.22719715571515262
1757614122867025400,9.950025390625,-0.5315301580809056,9.791008194231987,-0.1550238633753732
1757614122876982500,9.959982421875,-0.5541601422358304,9.790493814969063,-0.09765575244952925
1757614122886939400,9.969939453125,-0.594415982115455,9.78846435496807,-0.05508364868389908
1757614122896896300,9.979896240234375,-0.6535691224277019,9.784823952639103,-0.021547289785020983
1757614122906852600,9.9898525390625,-0.7148692481733858,9.78055869641006,0.003476986790783121
1757614122916809200,9.999809326171874,-0.7688154309596866,9.77645476822257,0.015349797126563498
1757614122926766300,10.009766357421874,-0.8020619400665163,9.77378759483993,0.013805319047364173
1757614122936723500,10.019723388671874,-0.8157846874054521,9.772658298549056,-0.004928609229557332
1757614122946680300,10.029680419921876,-0.8193575043909251,9.772292387846111,-0.036916057615180034
1757614122956636400,10.039636474609376,-0.8114960503008216,9.772769357708096,-0.06963608374604954
1757614122966593300,10.04959326171875,-0.8020423585832118,9.773335174897312,-0.09510551084429025
1757614122976550400,10.05955029296875,-0.8085845467682927,9.772597508272527,-0.11371076952777802
1757614122986507500,10.069507568359375,-0.8197668889094144,9.771345462384819,-0.1384982057112269
1757614122996464400,10.07946435546875,-0.8232864413376897,9.770570386359095,-0.1689501521960832
1757614123006421200,10.089421142578125,-0.8347474542897194,9.769517662435769,-0.1734944262959063
1757614123016377300,10.09937744140625,-0.8270979624498636,9.770440037977695,-0.15753407436432315
1757614123026334200,10.109334228515625,-0.8140687503330409,9.771859841647744,-0.1358928546515759
1757614123036291300,10.119291259765625,-0.814133266936615,9.772215815478562,-0.10667191126639954
1757614123046248400,10.12924853515625,-0.8220421403650194,9.771833538162708,-0.07684810661724768
1757614123056205300,10.139205322265624,-0.8098910262569785,9.772907889395952,-0.06869517246701289
1757614123066162400,10.149162353515624,-0.7617988301958888,9.776574010688066,-0.09281352744959294
1757614123076118500,10.159118408203126,-0.6752615334715694,9.78229355737865,-0.1453685664047487
1757614123086075400,10.169075439453126,-0.5287909423753618,9.789484345665574,-0.23823871941240504
1757614123096032300,10.1790322265625,-0.36575142072886224,9.79275357659459,-0.37225926825292405
1757614123105989400,10.1889892578125,-0.22890534787252545,9.788676536414027,-0.54752596491836
1757614123115946200,10.1989462890625,-0.13444384315335192,9.779873052233457,-0.7116000903096049
1757614123125903400,10.2089033203125,-0.04482312952885404,9.773653154805302,-0.8025556418675929
1757614123135859500,10.218859375,0.07632428367254324,9.772084882575273,-0.8190944695405662
1757614123145816300,10.22881640625,0.22505667308773844,9.77084277355969,-0.8064690159190445
1757614123155773400,10.2387734375,0.38764384785685685,9.770531807914375,-0.7462194952048361
1757614123165730600,10.24873046875,0.5590480969404802,9.769771929457782,-0.6398445484578609
1757614123175687400,10.2586875,0.7311267746869474,9.766504452094436,-0.501241987323016
1757614123185644300,10.268644287109375,0.8806724623795599,9.761026897466182,-0.34228988112062214
1757614123195600400,10.278600341796874,0.9911530908796936,9.754836810654401,-0.17650409297328443
1757614123205557200,10.28855712890625,1.051282346215099,9.750096922650933,-0.02884896826762706
1757614123215514400,10.298514404296874,1.0577210009604692,9.74913187701106,0.0778568087357562
1757614123225471500,10.308471435546876,1.0176204612404107,9.752668234443664,0.14256225854605437
1757614123235428400,10.318428466796876,0.9423252740204334,9.759702955386041,0.1750321024582721
1757614123245385500,10.328385498046876,0.8388672376334667,9.768816236168146,0.19215090370997787
1757614123255341300,10.33834130859375,0.7157475653778761,9.778248665902018,0.20958620529863983
1757614123265298400,10.34829833984375,0.5868209238765761,9.786101132968067,0.24135703409602866
1757614123275255600,10.358255615234375,0.4570157459750771,9.791481656962633,0.29736522744605315
1757614123285212200,10.368212158203125,0.32918066257014866,9.79378175059855,0.3793250784533098
1757614123295169300,10.378169189453125,0.20632179667521267,9.792277191254495,0.48901316833626474
1757614123305126400,10.38812646484375,0.09294034130019135,9.786157831591368,0.6267842836156488
1757614123315082200,10.398082275390625,-0.006336372547829523,9.774661455065011,0.7914069097351283
1757614123325039400,10.408039306640624,-0.09130728760510683,9.757118199589849,0.9801485164582728
1757614123334996500,10.41799658203125,-0.1591968016784638,9.733474289152026,1.18513413262628
1757614123344953300,10.427953369140624,-0.2067018272350542,9.70452291995585,1.3963947374105452
1757614123354910500,10.437910400390624,-0.2378316181825474,9.671339027756453,1.605933706033975
1757614123364867300,10.447867431640624,-0.25379998902380463,9.635147185912727,1.8082941613301633
1757614123374823400,10.457823486328126,-0.2543715601003729,9.597492870301007,1.998460174833238
1757614123384780300,10.4677802734375,-0.2298913632351905,9.559772503715752,2.1744630768187343
1757614123394737400,10.4777373046875,-0.1754491588265635,9.523611641532183,2.332473664387315
1757614123404694300,10.4876943359375,-0.08750022347234189,9.492309909817576,2.461456748783588
1757614123414651400,10.4976513671875,0.06038638103478588,9.468702239736913,2.5515526147723198
1757614123424608500,10.5076083984375,0.28503775212410837,9.450857955488562,2.6020012377664443
1757614123434564400,10.517564453125,0.5679169745074585,9.436830599179864,2.6065444341540336
1757614123444521500,10.527521484375,0.872403669597581,9.426966207769512,2.557657945910096
1757614123454478600,10.537478515625,1.163646669569984,9.421446567565201,2.460213470724225
1757614123464435500,10.547435546875,1.4172691831350326,9.420102751740814,2.328814411227405
1757614123474392300,10.557392333984374,1.6233388682127,9.420403195992112,2.188876509835571
1757614123484349400,10.567349365234374,1.7955822715342045,9.416725968784093,2.06677149451524
1757614123494305300,10.57730517578125,1.9424080327436326,9.411424939766526,1.955127375193685
1757614123504262400,10.587262451171876,2.073852977208793,9.407406351774931,1.8358119905918835
1757614123514219300,10.59721923828125,2.200127971690148,9.405445865356922,1.6933372641988098
1757614123524176400,10.60717626953125,2.3246127217538652,9.40207434309721,1.5386847548864782
1757614123534133500,10.617133544921876,2.4620514998063445,9.390209717780351,1.3902015818588436
1757614123544090400,10.62709033203125,2.6085303472742436,9.371109880512952,1.244293081624806
1757614123554047200,10.637047119140625,2.748041109295189,9.351576328003405,1.0801309856891632
1757614123564003600,10.647003662109375,2.876061047747731,9.332781611162423,0.8932248507648706
1757614123573960200,10.656960205078125,2.9888971533328292,9.314943756654857,0.6846051158782094
1757614123583917300,10.666917236328125,3.070486180000007,9.301539500680565,0.4731509978158399
1757614123593874400,10.67687451171875,3.127942635929584,9.289896993681788,0.2901245721354149
1757614123603831300,10.686831298828125,3.173298027437925,9.278079130116105,0.13352595199029893
1757614123613788400,10.696788330078125,3.217412771235406,9.263834331664443,-0.00017014385463644428
1757614123623744500,10.70674462890625,3.2558705121845004,9.2497584600389,-0.10789158012131228
1757614123633701400,10.716701416015624,3.282175458525121,9.239299025344849,-0.18181690376019105
1757614123643658500,10.726658447265624,3.2918241613581776,9.235150673493742,-0.21509457519026473
1757614123653615400,10.736615478515626,3.282802065990865,9.238402368766069,-0.21335167704569175
1757614123663572200,10.746572265625,3.2600048355102538,9.247163182848691,-0.18088608918348326
1757614123673529300,10.756529296875,3.2169083288446068,9.263194280195236,-0.12301289654602296
1757614123683485200,10.766485107421875,3.148102211382985,9.287510975328088,-0.04443156836142297
1757614123693442300,10.7764423828125,3.0579537384241817,9.31749285661578,0.06032626204511616
1757614123703399200,10.786399169921875,2.958399431477487,9.347796224942803,0.19229144469182938
1757614123713356300,10.796356201171875,2.86370746987015,9.3726600325644,0.35045386182125654
1757614123723313400,10.8063134765625,2.781746395020187,9.387869292134045,0.5479001685256139
1757614123733270500,10.8162705078125,2.7623750473350284,9.374870109829306,0.8071453077454119
1757614123743226400,10.826226318359375,2.8292613026499747,9.324683644902706,1.1026984990671276
1757614123753183500,10.83618359375,2.9284853547289966,9.257930660578609,1.3729773292049765
1757614123763140000,10.84614013671875,3.010143939501047,9.198816208308935,1.578352894538641
1757614123773097200,10.85609716796875,3.062991148069501,9.15708309895098,1.7135583605810998
1757614123783054300,10.866054443359374,3.0834158041998743,9.136984898295998,1.782816167332977
1757614123793011200,10.87601123046875,3.0993183067306873,9.127169606724381,1.8053791506662964
1757614123802968300,10.88596826171875,3.1273192433342336,9.118383658200502,1.8014802435316144
1757614123812924400,10.89592431640625,3.1326217336565256,9.119477883177995,1.7866667052812872
1757614123822881300,10.90588134765625,3.0985666115805506,9.133631496214866,1.7737153076410292
1757614123832838400,10.91583837890625,3.0379253881350157,9.154057613649965,1.7733105262324214
1757614123842795300,10.925795166015625,2.9518872731044885,9.180182819509506,1.7835323527783153
1757614123852752100,10.935752197265625,2.843654861922562,9.210495540186763,1.8029912326164543
1757614123862709200,10.945709228515625,2.717906667794287,9.243705735871195,1.8268191213190554
1757614123872665300,10.955665283203125,2.5808237174421547,9.27928382973075,1.845165071479231
1757614123882622200,10.965622314453125,2.442292614108324,9.31810835816562,1.8380588927358388
1757614123892579300,10.975579345703125,2.2988594179466366,9.362643665462732,1.7962592940129338
1757614123902536400,10.985536376953124,2.1303215911448,9.415453464630245,1.7266637797392903
1757614123912493300,10.995493408203124,1.9423449043795464,9.473156881058216,1.6300231682822108
1757614123922450400,11.005450439453124,1.7825301899984478,9.524534017074108,1.5087214321687816
1757614123932406300,11.01540625,1.655973163705319,9.568339256530999,1.3693091620862483
1757614123942363100,11.025363037109376,1.537480055271834,9.608721535801887,1.2161531749419867
1757614123952320300,11.0353203125,1.4311448560133575,9.64355319520831,1.0602369293041527
1757614123962277400,11.04527734375,1.3548914912857115,9.668872929903864,0.9206365162383764
1757614123972234200,11.055234130859375,1.2999946567110716,9.685862643149495,0.8151449281971901
1757614123982191400,11.06519140625,1.2333332961931824,9.699296125218272,0.7569315164204686
1757614123992148500,11.0751484375,1.1718095908246933,9.708917355522512,0.7308776222314685
1757614124002104300,11.085104248046875,1.1289891246214507,9.715355864137411,0.712486956146732
1757614124012061400,11.0950615234375,1.1051694922905415,9.719783617451787,0.6890408333033323
1757614124022018300,11.105018310546875,1.0909551620423794,9.723418759083748,0.6597889467906206
1757614124031975200,11.11497509765625,1.0801103082273156,9.72636065775454,0.6337641325656325
1757614124041932300,11.124932373046875,1.0741424858640878,9.7281481256932,0.6162275990922004
1757614124051889200,11.13488916015625,1.0756010141093284,9.728741415411234,0.6042096098445355
1757614124061846300,11.14484619140625,1.0842439009007065,9.728386026102305,0.5944098811682313
1757614124071802400,11.15480224609375,1.096175819300115,9.727589322766661,0.5854998678732664
1757614124081759200,11.16475927734375,1.1079827230803667,9.726726568457483,0.5775339304953814
1757614124091716400,11.17471630859375,1.1164566099803894,9.725885441458225,0.575376752461493
1757614124101673500,11.184673583984376,1.1237270393747836,9.724449271175265,0.58542767941989
1757614124111630000,11.194630126953125,1.1327371520433573,9.722012399417162,0.6081069826092571
1757614124121587200,11.204587158203125,1.1367860621079802,9.719915719398855,0.6335309083316475
1757614124131543300,11.214543212890625,1.1318554007727653,9.719009125947952,0.6558711157597601
1757614124141500200,11.224500244140625,1.1170846787508577,9.71947849702537,0.6739882256001234
1757614124151457300,11.234457275390625,1.096216370506212,9.720806530758738,0.6889025938764214
1757614124161414400,11.244414306640625,1.0775983254063874,9.720981887325644,0.7153023788936436
1757614124171371300,11.254371337890625,1.0665769459806382,9.718689976996183,0.7614855264630168
1757614124181328400,11.264328369140625,1.063163849601522,9.713031220582128,0.834929605923593
1757614124191285200,11.27428515625,1.0637663455393165,9.703560212403536,0.937932007497549
1757614124201241300,11.284241455078124,1.0614030504740775,9.690630003681779,1.065604082360491
1757614124211198200,11.2941982421875,1.0522402314618229,9.674994043132662,1.207340265345946
1757614124221155300,11.3041552734375,1.0344078568469732,9.657249712127447,1.355698862145841
1757614124231112200,11.3141123046875,1.0089289860669524,9.637599839761853,1.5063598176039754
1757614124241069300,11.3240693359375,0.9823574977446347,9.615906478869915,1.6552013025499879
1757614124251026400,11.3340263671875,0.9502459109518676,9.592459552308917,1.8033717563666403
1757614124260982300,11.343982177734375,0.9074026483949273,9.567233341115713,1.9532130660049616
1757614124270939400,11.353939453125,0.8485773883301764,9.541026886713505,2.1021648794576526
1757614124280896300,11.363896240234375,0.7749848403096199,9.515069438636303,2.2434828370310367
1757614124290853400,11.373853271484375,0.6904827757399529,9.492157934126258,2.3648615839034317
1757614124300810200,11.383810302734375,0.5972887976054102,9.47503085823655,2.4571204731449483
1757614124310767400,11.393767333984375,0.506719943810068,9.464889987972379,2.5158432957485317
1757614124320724200,11.40372412109375,0.41507871154285964,9.46242389011979,2.5417785319939252
1757614124330680300,11.413680419921874,0.32700233215037733,9.466189380133152,2.5406129953458905
1757614124340637200,11.42363720703125,0.23836493960795924,9.474112574347853,2.5208620006933806
1757614124350594300,11.43359423828125,0.14802149206632748,9.485017999243736,2.486543551506102
1757614124360551400,11.443551513671874,0.05777494729422032,9.49882966697514,2.437065965501219
1757614124370508300,11.45350830078125,-0.028711553107912183,9.514963055652379,2.3738236196465787
1757614124380465200,11.463465087890626,-0.1057523396029137,9.531773905199765,2.3031441095285117
1757614124390421500,11.47342138671875,-0.17520590638890862,9.547770515754818,2.231539447389543
1757614124400378000,11.483378173828125,-0.236646207790263,9.562004792812466,2.1638988665759564
1757614124410335200,11.493335205078125,-0.2873995493520051,9.573753682795166,2.1050050713196398
1757614124420292400,11.503292236328125,-0.32479247408118095,9.583175591135024,2.0561184369452294
1757614124430249200,11.513249267578125,-0.3469450499827042,9.590537644335628,2.0178226085595785
1757614124440206300,11.523206298828125,-0.3520757639346644,9.595628245472907,1.9925655638366937
1757614124450163500,11.53316357421875,-0.3382898151664063,9.598509353867172,1.981050190348923
1757614124460119300,11.543119384765625,-0.3074475907223299,9.599641572767496,1.980584034141898
1757614124470076400,11.553076416015625,-0.2638603413976729,9.599975919288397,1.9852496878653763
1757614124480033300,11.563033203125,-0.20755259884549304,9.598537410917878,1.9988418676272033
1757614124489990100,11.572990234375,-0.14344823846719226,9.5949314953804,2.0216586795911193
1757614124499947300,11.582947265625,-0.07109990465433802,9.589191490423678,2.0524916247501968
1757614124509904400,11.592904296875,0.010056591797492001,9.581707856670022,2.0883356760695575
1757614124519860200,11.602860107421876,0.10077734593562782,9.572468903681635,2.1279272433541716
1757614124529817300,11.6128173828125,0.2009782254238613,9.562535538688302,2.1651624567709864
1757614124539774500,11.6227744140625,0.3082840415464714,9.552627308136223,2.1960515160314737
1757614124549731300,11.6327314453125,0.4194719415331259,9.543650805476307,2.2165635581843555
1757614124559688400,11.6426884765625,0.5290442960819229,9.536157234850526,2.2253484837949276
1757614124569644300,11.652644287109375,0.6315391499925405,9.53072001223266,2.2219138331711292
1757614124579601400,11.662601318359375,0.7269057959910482,9.526712530156969,2.209921343690902
1757614124589558300,11.672558349609375,0.8163204017173499,9.522689850512146,2.1959974477566777
1757614124599515100,11.68251513671875,0.9036220338776707,9.517222817277908,2.1854840909183024
1757614124609472300,11.69247216796875,0.9901052623271942,9.509452183276414,2.181836674326658
1757614124619429400,11.702429443359375,1.0728966505214572,9.499474979141354,2.1861495690897104
1757614124629385200,11.71238525390625,1.1462064360778779,9.488650802788138,2.195930373869836
1757614124639342300,11.72234228515625,1.201028232654929,9.478828496953845,2.209008758890629
1757614124649299500,11.732299560546876,1.2320682446934281,9.471292840752005,2.224185139103979
1757614124659256300,11.74225634765625,1.2380232075750828,9.466088842368125,2.2429550137646497
1757614124669213200,11.752213134765626,1.2171492733072489,9.46307738559246,2.2669547519028184
1757614124679170300,11.76217041015625,1.1712993762802333,9.463069786807894,2.291013965143263
1757614124689126100,11.772126220703125,1.1019138514954596,9.466503852909803,2.3111605349846185
1757614124699083300,11.782083251953125,1.0119638967834412,9.47300081371367,2.325630812755227
1757614124709039600,11.79203955078125,0.9050971479315311,9.481901328527927,2.333390925362706
1757614124718996700,11.801996826171875,0.7836926820959895,9.492183653089404,2.3355217999115583
1757614124728953600,11.81195361328125,0.6552351559437811,9.502306987696885,2.3339262012831865
1757614124738910700,11.82191064453125,0.525766479987651,9.511391042384505,2.3296742429271338
1757614124748867800,11.831867919921875,0.39571098058689386,9.519861933609842,2.3207797194622457
1757614124758823700,11.84182373046875,0.26409175726706163,9.528740821114182,2.3029864347487687
1757614124768780800,11.85178076171875,0.13054623292661272,9.538132334315776,2.27538662629202
1757614124778737700,11.861737548828126,-0.004483237228123471,9.546924712580442,2.2420129106089473
1757614124788694500,11.871694580078126,-0.1437286263111513,9.552556580987572,2.2132330985873936
1757614124798651600,11.881651611328126,-0.28149891047347336,9.559154664078354,2.171108797954768
1757614124808608800,11.89160888671875,-0.4250297583233565,9.566201659980416,2.116018194373697
1757614124818564600,11.901564697265625,-0.5583646447209641,9.574424713924527,2.0467096803478895
1757614124828521700,11.911521728515625,-0.66992177987881,9.584950784114003,1.9622262474134564
1757614124838478600,11.921478515625,-0.7483102569390088,9.597778701505064,1.8689744016118346
1757614124848435700,11.931435791015625,-0.7843983461473136,9.612495209121704,1.7762462874233722
1757614124858392800,11.941392822265625,-0.7706473225619643,9.628162733852863,1.695578613384813
1757614124868349700,11.951349609375,-0.716273269752413,9.643251581913232,1.6324945268318056
1757614124878306600,11.961306640625,-0.642600861428678,9.656223876211046,1.5858059870235621
1757614124888262700,11.9712626953125,-0.5560884068846702,9.665912911054491,1.5592526188798248
1757614124898219500,11.981219482421874,-0.4707486493818462,9.672455464565754,1.5467325983941553
1757614124908176600,11.9911767578125,-0.37419399917516855,9.676633042511343,1.546971960107982
1757614124918133800,12.0011337890625,-0.2702507548208348,9.679202016216516,1.552543768890947
1757614124928090600,12.011090576171876,-0.16927279001288115,9.680819388285279,1.5567464812777936
1757614124938047700,12.0210478515625,-0.07494549243289511,9.681706107991934,1.5586356560252606
1757614124948003800,12.03100390625,0.006728010205429746,9.68195452979505,1.5588842239588498
1757614124957960700,12.040960693359375,0.06420471091365906,9.68152607524991,1.5602354924373327
1757614124967917600,12.05091748046875,0.09467487347521819,9.679969493457675,1.5683211837373674
1757614124977874700,12.060874755859375,0.11549599984358064,9.67634019704461,1.5891760479785502
1757614124987831600,12.07083154296875,0.1384797750053927,9.671022216892242,1.619425494161248
1757614124997788700,12.08078857421875,0.15703653663834555,9.664929160714149,1.6537512498721478
1757614125007745800,12.090745849609375,0.1680772052864544,9.658357381108402,1.6906439334616064
1757614125017701600,12.10070166015625,0.16985961345750838,9.651690324434638,1.728120992810279
1757614125027658800,12.11065869140625,0.16376403652876614,9.64506476881504,1.7653097367368638
1757614125037615900,12.120615966796874,0.15156421530763617,9.63816448790729,1.8036705931827426
1757614125047572700,12.13057275390625,0.13853219017921947,9.630133157142996,1.8470855181477963
1757614125057529600,12.140529541015624,0.12835533528621307,9.620179333883524,1.8989603745527563
1757614125067486700,12.15048681640625,0.1181605976766441,9.608450902166963,1.958081110432744
1757614125077442600,12.160442626953126,0.11151663875067606,9.595440029424429,2.0212571130529047
1757614125087399700,12.170399658203126,0.10784345753011293,9.582043956756591,2.0840322797872126
1757614125097356500,12.1803564453125,0.10176351656191981,9.568965863996743,2.1435797166466712
1757614125107313700,12.190313720703125,0.0905122465035878,9.556782674250005,2.197743853032589
1757614125117270800,12.200270751953125,0.07664156032763421,9.545912320667505,2.245003762988001
1757614125127228000,12.210227783203125,0.06150374485927168,9.536391628128289,2.2855663672618567
1757614125137183700,12.220183837890625,0.04474375784944277,9.528711595019697,2.3177631481200454
1757614125147140900,12.230140869140625,0.02890418960318202,9.523433362355828,2.339603662397712
1757614125157097500,12.240097412109375,0.020470559365022928,9.519747951841353,2.354651301664859
1757614125167054600,12.2500546875,0.015140247170755173,9.51546399091184,2.3719392672047017
1757614125177011700,12.26001171875,0.008865961807395796,9.510145426237582,2.393203881290555
1757614125186968600,12.269968505859374,0.001566131932348071,9.504429971200228,2.415822248072922
1757614125196924700,12.279924560546876,-0.007829475491173798,9.497898523604869,2.441365270130336
1757614125206881800,12.2898818359375,-0.026751041573728433,9.490483863434195,2.4698949067831037
1757614125216838700,12.299838623046876,-0.06074754706395324,9.481602053320408,2.5031822593569752
1757614125226795800,12.309795654296876,-0.11542372005865909,9.47150794480741,2.539216864812374
1757614125236752600,12.319752685546876,-0.19017521972283719,9.461427864819765,2.572083653886616
1757614125246709500,12.32970947265625,-0.282971028852649,9.451144955736398,2.601187291035056
1757614125256666600,12.33966650390625,-0.3971616177866235,9.439735672971606,2.6275483514770865
1757614125266622700,12.349622802734375,-0.5300346588261425,9.427470065638422,2.648058932325244
1757614125276579600,12.35957958984375,-0.6699461106024682,9.41632089511454,2.656018659158051
1757614125286536700,12.36953662109375,-0.8094095994155853,9.407443176653981,2.6486267953410745
1757614125296493800,12.379493896484375,-0.9404919211134314,9.401467609375715,2.6264588026747107
1757614125306450700,12.38945068359375,-1.057394764680788,9.398926108199358,2.5908488523721696
1757614125316407800,12.39940771484375,-1.1567454388141631,9.399918041846156,2.5443758550107476
1757614125326363600,12.40936376953125,-1.2338408073239027,9.405018579855561,2.4887042366713286
1757614125336320500,12.419320556640624,-1.2863501622401177,9.414259286409616,2.4263955184049903
1757614125346277600,12.429277587890626,-1.313417763516307,9.426819492775202,2.362287787892669
1757614125356234800,12.43923486328125,-1.3170238251842559,9.441542430132627,2.300677573284507
1757614125366191600,12.449191650390626,-1.2928271031692624,9.459425877347588,2.240149016433209
1757614125376148700,12.459148681640626,-1.2413728102639316,9.480950895935296,2.1773728267855943
1757614125386104600,12.4691044921875,-1.1733462258074432,9.502750639811158,2.11929020178169
1757614125396061700,12.479061767578125,-1.0996760094407945,9.521122162804007,2.075898511561751
1757614125406018800,12.489018798828125,-1.031540192456171,9.533987489596008,2.0516819158025084
1757614125415975700,12.4989755859375,-0.9779025641623884,9.540030276891589,2.049860545594245
1757614125425932500,12.5089326171875,-0.9467072884969413,9.537749472478032,2.0749625458858905
1757614125435889700,12.5188896484375,-0.9384647261347621,9.527485852617025,2.1252451646633443
1757614125445845500,12.528845458984375,-0.946884983151406,9.511221531036496,2.193274744794518
1757614125455802600,12.538802734375,-0.9631455784048885,9.490866725271939,2.2729227203965188
1757614125465759700,12.548759765625,-0.985519030515477,9.466430203151702,2.363437250188738
1757614125475716600,12.558716552734374,-1.0182898849345743,9.435893610590696,2.4692878808006644
1757614125485673700,12.568673828125,-1.0649676110878585,9.396324985790253,2.597175425045192
1757614125495630800,12.578630859375,-1.1250870756816118,9.347115256941319,2.7451813359498978
1757614125505586700,12.588586669921876,-1.192851940461993,9.286336670851707,2.9174440284937617
1757614125515543800,12.598543701171875,-1.2669997112125158,9.213740805718302,3.110001905569434
1757614125525500700,12.608500732421875,-1.3388117324918507,9.131757519036531,3.3149609990566966
1757614125535457500,12.61845751953125,-1.4002695330172776,9.045247694841027,3.520385079707205
1757614125545414700,12.62841455078125,-1.4486734984412788,8.961146100831032,3.7107369711712
1757614125555371800,12.638371826171875,-1.478636675028503,8.88686389004588,3.8739714308679103
1757614125565327600,12.64832763671875,-1.4891045852899552,8.826118037182091,4.006565545368194
1757614125575284700,12.65828466796875,-1.480388925523311,8.778479503172635,4.1130458521857856
1757614125585241600,12.66824169921875,-1.4572696234814821,8.74262726854682,4.196809592543542
1757614125595198700,12.67819873046875,-1.4201352400906384,8.719572556173802,4.257069999977946
1757614125605155600,12.688155517578124,-1.380110688216239,8.71213393060565,4.2853690427452324
1757614125615112700,12.69811279296875,-1.3374204242639243,8.711080622160434,4.30102136990726
1757614125625068500,12.708068603515626,-1.2788346720434725,8.708706878766417,4.32358625293672
1757614125635025700,12.718025634765626,-1.2067455143231898,8.705916371265053,4.3498476523965595
1757614125644982500,12.727982421875,-1.126972085710615,8.704230025613308,4.374553346846997
1757614125654939600,12.737939697265626,-1.0529045405894517,8.701013986176251,4.39933473688215
1757614125664896800,12.747896728515625,-0.9917886853694915,8.692221023389697,4.430805395422875
1757614125674852600,12.7578525390625,-0.9411883058797568,8.676572203359008,4.472317263245582
1757614125684809700,12.767809814453125,-0.8944573151692747,8.655117911919952,4.523189956870675
1757614125694766800,12.777766845703125,-0.8469319592107087,8.629411223733424,4.581085973261296
1757614125704723700,12.7877236328125,-0.8006177326075732,8.59907453765869,4.6459991749376055
1757614125714680600,12.7976806640625,-0.7584460857018828,8.563297121834754,4.718589487113058
1757614125724637700,12.8076376953125,-0.7216320203065871,8.52369225667715,4.795445055517554
1757614125734593800,12.81759375,-0.6857431799974292,8.478924894189834,4.879341190083324
1757614125744550700,12.827550537109374,-0.6560355856064707,8.427652387592197,4.971386144313216
1757614125754507800,12.8375078125,-0.6382904508836567,8.372658230122923,5.065726808264851
1757614125764465000,12.84746484375,-0.6348414064083248,8.321422548404335,5.149882762810588
1757614125774421800,12.857421875,-0.6409402347400784,8.283494676548242,5.209921928709745
1757614125784379000,12.86737890625,-0.6373578462086618,8.256701946690677,5.252717114341259
1757614125794334700,12.877334716796875,-0.6066735522726551,8.238662432131171,5.284579987069964
1757614125804291800,12.887291748046875,-0.5517300290120766,8.230555113521218,5.303198762822151
