time,seconds_elapsed,z,y,x
1757614272705951700,57.53095166015625,3.818341898104548,-8.465213764223456,5.830502973771095
1757614272715907800,57.54090795898438,4.041363302505016,-6.399363183945417,5.0794794392853975
1757614272725862700,57.55086254882813,3.725303548923135,-3.6188662044644353,3.9287735728964206
1757614272735818800,57.56081884765625,3.0539556086987254,0.1349035604864358,2.228297981250286
1757614272745774800,57.57077490234375,2.6838468695431947,5.507877285802364,0.1020833870328962
1757614272755731000,57.58073095703125,3.920567470087111,12.670795569026469,-1.0281665513046083
1757614272765685800,57.59068579101562,4.990373753377795,20.64329303607941,0.7557645915329456
1757614272775641600,57.6006416015625,5.214000137934089,28.18718398230076,6.711060650664567
1757614272785597700,57.61059765625,4.977002815151215,32.69831349902153,13.12682785692215
1757614272795552800,57.620552734375,1.811801000407338,30.929377242350576,12.49932490364313
1757614272805508900,57.6305087890625,-1.1552449711233377,24.324401469445228,6.227108090186118
1757614272815464700,57.64046459960937,-3.6160944016635415,20.160124903976914,2.370711478975415
1757614272825420800,57.6504208984375,-5.330308303543925,17.712419617170095,0.6654840166270732
1757614272835376400,57.66037646484375,-5.204055667024851,15.32102716921568,-0.302580386544764
1757614272845332500,57.67033251953125,-4.336071932761371,13.142065173542498,-0.9657716160595416
1757614272855288600,57.68028857421875,-3.337370107002556,11.29150861828327,-1.4263520687788724
1757614272865244400,57.69024438476563,-2.5482465589642525,9.64452408606708,-1.9035019635051489
1757614272875199500,57.70019946289062,-1.871926967807114,8.063774651780724,-2.1820956175237893
1757614272885155300,57.7101552734375,-1.096932775147259,6.523250844898819,-2.315464223527908
1757614272895111700,57.72011157226562,-0.2868716530203819,4.938545950984954,-2.5666625056207177
1757614272905066500,57.73006640625,0.4121209577158093,3.1264427527606484,-2.927958408245444
1757614272915022300,57.74002221679687,0.8021011030331253,1.1380459990411995,-3.289575797909498
1757614272924978400,57.749978515625,0.9733189626991748,-1.0203466713339089,-3.706270054890215
1757614272934934300,57.75993432617187,1.1332079113602638,-3.2900445844650266,-4.084599217641354
1757614272944889600,57.7698896484375,1.2880994901254772,-5.531749744299054,-4.50363477705121
1757614272954845400,57.779845458984376,1.4029633021458985,-7.694571337032317,-4.99314380261302
1757614272964801500,57.78980151367188,1.5926561451792716,-9.738248079425096,-5.440916796207428
1757614272974756400,57.79975634765625,2.172142086525261,-11.50218199776411,-5.668049143058061
1757614272984712400,57.80971240234375,3.1593399369731543,-13.112842586189508,-5.809643725615739
1757614272994668500,57.81966845703125,4.000056601865589,-14.38158125002384,-6.206254102727771
1757614273004624400,57.829624267578126,4.225641134752333,-15.114651194667816,-6.997649395090341
1757614273014579500,57.83957934570312,4.250904170824587,-15.06464183987379,-8.010206727722286
1757614273024535300,57.84953540039062,4.193644698771834,-14.099549438250063,-9.055337127178907
1757614273034491600,57.85949169921875,4.15077586338222,-12.377045262408256,-9.853266789746284
1757614273044447500,57.86944750976563,4.181927080710232,-10.222670595502851,-10.390447082543371
1757614273054402300,57.87940234375,4.366454503804445,-7.875288554188609,-10.574834512645005
1757614273064358400,57.8893583984375,4.6965062501207,-5.626019681102037,-10.48573233386874
1757614273074314200,57.89931420898437,5.118318580767512,-3.8176977549821136,-9.987000721931455
1757614273084269600,57.90926953125,5.459399962881207,-2.822082204800844,-9.089632195490598
1757614273094225400,57.91922534179688,5.426892362508178,-2.7328572764277457,-7.905061761161685
1757614273104181500,57.92918139648437,4.816936464096606,-3.227099760252237,-6.99621497837305
1757614273114137300,57.939137451171874,3.141645874850452,-3.252343507102132,-6.894854791048169
1757614273124092700,57.9490927734375,0.4968091194421052,-0.9032014703780412,-7.9804346897929905
1757614273134048500,57.95904858398438,-1.5534879178732632,4.433256003445386,-10.153214197438954
1757614273144004400,57.96900439453125,-2.047800544324517,11.729541139107942,-11.474366939121484
1757614273153960400,57.97896044921875,-0.942495954412222,18.046788349902627,-8.91284647256434
1757614273163915500,57.98891552734375,1.234790217003226,20.79922944772244,-1.84435156313926
1757614273173871600,57.99887158203125,1.616290703266859,21.603540920281407,6.575718114238977
1757614273183827500,58.00882739257813,-1.040205218014121,21.765879015660285,11.891076101410388
1757614273193782500,58.01878247070312,-4.925207161462307,18.763063811612128,12.74455989341736
1757614273203738400,58.02873828125,-8.338774665221571,12.915735959768297,9.808914437800643
1757614273213694500,58.03869458007812,-9.564782440832255,7.703190112295746,6.461326011383533
1757614273223650600,58.04865063476562,-7.736165330180525,4.372156514838338,4.413554108631611
1757614273233605400,58.05860546875,-4.951319507840275,2.5056501107752323,2.7131460292637346
1757614273243561500,58.0685615234375,-3.3608588268786668,1.910581108111143,1.6761653262540697
1757614273253517300,58.07851733398437,-2.954287027722597,2.293154192042351,1.5946102018564938
1757614273263472600,58.08847265625,-2.603534730944037,3.4550136128693816,2.422435236471891
1757614273273428500,58.09842846679688,-1.4925713846176862,4.608991340535879,3.4453003203675148
1757614273283384600,58.108384521484375,0.1303308457434177,4.937337744238972,4.039971263624728
1757614273293340400,58.11834033203125,1.8562860388219355,4.204305793517828,4.101970623680949
1757614273303295500,58.12829541015625,3.2885511310368774,2.614880300822854,3.762360483163595
1757614273313251600,58.13825146484375,4.393948659929633,0.7730424740701913,3.203528330528736
1757614273323207400,58.14820751953125,5.302291584849358,-0.9680085813313722,2.615344411203265
1757614273333163500,58.15816357421875,6.110185592070222,-2.5352397778749465,2.188630133859068
1757614273343118300,58.16811840820313,6.830834446558356,-3.929273631373048,2.129485724842548
1757614273353074400,58.17807446289063,7.426035551169514,-5.132258258792758,2.439888183315098
1757614273363030500,58.18803051757813,7.863875764292478,-6.186491417637467,3.087057960094511
1757614273372985300,58.1979853515625,8.15902716988027,-7.14008218203783,3.94795553548932
1757614273382941400,58.20794140625,8.332989067557454,-8.018848883861303,4.82640104253441
1757614273392897300,58.21789721679688,8.601232007953524,-8.833672982606291,5.770483681616187
1757614273402853400,58.22785327148438,8.989246990677714,-9.552999064058064,6.689604021137953
1757614273412808400,58.237808349609374,9.272580532699823,-10.101064323484897,7.521456411573291
1757614273422764500,58.2477646484375,9.3193960598886,-10.305033236891031,8.527346687531471
1757614273432720400,58.25772045898437,9.00941533395946,-10.202205315101146,9.291436039817333
1757614273442675500,58.267675537109376,8.317318620216845,-9.714099726596476,9.622807928821445
1757614273452631600,58.27763159179688,7.084454987362027,-8.897250844025612,9.341156640797854
1757614273462587400,58.28758740234375,5.679965790823101,-8.132374140754342,8.686418474590777
1757614273472543500,58.29754345703125,4.511860753604769,-7.737419714155792,7.998288910913467
1757614273482498300,58.30749829101563,3.807141289654374,-7.614681223237514,7.344309454119205
1757614273492454700,58.31745458984375,3.512065871912241,-7.390691850587725,6.649645520237088
1757614273502410500,58.32741040039063,3.3475025016993283,-6.870945507672428,5.899103047266602
1757614273512365600,58.33736547851562,2.746803384193778,-5.668695624268055,4.936835055413842
1757614273522321400,58.3473212890625,1.7185510543018578,-3.2535587281107903,3.3915967872306703
1757614273532277200,58.35727734375,1.170681025186181,0.8186550552099943,1.0389403857100754
1757614273542233300,58.3672333984375,1.94687991746068,6.537212150233984,-1.59467815252617
1757614273552188400,58.3771884765625,3.834189455577731,12.860914820778367,-1.88181883174628
1757614273562144500,58.38714453125,3.8870205897942185,18.452267677646876,2.6863573910593983
1757614273572100400,58.39710034179687,2.7083295688927174,23.063889366686343,9.66714449867606
1757614273582056400,58.40705639648438,1.2169003400474787,26.222839719820023,12.815244956493377
1757614273592011500,58.417011474609374,-1.376851832550764,25.920473560547823,9.547648935201764
1757614273601967600,58.42696752929688,-2.75396143925488,21.811742941212653,4.251285863618553
1757614273611923500,58.43692333984375,-4.204491671478748,18.81318539460897,1.586036434778571
1757614273621878300,58.446878173828125,-5.173771003398299,16.790598201996087,0.1630944667041301
1757614273631834600,58.45683471679688,-5.0392672558844085,14.565054487890004,-0.6076715868666768
1757614273641790500,58.46679052734375,-4.33934613212645,12.468950808167456,-0.6949696388304233
1757614273651746600,58.47674658203125,-3.4360543531164525,10.856037472379208,-0.8929857813119888
1757614273661701400,58.48670141601563,-2.917076364225149,9.34071240416169,-1.2255638312354684
1757614273671657500,58.49665747070313,-2.569300452908873,7.666665092974901,-1.383623518642783
1757614273681613600,58.50661352539063,-1.9887366531983015,5.967949788999557,-1.5749074302598831
1757614273691568400,58.516568359375,-1.2682891665011644,4.320391840809584,-1.983335086415708
1757614273701524500,58.5265244140625,-0.6652127984702587,2.707313085326552,-2.484187343768775
1757614273711480300,58.53648022460938,-0.1815048604026436,1.0649252332508563,-2.8338194043457507
1757614273721436400,58.5464365234375,0.180758133688569,-0.702639150545001,-3.0850860754996536
1757614273731391500,58.5563916015625,0.5542699592858552,-2.574787944409251,-3.2987463618367907
1757614273741347600,58.56634765625,1.196099251820147,-4.442766759112477,-3.5651182476639747
1757614273751303400,58.57630346679687,1.9521441215991973,-6.293916019567847,-3.756504158350825
1757614273761258200,58.58625830078125,2.9198581038981675,-8.248559556767344,-3.97173563952744
1757614273771214600,58.596214599609375,3.885332490576804,-10.333704035580158,-4.351090638194978
1757614273781170400,58.60617041015625,4.360053404590487,-12.5472346558094,-4.978991358619928
1757614273791126500,58.61612646484375,4.607451709878444,-14.803697239792346,-5.887213872030377
1757614273801081300,58.626081298828126,4.9183530577838415,-16.690872922396657,-7.081822300770878
1757614273811037400,58.636037353515626,5.300861844307184,-17.5805514788568,-8.229185578733683
1757614273820993500,58.64599365234375,5.519644880485535,-16.86701742480993,-8.994789427235721
1757614273830948900,58.65594897460937,5.3680567271798845,-14.740006565648317,-9.299054113605616
1757614273840904000,58.665904052734376,4.86449579539001,-11.966265490168333,-9.611767479369044
1757614273850859800,58.67585986328125,4.373545046587288,-9.042856415790318,-9.697910223817823
1757614273860816100,58.685816162109376,4.396505943197012,-6.291721139872074,-9.1859923825711
1757614273870771000,58.69577099609375,4.9054964988201855,-4.084298773390055,-8.19843622020483
1757614273880726800,58.70572680664063,5.437437137398123,-2.8742233109265563,-7.102204579064249
1757614273890683000,58.715682861328126,5.7154866015374655,-2.7219384075284,-6.0247097870975725
1757614273900638700,58.725638671875,5.30286558534503,-3.31446941614747,-5.38475710209012
1757614273910594000,58.73559399414062,3.908692031115293,-3.883324365624785,-5.5751066554665565
1757614273920550000,58.7455498046875,1.3114812424957751,-2.6126602866858244,-6.752037973219156
1757614273930506000,58.75550610351563,-1.2963859646946192,1.865315148451924,-9.18826909533143
1757614273940460800,58.76546069335937,-1.6578332584887745,9.215281605419516,-11.20521565170884
1757614273950417000,58.7754169921875,-0.5121837987065315,16.294957541811467,-8.835099216017127
1757614273960373000,58.785373046875,1.1058382583975792,19.673510430812836,-0.942001741154492
1757614273970328800,58.79532885742187,0.5930819205000997,20.64993554283381,8.551261816126107
1757614273980284000,58.80528393554688,-3.047916913056373,20.09747117166519,13.914487469887732
1757614273990239700,58.81523974609375,-6.625480800795555,15.474678100270031,12.348891181069613
1757614274000196000,58.825196044921874,-7.970075208342075,9.025007455366849,7.646340097826719
1757614274010151000,58.83515087890625,-6.879169146138429,4.7513317730247975,5.000915605658292
1757614274020107000,58.84510693359375,-4.5992976295173165,2.581343941923976,2.663211785532534
1757614274030062800,58.85506274414063,-2.808480380427837,2.149100525894761,0.7144988804910332
1757614274040019000,58.86501904296875,-1.829041473543644,3.118899497774243,0.4061728994989767
1757614274049974000,58.87497412109375,-1.315161392313242,4.559782196208834,1.26173740677014
1757614274059929900,58.88492993164063,-0.4905518126130104,5.959807983598113,2.501279348345101
1757614274069886000,58.89488598632813,0.7365174547493457,6.731527684631943,3.341744084303081
1757614274079841800,58.904841796875,2.0087877998411656,6.374718572032451,3.659028411243856
1757614274089797000,58.91479711914062,3.194396929568052,4.824962826424837,3.659378539855778
1757614274099753000,58.9247529296875,4.00220968824625,2.8502222576141354,3.330549321071804
1757614274109709000,58.934708984375,4.427467483171821,1.0048170937687158,2.8306325910031798
1757614274119663900,58.94466381835937,4.78858919827342,-0.5930465569257736,2.372289980338514
1757614274129619700,58.95461962890625,5.151193845409154,-1.955932407966256,2.119585093075037
1757614274139576000,58.964576171875,5.490066319301724,-3.125010089609027,2.203780502848327
1757614274149532000,58.97453198242187,5.784861166536808,-4.16534214887321,2.706241072180867
1757614274159487000,58.98448706054688,6.10921879286468,-5.184970442804694,3.5663939666882154
1757614274169442800,58.99444287109375,6.447976700466871,-6.217151344317197,4.634463635444641
1757614274179399000,59.00439892578125,6.756874891856312,-7.242841714766621,5.710587139058113
1757614274189354000,59.01435400390625,6.901290377053618,-8.263732575979828,6.698657096165419
1757614274199309800,59.024309814453126,6.922113384851813,-9.277849413013458,7.554499433997273
1757614274209266000,59.03426586914063,6.874616305139661,-10.093570752859115,8.421130292347073
1757614274219221800,59.0442216796875,6.609940701836347,-10.562699838215112,9.44248935559392
1757614274229177000,59.05417700195313,5.946419509714842,-10.720665709859132,10.313644413369891
1757614274239133000,59.0641328125,4.886436409041285,-10.510729997003075,10.661360118931531
1757614274249089000,59.07408911132813,3.734289988455176,-10.084746810412408,10.41367247530818
1757614274259043800,59.0840439453125,2.613332194598019,-9.606661096140742,9.861170694738624
1757614274269000000,59.094,1.7810411204844712,-9.048179656639697,9.113601100099086
1757614274278956000,59.1039560546875,1.4299831187576055,-8.39241506999433,8.379855448150634
1757614274288912000,59.11391186523438,1.4072194982856512,-7.452665783941745,7.655126630872488
1757614274298867000,59.123866943359374,1.0610860934793949,-6.036728726193308,6.707635352391004
1757614274308822800,59.13382275390625,0.3951771294385194,-3.7632542171329257,5.29922752110362
1757614274318779000,59.14377880859375,0.0262225287541747,-0.1747270368307829,3.126384008310735
1757614274328734000,59.15373388671875,0.8106523660182953,5.417293344035745,0.171630824381113
1757614274338689800,59.163689697265625,3.5069957290411,12.095600310611724,-0.9276678761798888
1757614274348646000,59.17364599609375,5.10826948044002,17.65889728581905,2.445420098479092
1757614274358601700,59.183601806640624,4.383466721142828,22.480943348014357,9.449840302878618
1757614274368557000,59.19355712890625,3.614933541190624,25.852624597680567,13.278104460060597
1757614274378513000,59.20351293945313,2.3266461272776127,24.942933180761337,9.80013842614889
1757614274388469000,59.21346899414063,1.4450129301071166,20.455175187277792,4.414556563672423
1757614274398423800,59.223423828125,-0.0185246677279472,17.040844882452486,0.7507993703410029
1757614274408380000,59.2333798828125,-1.3616186075836418,15.195796861481666,-1.2736787505850196
1757614274418336000,59.2433359375,-1.4444254856079817,13.67411336414814,-2.0327830079346896
1757614274428292000,59.2532919921875,-0.9005743367448449,12.271286547863482,-2.381195463588833
1757614274438247000,59.26324682617187,-0.2346457912206649,10.97725795994997,-2.801267380309105
1757614274448202800,59.27320263671875,-0.1434428407728672,9.806206932407616,-3.129462977364659
1757614274458158800,59.28315893554687,-0.6369637323245406,8.379723346203566,-3.290836027103662
1757614274468114000,59.29311401367188,-0.64470455570966,6.856864375349879,-3.1983786926805973
1757614274478070000,59.303070068359375,-0.290327346432209,5.249497567772865,-3.026015462371707
1757614274488025900,59.31302587890625,0.0342436303853988,3.458269984316826,-3.09913681268394
1757614274497982000,59.32298193359375,0.1012009051099419,1.578880133283138,-3.3958863011181357
1757614274507937000,59.33293701171875,0.1198749181807041,-0.4218821810126304,-3.744772511763871
1757614274517892900,59.342892822265625,0.4170999151721596,-2.30923263566196,-3.939097398512065
1757614274527849000,59.352848876953125,0.911702464480698,-4.031738565069436,-4.089802631503344
1757614274537804800,59.3628046875,1.4962190934702753,-5.65100565379858,-4.238114831878245
1757614274547760000,59.37276000976563,1.9568609209880232,-7.21900900375843,-4.436152017147839
1757614274557716000,59.38271606445313,2.0978329877331854,-8.870540531754493,-4.733940200980007
1757614274567672000,59.39267211914063,2.061760388354957,-10.705256543803214,-5.224046900174021
1757614274577627000,59.402626953125,2.0394778293982148,-12.635046210253238,-5.791692473861575
1757614274587582700,59.41258276367188,2.1694822196662424,-14.375240356564522,-6.460490729603171
1757614274597539000,59.4225390625,2.4488737460643053,-15.637162326121327,-7.114672430971265
1757614274607495000,59.43249487304688,2.8352877233326432,-16.04507911014557,-7.672898434406519
1757614274617450000,59.442449951171874,3.235769973441958,-15.24647958549261,-8.028410492932796
1757614274627405800,59.45240576171875,3.567182194456458,-13.399551742124556,-8.190663832637668
1757614274637362000,59.46236181640625,3.92123119469285,-11.178417661154269,-8.212799092078209
1757614274647317000,59.47231689453125,4.262846829813719,-8.99518573307693,-8.441013388946653
1757614274657272800,59.48227294921875,4.571961878824234,-6.843893834617734,-8.798926078873873
1757614274667229000,59.49222900390625,4.889684597182273,-4.895945995664596,-9.02401902885139
1757614274677184800,59.50218481445312,5.214595765739679,-3.650853580355644,-8.679563201868534
1757614274687140000,59.51214013671875,5.203377621632814,-3.4640374618023637,-7.938934804669022
1757614274697096000,59.522095947265626,4.401999572177231,-3.9808068347334857,-7.321471014845371
1757614274707052000,59.532052001953126,2.890000141251087,-3.073139617118239,-7.644393055412173
1757614274717006800,59.5420068359375,1.474699627840519,1.2597978170096873,-9.59133434767127
1757614274726962700,59.55196264648438,0.5828337904691696,9.174142954823374,-11.916239768761397
1757614274736919000,59.5619189453125,0.253144739985466,18.49406216180325,-10.813208384478092
1757614274746875000,59.571875,2.336530100171268,23.740403311371804,-2.474445117433369
1757614274756830000,59.58182983398437,3.933998614068329,23.754670321655272,9.508728545176982
1757614274766785800,59.59178588867187,0.1052151091873645,22.026863363230227,16.238843440401553
1757614274776742000,59.60174194335937,-6.8570625282704825,16.83007564138174,15.241751972448824
1757614274786697000,59.611697021484375,-11.40910039396286,8.965272240850329,10.159661473882196
1757614274796653000,59.621653076171874,-10.08815106589794,3.4257226364552973,6.18322218670845
1757614274806609000,59.63160888671875,-6.611240093997121,0.6794827313631773,2.981664863991737
1757614274816565000,59.64156494140625,-4.352717654874921,-0.0492196657210588,0.2958217791300266
1757614274826520000,59.65152001953125,-2.5878888335227965,0.4206675445258617,-0.5547163878791034
1757614274836476000,59.661475830078125,-2.0004817437887192,2.0113877532064914,0.492461299496144
1757614274846431700,59.671431640625,-1.972960115134716,4.325343325737118,1.9722012595914304
1757614274856386800,59.68138671875,-1.511298296919465,6.090374976184964,2.5118545183733105
1757614274866342700,59.6913427734375,-0.2729468803033232,6.606993542468548,2.815595765390992
1757614274876299000,59.70129907226563,1.4544146724417806,5.639383020544051,3.003419015160203
1757614274886254800,59.7112548828125,2.855273695784807,3.841442787706852,3.04601166395694
1757614274896209700,59.72120971679688,3.672546064464748,1.988607181599736,2.9228590392798184
1757614274906165800,59.73116577148438,4.083666320705413,0.2858089922249317,2.5702812806397675
1757614274916121600,59.74112158203125,4.3465252299755806,-1.254147243902087,2.1344348716825245
1757614274926077000,59.75107690429687,4.642441774716973,-2.6033494375050066,1.8889371393188836
1757614274936032800,59.76103271484375,5.054742472913861,-3.745363755655288,1.8917580419585107
1757614274945988900,59.77098876953125,5.5586985415011645,-4.710815638241171,2.082907805801928
1757614274955944700,59.78094482421875,6.118382342529297,-5.585168030753732,2.444215983386337
1757614274965899800,59.79089965820312,6.481260545909405,-6.439237513694167,2.9443714906468985
1757614274975855900,59.80085595703125,6.540174507170915,-7.288591074028611,3.62285761218816
1757614274985811700,59.81081176757812,6.278562383091449,-8.090217253026365,4.549829249732196
1757614274995766800,59.820766845703126,5.748437269502878,-8.787454836788774,5.503519675114751
1757614275005723000,59.83072290039063,5.168270067894459,-9.264709945455191,6.280915668219327
1757614275015679000,59.840678955078126,4.627893024882674,-9.414207848483324,6.88230101442337
1757614275025634800,59.850634765625,4.0218037387713785,-9.181122146186231,7.446272868034243
1757614275035589600,59.860589599609376,3.3266607892006634,-8.697246158075332,8.025729875546693
1757614275045545700,59.87054565429688,2.7226117767453197,-8.163460768413543,8.589996328189969
1757614275055501800,59.880501708984376,2.298420734268426,-7.904826198840141,8.967007101818918
1757614275065457000,59.89045678710937,1.9644117747589944,-8.104915640464425,9.081787327209115
1757614275075412700,59.90041284179687,1.652475823108852,-8.69478765900731,8.73641555442512
1757614275085368800,59.91036889648438,1.5134773945242166,-9.32613150562346,7.976730574578046
1757614275095324700,59.92032470703125,1.836708062648773,-9.461265367734432,7.007151967450976
1757614275105279700,59.93027978515625,2.4899165350705386,-8.875536440345645,6.154154497656226
1757614275115235800,59.94023583984375,3.008122078284621,-7.573635511621832,5.566814627939462
1757614275125191700,59.95019165039062,3.0530174510657786,-5.5992164298504585,4.882223467521369
1757614275135146800,59.960146728515625,2.7437545180171727,-2.8944793324917555,3.77403601564914
1757614275145102800,59.97010278320312,2.314247248953581,1.0175631780952217,2.014803845260292
1757614275155059000,59.980058837890624,2.919488101541996,6.114115917256474,0.5036214663380757
1757614275165014800,59.99001489257813,4.80581242801398,11.29600592970252,1.2417775916725395
1757614275174969900,59.99996997070313,6.167645847392082,16.25991077834964,4.891908118450641
1757614275184925700,60.00992578125,6.344347983688116,21.198184342134,9.410331883832812
1757614275194881800,60.0198818359375,5.966370410853624,25.268860248363016,11.125464654123782
1757614275204836900,60.0298369140625,4.883571959520876,26.04812378890514,8.556797822943329
1757614275214792700,60.03979272460938,3.50576355689764,23.029295023167133,4.271725717318057
1757614275224748800,60.04974877929688,1.7455425216019154,19.325364517140383,1.429574684087187
1757614275234704600,60.05970458984375,-0.0716878103777766,16.50843428827524,0.5320082969866693
1757614275244660000,60.06965991210937,-1.8082620126262303,14.445517423361538,1.0095745174288748
1757614275254615800,60.07961572265625,-2.7030115887403485,12.913283305919167,1.8061647480860352
1757614275264572000,60.08957202148437,-2.436893093152344,11.296606818205117,1.3157771861240266
1757614275274526700,60.09952661132812,-1.4311740821078418,9.522075518006083,-0.3735249773398041
1757614275284482800,60.10948291015625,-0.9934428823173046,8.087591580697893,-1.4914645924195646
1757614275294439000,60.11943896484375,-1.3821511080026625,6.886564517086744,-1.9872411539435384
1757614275304394800,60.12939477539062,-1.6737584112428128,5.789367830306292,-2.2725065408110616
1757614275314349800,60.139349853515625,-1.5558217676483097,4.625166814789176,-2.468453768064081
1757614275324305700,60.1493056640625,-1.138296758931875,3.289607946613431,-2.6861338114365934
1757614275334262000,60.15926196289063,-0.6197692902870476,1.725716123625636,-2.961134701660275
1757614275344216800,60.169216796875,-0.0859397692225873,0.0038870705664157,-3.3136119225353
1757614275354172700,60.17917260742188,0.4577905297398567,-1.847042409658432,-3.7267385501623154
1757614275364128800,60.189128662109376,0.9755039055228232,-3.818960906785726,-4.154727231356501
1757614275374083800,60.19908374023437,1.4155048038110136,-5.963986730587482,-4.610790498912334
1757614275384040000,60.2090400390625,2.056521903179586,-8.211088781028986,-5.048747031891346
1757614275393995800,60.21899584960938,3.083343323485553,-10.582488242268562,-5.562821174389123
1757614275403951900,60.22895190429688,3.962266969436407,-13.232930270338056,-6.620662002336979
1757614275413906700,60.23890673828125,4.484656812597811,-16.059534336477515,-8.297593344527483
1757614275423862800,60.24886279296875,4.856645081889629,-18.57285337444544,-10.261890845257044
1757614275433819000,60.25881884765625,5.308452445566654,-19.42287796590924,-11.835908925461768
1757614275443774700,60.26877465820313,5.619668266248703,-17.78930411940813,-12.709732910186052
1757614275453729800,60.27872973632813,5.414090748602152,-14.352481412267684,-12.69268825188279
1757614275463685600,60.288685546875,5.24029485514164,-10.36741692008972,-12.179425425767898
1757614275473642000,60.29864208984375,5.255162169405818,-6.578351385352015,-11.67273613282442
1757614275483596800,60.3085966796875,5.702033245724439,-3.355328665280342,-10.856005908197163
1757614275493552600,60.318552734375,6.386087522786855,-1.1700292832791803,-9.597961656856535
1757614275503508700,60.3285087890625,6.887677446764707,-0.5368892008960247,-8.025985896134376
1757614275513463800,60.3384638671875,6.834121213144064,-1.3577853130310773,-6.610889380863308
1757614275523420000,60.348419921875,5.961702419042587,-2.892220739910006,-5.924089019963145
1757614275533375700,60.35837573242188,4.302079939049482,-3.9753088218390937,-6.208159644088148
1757614275543331800,60.368331787109376,1.824108985577524,-2.805013581100106,-7.730552750995755
1757614275553287000,60.37828686523437,-0.1016845969736576,2.1269506534069773,-10.80567623540759
1757614275563243000,60.38824291992187,0.2851458521410823,10.055995347702504,-13.82980310755372
1757614275573198800,60.39819873046875,1.7819781090736388,17.878071951663493,-11.736049205827712
1757614275583154700,60.40815478515625,3.48550022880882,22.47688208992481,-2.898019489316642
1757614275593109800,60.41810986328125,3.7599458232373,25.26957102698088,7.918913760903477
1757614275603065900,60.42806591796875,1.622540411311388,26.99900529434681,14.257397236472368
1757614275613022000,60.43802197265625,-1.647118972250819,22.64494849982261,15.400383030003308
1757614275622976800,60.44797680664063,-5.292638205841183,14.08195299128294,13.005721935641764
1757614275632932900,60.457932861328125,-7.329373750793933,7.357681561389565,9.373767117023467
1757614275642888700,60.467888671875,-5.336240616202354,3.1501649891316887,6.10276625572443
1757614275652843800,60.47784375,-3.23177593536973,1.098997598722577,3.5665450655967
1757614275662800000,60.4877998046875,-1.3597668422371147,0.4975356801509857,2.131677097406983
1757614275672755700,60.497755615234375,-0.041350832042098,0.9427397000402212,1.7795384608365594
1757614275682711800,60.5077119140625,0.544941574448347,2.191713925218582,2.280069961802661
1757614275692667000,60.5176669921875,1.1868269810840486,3.7127147009849546,3.284956905937195
1757614275702623000,60.527623046875,2.3376705023780464,4.652949140205979,4.190419599245488
1757614275712578800,60.53757885742188,3.891170987471938,4.4422214001894,4.766400455079973
1757614275722533600,60.54753369140625,5.275716881656646,3.1888650144040582,4.926434657430648
1757614275732489700,60.55748974609375,6.071275138917565,1.5208745190382005,4.792096914133429
1757614275742445800,60.56744580078125,6.373768139439821,-0.2010468884795904,4.464346722757816
1757614275752402000,60.57740185546875,6.469106582257151,-1.8659400023519992,4.209839462247491
1757614275762356700,60.58735668945312,6.611228403559327,-3.396746717339754,4.17478714582771
1757614275772312800,60.59731274414062,6.78490914620757,-4.688648814618587,4.473651726719737
1757614275782268700,60.6072685546875,6.822153127452731,-5.751731050351262,5.221562097620963
1757614275792223700,60.6172236328125,6.839824977743625,-6.671714728704094,6.45706075515449
1757614275802179800,60.62717993164063,6.980732747080921,-7.406410228723288,8.045763194271922
1757614275812135700,60.6371357421875,7.178268412569165,-8.075887698900699,9.750451727437971
1757614275822091800,60.647091796875,7.0851213423162696,-8.727995516604185,11.450469346183535
1757614275832046800,60.657046875,6.48039194638133,-9.386414417150617,13.06231768308878
1757614275842003500,60.66700341796875,5.383756985136866,-10.22789855928421,14.283082297348976
1757614275851959800,60.67695971679687,3.813646433764696,-11.390464667075872,14.472531687015294
1757614275861914600,60.68691455078125,2.368683772540092,-12.60973290529847,13.854502664524317
1757614275871870500,60.69687036132812,1.534474589845538,-13.34607500348091,12.369251247531174
1757614275881826600,60.70682666015625,1.5475757712200282,-13.273902916717528,10.559091000068188
1757614275891782400,60.71678247070312,2.3667332229942084,-12.46323769121766,9.16234438048005
1757614275901737700,60.72673779296875,3.402241223102808,-11.101849969780444,8.198020040619372
1757614275911693600,60.736693603515626,3.9139819542169567,-9.21193463307917,7.187181786864995
1757614275921649700,60.746649658203125,3.768183490228653,-6.512934033545851,5.664622675740718
1757614275931604700,60.75660473632813,3.451312420263886,-2.58456290397048,3.4347394711256025
1757614275941560600,60.766560546875,3.712010352107882,3.129457716667652,0.3266867633951827
1757614275951516700,60.7765166015625,4.977789581614733,10.708562599611282,-2.384521247010678
1757614275961471500,60.78647143554687,4.983073659497499,18.448145629280805,-1.5713862703964114
1757614275971427600,60.79642749023437,4.514889161515236,25.011771154665947,5.154312854212522
1757614275981383700,60.8063837890625,5.42257917548418,28.038748155546187,12.334985405313969
1757614275991339800,60.81633984375,4.294114366997778,25.979935803341863,11.231744762194156
1757614276001294600,60.82629467773437,2.1098501732632515,20.484917999112604,3.745618607199192
1757614276011250400,60.83625048828125,0.0673383829966187,17.63659660668373,-1.6654107080057263
1757614276021206500,60.84620654296875,-1.4556068048357962,16.882340081626175,-3.194395176002383
1757614276031161600,60.85616162109375,-1.3083525890812278,16.155485942757128,-2.7489114623889326
1757614276041117700,60.86611767578125,-0.9413453230723738,15.356879403841496,-1.2452135574705898
1757614276051073500,60.87607348632813,-0.7141010402798652,14.121343921428918,-0.111385614515841
1757614276061029600,60.88602954101562,-0.8371814765036105,12.252414674133062,-0.598631371320784
1757614276070984700,60.89598461914063,-1.387460028065741,10.105675032150744,-1.48210142852962
1757614276080940500,60.9059404296875,-1.1143468512848018,8.070372734871507,-2.0928414630562067
1757614276090896600,60.91589672851563,-0.0831836023822426,6.387099330177903,-2.6561574831068517
1757614276100851500,60.9258515625,0.9584007950305938,4.936285020315647,-3.3350098076120016
1757614276110807600,60.9358076171875,1.4370114099591969,3.5383430534631013,-3.938054903721809
1757614276120763600,60.945763671875,1.5220181361153722,1.9732243190288543,-4.191268617290258
1757614276130719700,60.9557197265625,1.5663547059699892,0.2388297989070415,-4.050864705821872
1757614276140674600,60.96567456054687,1.7408666387453675,-1.506937763622403,-3.787140704154968
1757614276150630400,60.97563037109375,1.963772892333567,-3.199600927951932,-3.66141705994606
1757614276160586500,60.98558642578125,2.180775474835932,-4.901781277689337,-3.8002451003998514
1757614276170541600,60.99554150390625,2.1517700373649595,-6.640807549265027,-4.1540553234443065
1757614276180497700,61.00549755859375,2.030424754370749,-8.585355808907746,-4.624349945448339
1757614276190453500,61.01545361328125,1.8366595473319287,-10.789378596079349,-5.151973597609996
1757614276200409600,61.02540966796875,1.7619687557458876,-13.081819671416282,-5.53854539578855
1757614276210364700,61.03536474609375,2.000451348650455,-15.293248350930211,-5.841313121598959
1757614276220320800,61.04532080078125,2.422278584605455,-16.98423744456768,-6.28072336051762
1757614276230276600,61.055276611328125,3.0288959862440823,-17.390554976701736,-6.717734721601009
1757614276240231400,61.0652314453125,3.355917571084201,-15.887845059907436,-7.121471005070209
1757614276250187500,61.0751875,3.2679593016460537,-13.137224163252114,-7.571501422202586
1757614276260143600,61.0851435546875,3.0366318411931394,-10.241989043956996,-8.095664997038245
1757614276270099700,61.095099609375,2.840766154743731,-7.351736389249563,-8.691819456851482
1757614276280054500,61.10505444335938,2.971982551150024,-4.560063935759663,-8.745699515599012
1757614276290010600,61.1150107421875,3.5407591746941205,-2.3239175790965554,-8.027292302557825
1757614276299966500,61.12496655273438,4.236620793928206,-1.29211310968101,-6.915584859865904
1757614276309921500,61.134921630859374,4.4209550325378775,-1.4668565131247042,-5.903164305356144
1757614276319877600,61.14487768554688,3.331433410429954,-1.7572686152309178,-5.724764132970571
1757614276329833500,61.15483349609375,1.4395312838256358,-0.1452601193279027,-6.991383320432901
1757614276339789600,61.16478955078125,0.3237435860827565,4.808836452010274,-9.408252154949308
1757614276349744600,61.17474462890625,0.2649044436231255,11.700959187746047,-10.229068772107365
1757614276359700700,61.18470068359375,0.6692910076946019,16.500201881980896,-6.341074076583981
1757614276369656600,61.194656494140624,1.1052145735412835,17.433613197183607,0.6097793362682685
1757614276379611400,61.204611328125,-1.0091413867086172,17.032320215213296,6.010023674619197
1757614276389567500,61.2145673828125,-5.190063382029533,15.59475175589323,7.963225196316838
1757614276399523600,61.22452368164063,-8.460650401830673,11.412340983319282,6.119603408756852
1757614276409479700,61.234479736328126,-9.167149734935164,6.965975907453895,3.0120643861696124
1757614276419434500,61.2444345703125,-7.543347340863943,4.30749261174798,1.1853504787907003
1757614276429390600,61.254390625,-4.986538705259561,3.4819583184182643,0.0809349466726183
1757614276439346400,61.26434643554688,-3.093534170371294,4.419087777361273,0.1108818297121673
1757614276449301500,61.27430151367187,-2.1005366937339303,6.415778896695375,1.174059342512861
1757614276459257600,61.28425756835937,-1.3940446671530604,8.302012914535403,2.400753273756802
1757614276469213400,61.29421337890625,-0.194686121276021,9.20982860071063,3.460240407606959
1757614276479168800,61.30416870117188,1.3516343891859053,8.460242405551671,4.0598301025658845
1757614276489124600,61.31412451171875,2.5266718560159207,6.281535261422396,4.116333787815273
1757614276499080700,61.32408081054688,3.000654811143875,3.732914608448744,3.803191090723872
1757614276509036500,61.33403662109375,3.2018811478436,1.5118793116778135,3.2754046492159365
1757614276518991400,61.343991455078125,3.55153103633821,-0.3155845372855663,2.7362673771321773
1757614276528947700,61.35394775390625,4.03264574304223,-1.8208324481248852,2.5005098252773283
1757614276538903600,61.363903564453125,4.483420256540179,-3.081340459230542,2.5976146932452915
1757614276548858600,61.37385864257813,4.883154318630695,-4.134609741479158,3.0170342835366726
1757614276558814500,61.383814453125,5.301779543673992,-5.025023626476526,3.546474045209586
1757614276568770600,61.3937705078125,5.753130980277061,-5.746896469801664,4.190048135584592
1757614276578726700,61.4037265625,6.132506729471683,-6.329015974521637,4.852571841101348
1757614276588681700,61.413681640625,6.457831155005097,-6.778403417575359,5.551154117470979
1757614276598637600,61.42363745117188,6.6112441856503485,-7.155217791849374,6.264706876218319
1757614276608593700,61.43359375,6.673983258157969,-7.546715940514207,7.021955568829179
1757614276618548700,61.443548828125,6.637979632362723,-7.9468468929678195,7.868107118251919
1757614276628504600,61.45350463867187,6.402006976452469,-8.34601279978156,8.691776786753534
1757614276638460700,61.46346069335937,5.987179974648356,-8.64417157049179,9.394683648324012
1757614276648416500,61.47341650390625,5.364212911233306,-8.838699286335705,9.913938992851971
1757614276658371600,61.48337158203125,4.49598923073411,-8.965403758275508,10.180108049583437
1757614276668327700,61.49332763671875,3.531802838039398,-9.043828475692868,10.098661938518283
1757614276678283800,61.50328369140625,2.650483529123664,-9.120415456289052,9.78605904739201
1757614276688238600,61.51323852539063,2.0537357795923947,-9.092746528118848,9.427731346923112
1757614276698194400,61.5231943359375,1.7179507503211495,-8.896595594987273,9.017635465294122
1757614276708150500,61.533150634765626,1.7074939459756016,-8.569111361071467,8.428147477632761
1757614276718105600,61.54310571289062,1.7526871326595543,-8.005155289551615,7.662897264873981
1757614276728061700,61.55306176757812,1.4016756004229187,-6.723055624362826,6.670213091969489
1757614276738017500,61.563017578125,0.6585007336109876,-4.2123979145586485,5.145249257791042
1757614276747973600,61.5729736328125,0.2424529578402638,0.0369230787277221,2.7919848804399368
1757614276757928700,61.5829287109375,1.312561146686971,6.21242840744853,-0.0652066681975498
1757614276767884500,61.59288452148437,4.042324548752606,12.663189770197867,-1.135595537149161
1757614276777840600,61.60284057617187,5.613237356418371,17.308436665463447,2.232080714659393
1757614276787795500,61.61279541015625,5.106209040778875,21.792159119820592,7.896988929343223
1757614276797751600,61.62275146484375,3.945092255012691,26.042070480215543,10.352916101050376
1757614276807707600,61.632707763671874,3.2765774923875925,26.687653864586352,6.762085904502868
1757614276817663700,61.642663818359374,3.4256212219074365,23.08904718881845,1.321314800376445
1757614276827618600,61.65261865234375,2.7476827973768114,18.972467609548566,-1.656164448493719
1757614276837574000,61.66257397460937,0.836397340388596,15.956699400424956,-2.8575962935134767
1757614276847530000,61.67253002929687,-0.7397150817468762,13.750543108355998,-2.9589670022323724
1757614276857484800,61.68248486328125,-1.357163820131868,11.85220539574623,-2.507608843627572
1757614276867441000,61.69244091796875,-1.2372083840608596,10.175388619846103,-2.747785380968452
1757614276877396700,61.70239672851562,-1.7005919115021824,8.808785209587215,-3.361755191196501
1757614276887352800,61.71235278320312,-2.4162395967021584,7.57142075818181,-3.266322055833041
1757614276897308000,61.722307861328126,-2.75628286793977,6.576968991082906,-2.629282335662842
1757614276907263700,61.732263671875,-2.8755007835164665,5.6103702765494585,-1.7798310140423477
1757614276917219800,61.7422197265625,-2.9396248806416985,4.5515427756518125,-1.005407022485882
1757614276927175000,61.7521748046875,-2.8427555749952798,3.302153539931774,-0.1777439004339277
1757614276937131000,61.76213110351563,-2.404668109112978,1.869513769185543,0.59330520786196
1757614276947086800,61.7720869140625,-1.9246929278329012,0.0803115540772676,0.9035730071041732
1757614276957041700,61.78204174804687,-1.5620216452017426,-2.032481979161501,0.5809205772589892
1757614276966997800,61.79199780273437,-1.149199115087837,-4.233088235887885,-0.0754196903824806
1757614276976953900,61.80195385742188,-0.4638099361598491,-6.3866439876258365,-0.7905721394114196
1757614276986910000,61.81190991210938,0.3810992119863629,-8.471239015862345,-1.5534133913323285
1757614276996864800,61.82186474609375,1.234324353057146,-10.400444744944572,-2.2077156503401696
1757614277006820900,61.83182080078125,1.894904669421166,-12.182137607336044,-2.8540833169564603
1757614277016776700,61.84177661132812,2.2001228571236133,-13.968898274511098,-3.866165725553036
1757614277026731800,61.851731689453125,2.425737492887676,-15.582952597028015,-4.985020117390156
1757614277036688000,61.86168798828125,2.688542626143992,-16.79389373641014,-6.198406896358728
1757614277046643700,61.87164379882813,3.2688232249990103,-17.032212663185597,-7.117810728996992
1757614277056599800,61.88159985351562,3.997222839744389,-15.774828921580314,-7.551978391087054
1757614277066555000,61.89155493164063,4.802942133274674,-13.3884294596076,-7.861971391975879
1757614277076511000,61.90151098632813,5.50182397711277,-10.61317096530199,-8.384531623268128
1757614277086466800,61.911466796875,6.049094871291518,-7.652337292414903,-9.095105073943731
1757614277096422000,61.921421875,6.682758100765943,-4.794135141962767,-9.687398182153702
1757614277106377700,61.93137768554688,7.267170100337267,-2.718150121161341,-9.867890358382462
1757614277116333800,61.94133374023438,7.305539286220073,-1.940945266714692,-9.562790974754094
1757614277126290000,61.9512900390625,6.23771716248393,-1.5187474438816309,-9.275933934780957
1757614277136244700,61.96124462890625,4.8193911637723446,0.392425200381875,-9.812883341431617
1757614277146200800,61.97120092773437,3.9173713043943046,4.744380054190755,-11.062204188090565
1757614277156156700,61.98115673828125,3.6080300454124807,10.227570057982206,-10.605054294341802
1757614277166112000,61.99111206054688,3.529024020975828,13.748422462940216,-6.751840404820442
1757614277176067800,62.00106787109375,2.870617103128135,14.4626357314229,-1.8879431598454712
1757614277186024000,62.01102392578125,-0.0349433030873537,14.37425368361473,1.068086181499809
1757614277195979800,62.02097973632812,-4.053547661295533,13.978600168836117,1.9034123855255545
1757614277205934800,62.030934814453126,-7.390657363796234,12.022701078617573,1.3140646831177174
1757614277215891000,62.04089086914063,-8.82265299142003,9.257391731396316,0.2214239060759544
1757614277225846800,62.0508466796875,-7.44305273694396,7.844528674265741,0.083851564771682
1757614277235801900,62.0608017578125,-5.129554845052957,8.188996776208281,0.5531074913777411
1757614277245757700,62.0707578125,-3.517754146681726,9.438065109410882,1.6209264002434909
1757614277255714000,62.08071411132813,-2.592267194737494,10.263561408817768,3.281815977562964
1757614277265670000,62.090669921875,-1.8450722786292435,10.13127475283146,4.515176454024017
1757614277275624700,62.10062475585938,-0.9672948801040648,9.059503014686705,5.026574363049864
1757614277285580800,62.11058081054688,-0.1341533266410231,7.1025021007061,4.894138653981686
1757614277295536600,62.12053662109375,0.6416062974333763,4.757161794352531,4.525367300909758
1757614277305492000,62.130491943359374,1.4126757178649303,2.504975572514534,4.1771430613040925
1757614277315447800,62.14044775390625,2.234212173730135,0.5899170267283916,3.882117912444472
1757614277325404000,62.15040380859375,3.107654173399508,-0.906325739878416,3.807683725968003
1757614277335359000,62.16035888671875,3.8933629445582634,-2.08914260853827,3.90481957359612
1757614277345314800,62.17031469726562,4.503406228992342,-3.0596359924227,4.120801288618147
1757614277355271000,62.18027099609375,5.003614927744865,-3.8900235710024833,4.484204684916138
1757614277365226800,62.190226806640624,5.408579876226186,-4.651913951939344,4.96007798383534
1757614277375181800,62.20018188476563,5.770201357543468,-5.4346898845165965,5.553403942224383
1757614277385138000,62.210137939453126,6.116333008784055,-6.202348327460885,6.163543088248372
1757614277395094000,62.22009399414063,6.494402351555228,-6.948339712998271,6.768465960928797
1757614277405048800,62.230048828125,6.872295753237605,-7.767386397874355,7.53076316910088
1757614277415004700,62.24000463867188,7.138391744732856,-8.64970991539657,8.363857668551802
1757614277424960800,62.24996069335938,7.148049799916148,-9.574020809298752,9.26740400684476
1757614277434916600,62.25991650390625,6.967995430582762,-10.280941582685708,10.113860676693916
1757614277444872000,62.26987182617187,6.799452635344863,-10.569593689382076,10.747606323754788
1757614277454827800,62.27982788085937,6.4421770742774,-10.51536876271963,11.207618036675452
1757614277464784000,62.28978393554687,5.889486493137478,-10.2951676764369,11.363740326279402
1757614277474739000,62.29973901367188,5.130484234857559,-10.227451984560489,11.35661968061924
1757614277484694800,62.30969482421875,4.295110684558749,-10.232181935691832,11.147761826127766
1757614277494651000,62.31965087890625,3.661384911242127,-10.018312390518188,10.625371106183527
1757614277504606700,62.32960668945312,3.420240113390982,-9.46020387598276,9.901322672384977
1757614277514561800,62.339561767578125,3.530062716373801,-8.571485688987373,9.039650897747276
1757614277524518000,62.349517822265625,3.652170508173108,-7.295181558334827,8.123370165565609
1757614277534474000,62.359473876953125,3.5174414274707435,-5.489485889065265,6.945628115952014
1757614277544428800,62.3694287109375,3.1133652445226905,-2.75530408603549,5.104693960040807
1757614277554385000,62.37938500976563,2.712037483499944,1.6987410229384898,2.277598457122594
1757614277564340700,62.3893408203125,3.323152781079709,8.560450500231982,-0.7942131993275136
1757614277574295800,62.3992958984375,5.569883367860317,16.836577862882613,-0.1284593527831137
1757614277584252000,62.409251953125,7.446169407659768,24.93078447780609,6.713827777290343
1757614277594207700,62.41920776367188,7.6124658852756015,33.32355552163124,16.63749555247426
1757614277604163800,62.42916381835938,5.399734890991449,36.78526249465942,18.68756579529643
1757614277614119000,62.43911889648437,0.9958831150762736,29.42753709412813,8.015037801140547
1757614277624075000,62.44907495117187,-1.8338870138786727,21.996264811348915,-0.8420078737467527
1757614277634030800,62.45903076171875,-2.6576515210568905,17.33799476838112,-4.337274294288457
1757614277643985700,62.46898559570312,-2.3933714929424226,13.642626338994502,-5.80740617582202
1757614277653941800,62.478941650390624,-2.219310372674465,10.868518183767796,-5.912808332014084
1757614277663897900,62.48889794921875,-2.207320659673214,8.75689077169895,-5.087559285366535
1757614277673854000,62.49885400390625,-1.9209451196067036,6.98972620087564,-4.277480919843912
1757614277683808800,62.50880883789063,-1.7877660448253154,5.497950935071707,-4.164965716776251
1757614277693764900,62.518764892578126,-2.0198212350308893,4.074152642428874,-4.086315081648529
