time,seconds_elapsed,z,y,x
1758278542611849500,298.9738493652344,0.8146125018209218,9.762589908999203,-0.4456823779907077
1758278542621934300,298.9839343261719,0.9890005159556864,9.738568397420645,-0.59374195531141
1758278542632018700,298.9940187988281,1.1648640825357288,9.710326637798548,-0.7231991234928369
1758278542642103600,299.004103515625,1.3409870307043197,9.678097269845008,-0.8405609628740698
1758278542652187600,299.0141877441406,1.51885119651705,9.641589786180852,-0.9503772091813384
1758278542662272500,299.0242724609375,1.69781294830814,9.600656302767993,-1.0560405005276203
1758278542672356600,299.03435668945315,1.8724661892503496,9.555925765159726,-1.1612727069802582
1758278542682440400,299.0444404296875,2.034107242275774,9.509006777596474,-1.2694831985913215
1758278542692525600,299.05452563476564,2.173590385637432,9.46197731539607,-1.3845143300026654
1758278542702609700,299.06460961914064,2.2840379886507987,9.416812478023768,-1.5090394120767712
1758278542712694500,299.07469458007813,2.363817773938924,9.3746380546391,-1.642835303582251
1758278542722778600,299.0847785644532,2.416065409179032,9.335811188116669,-1.7820350999578831
1758278542732863500,299.0948635253906,2.446054304729402,9.300566271734237,-1.9200689212940631
1758278542742947600,299.1049475097656,2.458956164139509,9.269345204040407,-2.050157628844678
1758278542753032400,299.1150324707031,2.458875500118732,9.24280323407352,-2.166772960707545
1758278542763116500,299.1251164550781,2.449904550416768,9.221190537202355,-2.2667162669718266
1758278542773201400,299.1352014160156,2.435347032754123,9.204825093334913,-2.3474781951650976
1758278542783285500,299.1452854003906,2.4166448165021834,9.194103792834282,-2.4080435768954453
1758278542793370400,299.1553703613281,2.394608925782889,9.189337601345777,-2.4479203908622265
1758278542803454700,299.1654548339844,2.369957299607247,9.190279850631953,-2.4682860102817417
1758278542813539600,299.17553955078125,2.343325897791237,9.195919317823648,-2.472703534463048
1758278542823623400,299.18562353515625,2.314961973094195,9.204927969187498,-2.465895900274813
1758278542833707500,299.19570751953125,2.283865408562869,9.216444219458102,-2.451836103001237
1758278542843792400,299.20579248046874,2.2472931890994308,9.23006299496591,-2.434339463146776
1758278542853876500,299.21587646484375,2.201973891817778,9.245869051384926,-2.4157031517378984
1758278542863961300,299.22596142578124,2.144815542051941,9.264512377056478,-2.3956125498674807
1758278542874045700,299.2360456542969,2.072868057824671,9.286950418835875,-2.3719527112081646
1758278542884130600,299.2461306152344,1.9825648326955732,9.31426980291605,-2.341837412799149
1758278542894214700,299.2562145996094,1.8710231508351864,9.347382967966794,-2.301320693493634
1758278542904299500,299.2662995605469,1.7384329818576574,9.38640623384416,-2.2457982743665577
1758278542914383400,299.2763833007813,1.5878830855585633,9.430426577356457,-2.171650942007452
1758278542924468500,299.2864685058594,1.424731774100661,9.47803296266198,-2.0754292866148054
1758278542934552300,299.29655224609377,1.255535191129148,9.52757002376914,-1.9543314025104044
1758278542944637400,299.30663745117187,1.0870234486166388,9.577529109680652,-1.8054624450355767
1758278542954721500,299.31672143554687,0.9251024826712906,9.62624784014225,-1.6278598527684809
1758278542964805600,299.3268056640625,0.7748787495866417,9.671966219744084,-1.4223232516542077
1758278542974890500,299.33689038085936,0.641496334252879,9.712961077955365,-1.1904831655040382
1758278542984974600,299.346974609375,0.5292077430153266,9.747493462154267,-0.9363122242759911
1758278542995059500,299.3570595703125,0.4419311722310259,9.774008544114231,-0.6662099197488278
1758278543005143300,299.36714331054685,0.3842221663124859,9.79141443694532,-0.3885246858119964
1758278543015228400,299.377228515625,0.3581993613814935,9.799463303366302,-0.1122086761354468
1758278543025312500,299.3873125,0.3615296017827465,9.798787596061825,0.1531422234803904
1758278543035397600,299.3973977050781,0.39133660142757,9.790605458649992,0.4016050801267847
1758278543045481500,299.4074814453125,0.4432171934535727,9.776460613441468,0.6282892813511193
1758278543055566600,299.4175666503906,0.5155054539425298,9.757700967913866,0.8318166615348309
1758278543065650400,299.427650390625,0.6072368121786043,9.735036716163158,1.0152383153442293
1758278543075735600,299.43773559570315,0.7168654634919017,9.708322312238812,1.1853159189339726
1758278543085819400,299.4478193359375,0.8403012890245765,9.67688380240202,1.3498957288250326
1758278543095904500,299.45790454101564,0.9724510207582264,9.640201546692849,1.513683000098914
1758278543105988600,299.46798852539064,1.107656998257339,9.598148703861236,1.6789980654619634
1758278543116073700,299.47807373046874,1.2397006392680108,9.550874911510943,1.8477835834145544
1758278543126157600,299.4881574707032,1.3628497568137945,9.498518701329829,2.022666687589884
1758278543136242700,299.4982426757812,1.4755765568055212,9.440665062776208,2.2061070460997523
1758278543146326500,299.5083264160156,1.5799913093954323,9.376425522577762,2.399304974644631
1758278543156410400,299.5184104003906,1.679648784455657,9.304763138902189,2.602028418034315
1758278543166495500,299.5284956054688,1.7775747595481572,9.2244469086498,2.814283513748645
1758278543176579600,299.5385795898438,1.8749509918034075,9.134075732851027,3.037035745818913
1758278543186664700,299.5486647949219,1.9694706655837595,9.03239288944304,3.272221927526593
1758278543196748500,299.55874853515627,2.056069044845551,8.919679533454776,3.5188480793982744
1758278543206833700,299.5688337402344,2.1278258288063108,8.797711442387104,3.7739912997245786
1758278543216917500,299.5789174804688,2.1795671219594777,8.669677767670153,4.031944901296496
1758278543227002600,299.58900268554686,2.2093901594236494,8.53980694065392,4.284935327503085
1758278543237086500,299.59908642578125,2.2178021600686013,8.413745442792774,4.523345731954277
1758278543247171600,299.6091716308593,2.206682215639204,8.297884436428546,4.737726149259507
1758278543257255700,299.61925561523435,2.17773888361901,8.198468953430652,4.920663088291883
1758278543267340500,299.6293405761719,2.133282340646535,8.118926045638322,5.069764100956917
1758278543277424600,299.6394245605469,2.0756236401431263,8.058649563851953,5.188482250317931
1758278543287509500,299.6495095214844,2.0102984966650603,8.013900321543217,5.282660417184234
1758278543297593600,299.6595935058594,1.9481028833843768,7.981420778220891,5.354644287899136
1758278543307678500,299.6696784667969,1.895117435389012,7.961590873113274,5.402962036344409
1758278543317762600,299.6797624511719,1.8539048427738247,7.95643246743679,5.4248132181465625
1758278543327847400,299.6898474121094,1.82299722494334,7.967458888363837,5.419103608328104
1758278543337931500,299.699931640625,1.7978087154120206,7.994640909799933,5.3873897886812685
1758278543348016400,299.71001635742186,1.7742435692988334,8.036945681566,5.331975359973312
1758278543358100500,299.7201005859375,1.7523131847806277,8.09166336018145,5.255928477603197
1758278543368185600,299.730185546875,1.733497717412561,8.155258172735572,5.1630555481165645
1758278543378269400,299.74026953125,1.7175950687512755,8.224585391461849,5.05731729183793
1758278543388354600,299.7503544921875,1.7022946237668397,8.297509173375367,4.942057758498192
1758278543398438400,299.7604384765625,1.6843682141929863,8.373136369028687,4.819116438484191
1758278543408523500,299.7705234375,1.662232954752445,8.451659286123514,4.687943296697736
1758278543418607400,299.780607421875,1.6380004307717084,8.534020173946022,4.545090823033452
1758278543428691700,299.7906916503906,1.6164441402629015,8.621061328539252,4.38574898686111
1758278543438776600,299.8007766113281,1.6030663339041171,8.712109965208173,4.207101561716199
1758278543448860400,299.8108603515625,1.5992684029258786,8.804970619735121,4.01063790937364
1758278543458946000,299.82094604492187,1.6013744352944197,8.89699248535037,3.801249893528223
1758278543469030000,299.83102978515626,1.6039664976142345,8.985122604224085,3.586814238904416
1758278543479115000,299.8411149902344,1.60255779986009,9.066619568693636,3.3761800223901868
1758278543489198800,299.85119873046875,1.5952962844245135,9.13934928933978,3.177687202307581
1758278543499284000,299.86128393554685,1.5824544846385715,9.202454272550344,2.996839344508946
1758278543509368000,299.8713681640625,1.5657676998622714,9.256214504310488,2.835707994571328
1758278543519453000,299.8814528808594,1.5464457442767918,9.30205212637782,2.6927164046972987
1758278543529537000,299.891537109375,1.5253794292420149,9.342028162935376,2.5632199639514086
1758278543539622100,299.9016220703125,1.5025561875373123,9.378665994980931,2.439944881938397
1758278543549706000,299.9117060546875,1.4772870139852166,9.414145889163017,2.3155682684242724
1758278543559791000,299.921791015625,1.447912158679962,9.450117366254329,2.183849183192849
1758278543569875000,299.931875,1.4127522902324794,9.487457793611288,2.0402603580780325
1758278543579960000,299.9419599609375,1.370295396644622,9.526110472610592,1.8830586026743048
1758278543590044000,299.9520439453125,1.3195986441083252,9.56535410324037,1.7126166958168147
1758278543600129000,299.96212890625,1.2593702392473816,9.60429495153129,1.5303269686467944
1758278543610213000,299.97221313476564,1.1901723459891975,9.641690908467767,1.3385459211625157
1758278543620298000,299.9822980957032,1.1138868325576186,9.676393388536573,1.1388811346910894
1758278543630382000,299.99238208007813,1.033087202702463,9.707417472353576,0.932291225131601
1758278543640467000,300.0024670410156,0.949691857265681,9.734018479031324,0.7192722323726862
1758278543650551000,300.0125510253906,0.866879353218153,9.755431853938102,0.500426506221667
1758278543660636000,300.0226359863281,0.7878419107299297,9.771021637257933,0.2772310786948539
1758278543670720000,300.0327199707031,0.7162077302355319,9.780319626957178,0.0526431967292213
1758278543680804900,300.0428049316406,0.6550900483846664,9.78324398997128,-0.1714245246866717
1758278543690889200,300.05288916015627,0.6080588691512122,9.779913384243846,-0.3923399332512169
1758278543700974000,300.06297412109376,0.5792121293732896,9.770646374204754,-0.6077817327102646
1758278543711058200,300.0730581054688,0.5733296106733381,9.75584803352356,-0.8155367770589887
1758278543721143000,300.08314306640625,0.5935962632304057,9.736106391221284,-1.0130539570424706
1758278543731227000,300.09322680664064,0.6408326096471398,9.712061498767136,-1.1981688246358186
1758278543741312000,300.10331201171874,0.715379828044027,9.684178051063418,-1.3694177370272576
1758278543751395800,300.11339575195314,0.8158250194158405,9.652555416831374,-1.5274064050249754
1758278543761481000,300.12348095703123,0.9389888961393386,9.617077276214957,-1.6734709726035597
1758278543771565000,300.13356494140623,1.080653255997598,9.577388824427128,-1.810023469340801
1758278543781650200,300.1436501464844,1.235759646557271,9.533226442095636,-1.9392983762905
1758278543791734000,300.1537341308594,1.3984431943729518,9.484869530683754,-2.0620406666010616
1758278543801819100,300.1638190917969,1.5624679276645184,9.433115962570906,-2.178393694265932
1758278543811903000,300.1739030761719,1.7213861315973102,9.379546869468689,-2.287203028552979
1758278543821988000,300.1839880371094,1.8699371091641488,9.326125075882672,-2.3868622571788727
1758278543832072000,300.1940720214844,2.003137080603093,9.274978241491317,-2.476407649677992
1758278543842157000,300.20415698242186,2.1178547621510924,9.227854671266677,-2.5557360379368066
1758278543852241200,300.2142412109375,2.2115764174215493,9.186543002191186,-2.624261000369489
1758278543862326000,300.2243259277344,2.2836709089040754,9.152268392145633,-2.6816449755847453
1758278543872410000,300.23441015625,2.3351858459554613,9.125655695030092,-2.727582258634269
1758278543882495000,300.24449487304685,2.3680204863257703,9.106997171789407,-2.761422861176729
1758278543892579000,300.2545791015625,2.3840812481582163,9.096301590251922,-2.7827728154584763
1758278543902664000,300.2646638183594,2.386019084353,9.093221159893274,-2.7911650884896515
1758278543912748000,300.274748046875,2.376005932121724,9.097560065880415,-2.785565076525509
1758278543922833000,300.2848330078125,2.3565165110148487,9.108889853668211,-2.76502117792964
1758278543932917000,300.2949169921875,2.329856467626244,9.126541830214858,-2.729175080783665
1758278543943002000,300.30500219726565,2.297307366199046,9.149747349235415,-2.6785975707128644
1758278543953086200,300.31508618164065,2.259810286975652,9.177667037296295,-2.6142075161278244
1758278543963171000,300.32517114257814,2.217488564074785,9.209675455975532,-2.536732939042151
1758278543973255000,300.3352548828125,2.169533073070645,9.245401433873177,-2.4466454024903475
1758278543983340000,300.34534008789063,2.11424066330716,9.2845234839499,-2.3447845721669496
1758278543993424000,300.355423828125,2.050207020944357,9.326201063728332,-2.233608216487616
1758278544003509000,300.3655090332031,1.976476452692598,9.369522903582451,-2.1156423467986283
1758278544013592800,300.3755927734375,1.8934120927758515,9.413530387613177,-1.9926899208687243
1758278544023678000,300.3856779785156,1.8023045655265448,9.45731341523826,-1.8658282125405967
1758278544033762000,300.3957619628906,1.7042393280938266,9.50017348279953,-1.735696981022507
1758278544043847200,300.4058471679688,1.600204660862684,9.541664015573264,-1.6019884755395353
1758278544053931000,300.4159309082031,1.4902750903740525,9.581493921658396,-1.464386031357944
1758278544064016100,300.42601611328126,1.3738560117356478,9.61953519076109,-1.321898737744242
1758278544074100000,300.4360998535156,1.2512730036400257,9.655498484545946,-1.1730509691879152
1758278544084185000,300.44618505859376,1.1234314904943108,9.6890249065727,-1.015434349372983
1758278544094269000,300.4562690429688,0.9925431569986044,9.719451024496555,-0.8470738518994301
1758278544104353800,300.46635375976564,0.8618325912225991,9.745947401756048,-0.6664448244832456
1758278544114438100,300.47643823242186,0.7361048553604632,9.767556591495872,-0.4726166717434302
1758278544124523000,300.48652294921874,0.6210112531721591,9.783402395403384,-0.2641157043982297
1758278544134607000,300.49660717773435,0.522419946038723,9.792636087694763,-0.0413849398076767
1758278544144692000,300.50669189453123,0.4432178145080804,9.79467606908977,0.1955996559243649
1758278544154776000,300.5167761230469,0.3826825356550514,9.788982825884222,0.4469065860234201
1758278544164861000,300.5268608398438,0.3408388420620933,9.774957807663082,0.7102179152362048
1758278544174945000,300.5369450683594,0.3180148697050288,9.752382403239608,0.9799376501865684
1758278544185030000,300.54702978515627,0.3136317957825958,9.721732413432,1.2489831391371786
1758278544195114200,300.5571142578125,0.3255655773455277,9.683904494819044,1.5120761494241657
1758278544205199000,300.56719921875,0.3521155114231631,9.63991805357635,1.765896888975054
1758278544215283000,300.5772829589844,0.3917686361692845,9.590562194254996,2.009483088628948
1758278544225368000,300.5873681640625,0.4440574802026152,9.536177108594774,2.243777874454856
1758278544235452000,300.59745190429686,0.5079652311634272,9.477112925207614,2.469150225895643
1758278544245537000,300.607537109375,0.5818157725330442,9.413884607878328,2.685265211908519
1758278544255620900,300.6176208496093,0.6637858344070613,9.347209364965558,2.8912738144487142
1758278544265706000,300.6277060546875,0.7517441038452088,9.27754429258704,3.087468586722016
1758278544275790000,300.6377900390625,0.8439177259560674,9.205434165143966,3.273860634644329
1758278544285875200,300.6478752441406,0.9400283221896736,9.130932758650182,3.4514933297887445
1758278544295959000,300.657958984375,1.0391290401499718,9.053996233963966,3.621565526551008
1758278544306044200,300.6680441894531,1.1398118396699428,8.974624591085314,3.785144854162634
1758278544316128000,300.6781279296875,1.240296851595491,8.893237516731023,3.942380950227379
1758278544326213000,300.68821313476565,1.3396353238344192,8.809845532295107,4.094188883763551
1758278544336297000,300.698296875,1.4374253975875677,8.724173327967524,4.241814270918071
1758278544346382000,300.70838208007814,1.534663828807324,8.635643396121264,4.386439891734719
1758278544356466200,300.71846606445314,1.6330670660227535,8.544090901583433,4.527912016956508
1758278544366551000,300.72855102539063,1.7317580341383814,8.449452715989947,4.6667076164454215
1758278544376635100,300.73863525390624,1.8287630949936808,8.352615559047461,4.802066519483923
1758278544386720000,300.7487199707031,1.923988286694884,8.254491284903883,4.932751000970602
1758278544396804000,300.7588041992188,2.015794755993783,8.156258289688825,5.057905905380845
1758278544406889000,300.7688889160156,2.1017760262705383,8.058678789946436,5.177900066027045
1758278544416973000,300.7789731445313,2.181066712867469,7.962287038683891,5.292949756008387
1758278544427058000,300.7890578613281,2.2526253439076243,7.869052874669432,5.401302578699588
1758278544437142000,300.79914208984377,2.3147195426404474,7.782834726896882,5.499085492059588
1758278544447227000,300.80922680664065,2.365259643310308,7.708907320898771,5.581098004835844
1758278544457312000,300.81931201171875,2.4022329909205435,7.651604301965236,5.643811358380318
1758278544467396000,300.8293959960937,2.424350276312977,7.613188354331254,5.686145940762758
1758278544477481000,300.83948095703124,2.4303274510264394,7.59393011163175,5.709301775422692
1758278544487565000,300.84956494140624,2.41614738837406,7.593475938123464,5.715920316779613
1758278544497650000,300.85964990234373,2.379271802049875,7.610650360286235,5.7085413124442095
1758278544507733800,300.8697336425781,2.3290805148176847,7.64307262046337,5.685877060693502
1758278544517819000,300.8798188476562,2.2755577450752256,7.690908722871542,5.642884891185164
1758278544527902700,300.8899028320312,2.218757414966821,7.75508688827157,5.577286922115087
1758278544537987800,300.8999877929688,2.1574946986220778,7.834775926536321,5.489250326743722
1758278544548072000,300.9100720214844,2.094099938684702,7.925589585405588,5.382395049133897
1758278544558157000,300.9201569824219,2.0298621520519253,8.022388748425245,5.262253588971495
1758278544568241000,300.9302409667969,1.9644832325600088,8.12025700198114,5.135427536478638
1758278544578326000,300.9403259277344,1.898130499599874,8.216597899839282,5.005497672751545
1758278544588409900,300.95040991210936,1.8339432741105557,8.311206274816394,4.871435239264369
1758278544598495000,300.96049487304685,1.7780962992042302,8.405648061054945,4.727984507445991
1758278544608578800,300.97057885742186,1.7352514292120933,8.502395786148309,4.568212170901894
1758278544618664000,300.9806638183594,1.7071932094633575,8.601489197584986,4.389790078945458
1758278544628748000,300.990748046875,1.689573820012063,8.701200448659062,4.195810060112178
1758278544638833200,301.0008332519531,1.676333376297355,8.799506509110332,3.99111312469244
1758278544648917000,301.0109169921875,1.6631950777828692,8.893848342105747,3.7820132781386375
1758278544659001900,301.021001953125,1.647171579220891,8.982003010898827,3.57503056986928
1758278544669086000,301.0310859375,1.6255435386501251,9.062243253305551,3.376940777629614
1758278544679170800,301.0411708984375,1.596685108434409,9.134236476370692,3.191661367124319
1758278544689255000,301.0512548828125,1.5601808396406471,9.19860168877542,3.020259383063018
1758278544699339800,301.06133984375,1.5180164992585778,9.256561710312962,2.860430347895622
1758278544709424000,301.07142407226564,1.4744042981557548,9.309692996519804,2.706685893338918
1758278544719509000,301.08150903320313,1.432488671837747,9.359567326757311,2.5528134284883737
1758278544729594000,301.0915939941406,1.3918176387533543,9.407707965070008,2.3933805530317125
1758278544739678000,301.1016779785156,1.348686206904799,9.455106845104694,2.225393638110906
1758278544749763000,301.1117631835937,1.2998705919399858,9.501789101302624,2.048585557222366
1758278544759847000,301.1218469238281,1.2438747100822627,9.547073181140425,1.8645558545172212
1758278544769932000,301.13193212890627,1.1812970386814323,9.589832126414777,1.6763180325977505
1758278544780015900,301.1420158691406,1.1153645038947462,9.628945993185043,1.4865217291899024
1758278544790101000,301.1521010742188,1.052534465168044,9.663486560690403,1.2959823523297904
1758278544800185000,301.16218505859376,0.999760029574856,9.692858785647154,1.1042399563554677
1758278544810270000,301.17227001953125,0.9641351739641278,9.71653016861379,0.9109734926190228
1758278544820354000,301.18235400390626,0.9513652703706176,9.73396937919259,0.7177391775865107
1758278544830439000,301.19243896484375,0.9648680913485586,9.74480583050549,0.5273990496255457
1758278544840523000,301.20252294921875,1.0048436895146966,9.748968795403838,0.3439221219649538
1758278544850607900,301.21260791015624,1.070554836635664,9.746561149740218,0.1697727754242718
1758278544860692000,301.22269189453124,1.1619601777877655,9.737565942379833,0.0080421472733636
1758278544870776800,301.2327768554687,1.2784728529937563,9.721957454359533,-0.139379226329457
1758278544880861000,301.24286083984373,1.4176305637933313,9.699836807966232,-0.2718060031725093
1758278544890945800,301.2529458007813,1.5751704651102425,9.671498017710446,-0.3890269362457096
1758278544901031000,301.2630310058594,1.7469722621440886,9.63725263375938,-0.4917500094216316
1758278544911115000,301.2731149902344,1.9290267192535104,9.597411621758342,-0.5821739748535677
1758278544921200000,301.2832001953125,2.11737910746336,9.552270165261625,-0.6642398617848754
1758278544931284000,301.29328393554687,2.308331302908063,9.502180146446824,-0.7419985895741731
1758278544941369000,301.303369140625,2.4994617775291204,9.447290618395805,-0.8196053416721523
1758278544951453000,301.31345288085936,2.6876889319241046,9.388076797404883,-0.9004078210715204
1758278544961537800,301.32353784179685,2.870516857624054,9.325181073030828,-0.9856574891380964
1758278544971622000,301.33362182617185,3.045644584210217,9.259691240510344,-1.073576157218218
1758278544981706800,301.3437067871094,3.2112337903395294,9.192989109590648,-1.1607391115602106
1758278544991791000,301.353791015625,3.364853449472785,9.126934044402836,-1.243866819036752
1758278545001876000,301.3638759765625,3.5047122942790385,9.063341569936275,-1.3203062078557908
1758278545011960000,301.3739599609375,3.6308237687617537,9.003400603714585,-1.387900173048675
1758278545022045000,301.384044921875,3.7426241015583273,8.948438010427354,-1.445198515807092
1758278545032129000,301.39412890625,3.840441793970764,8.899093841543793,-1.4924892592921852
1758278545042214000,301.4042138671875,3.9251962989315383,8.855506044229864,-1.53075936871469
1758278545052297700,301.4142976074219,3.998669531421363,8.817054440760613,-1.5622370415180922
1758278545062382800,301.4243828125,4.061468809683621,8.783688762253522,-1.5879760245390235
1758278545072468000,301.4344680175781,4.113528375005722,8.755695424434542,-1.6084386745922266
1758278545082552000,301.4445520019531,4.154715833179653,8.733527431768179,-1.623029510002583
1758278545092637000,301.4546369628906,4.185326952281594,8.71771026943326,-1.6294059131667018
1758278545102721000,301.4647209472656,4.204423574678599,8.709432270431519,-1.624500020946562
1758278545112806000,301.4748059082031,4.209975948108733,8.710196825063228,-1.6059176316820083
1758278545122890000,301.4848898925781,4.199771657219529,8.720919879129529,-1.574122271231562
1758278545132974800,301.4949748535156,4.172574438214302,8.741292805072664,-1.5329102631382645
1758278545143059000,301.5050588378906,4.127311108903586,8.770864936515688,-1.4858064205273984
1758278545153143800,301.5151437988281,4.0632282205715775,8.809134169155358,-1.435166658875346
1758278545163228200,301.5252282714844,3.980014223051071,8.855258791470527,-1.3835690119765698
1758278545173313000,301.53531298828125,3.878227919268608,8.907724891766906,-1.334974930807948
1758278545183397000,301.54539721679686,3.759875680610537,8.964557955101132,-1.292442926157266
1758278545193482000,301.55548193359374,3.626845512780547,9.02429667674899,-1.2563580518193542
1758278545203567000,301.5655671386719,3.4803804015770554,9.086099345189332,-1.2248020530827344
1758278545213651000,301.57565087890623,3.322153248648345,9.149156982126833,-1.1944153173211962
1758278545223736000,301.5857360839844,3.1528380077332256,9.213135825562476,-1.1610912129335105
1758278545233820000,301.5958198242187,2.9729347373083232,9.277598653122782,-1.1216979446999729
1758278545243904800,301.60590478515627,2.78202959587574,9.34237361537218,-1.072733057457581
1758278545253988900,301.61598876953127,2.5799288144290444,9.407094217085838,-1.010416009754315
1758278545264073700,301.6260737304688,2.3683837666802106,9.47063057745099,-0.9318214156627654
1758278545274158000,301.6361579589844,2.1505555470086635,9.531512623915075,-0.8341224542591721
1758278545284243000,301.64624291992186,1.931511229545623,9.58786579477787,-0.7158844896305352
1758278545294327000,301.6563271484375,1.7169145391412075,9.637960489767789,-0.5764531860539689
1758278545304412000,301.66641186523435,1.5136545046567915,9.68021849978268,-0.415496462030895
1758278545314496000,301.67649609375,1.3264809509679674,9.713722125455735,-0.2333537238498218
1758278545324580900,301.6865808105469,1.157984040698409,9.73799556596875,-0.0302421533588087
1758278545334666000,301.696666015625,1.009741544558853,9.752608613210915,0.1934709550662897
1758278545344749800,301.7067497558594,0.8831564612150192,9.75705916287899,0.4361154351569712
1758278545354835000,301.7168349609375,0.7804006548132747,9.75093921869397,0.6932313437957316
1758278545364919000,301.7269189453125,0.7025595825027674,9.73438146712482,0.9584382044315336
1758278545375004200,301.73700415039065,0.6488555379092693,9.707957570579648,1.226758301717043
1758278545385088000,301.747087890625,0.6167534495972097,9.672468324047326,1.4944440466217697
1758278545395172900,301.7571728515625,0.6051626362530514,9.62850351011455,1.759569293388724
1758278545405257000,301.76725708007814,0.6119493007184937,9.576800795406102,2.020096690971404
1758278545415341800,301.777341796875,0.6338545142628252,9.518211828315255,2.2742570377402007
1758278545425426000,301.78742602539063,0.667086118061468,9.453377829355,2.52171218778193
1758278545435510800,301.7975107421875,0.7088584634512662,9.382539037021994,2.763310282358527
1758278545445596000,301.8075959472656,0.7586098979614675,9.305760917767882,2.9996219609647987
1758278545455680000,301.8176799316406,0.8164713544953613,9.223663649317622,3.2292101765349503
1758278545465765000,301.8277651367188,0.8816486139353364,9.137145057293772,3.450459018304944
1758278545475849000,301.8378488769531,0.9520199348870664,9.0470345782578,3.662677289140224
1758278545485933800,301.84793383789065,1.0247053049348294,8.9537799559772,3.866544787998497
1758278545496018000,301.85801782226565,1.0990718330025673,8.857198819622397,4.063552630220354
1758278545506102800,301.86810278320314,1.1745995138041674,8.756758669751882,4.255568363243341
1758278545516187000,301.87818676757814,1.2490021360985937,8.65183757507503,4.444781021544337
1758278545526271700,301.88827172851563,1.321406716443598,8.542368900096417,4.631650623850524
1758278545536356000,301.89835620117185,1.3931256526120006,8.429671910721064,4.813547990702093
1758278545546441000,301.90844091796873,1.4652506853632628,8.31619283105731,4.986416540184616
1758278545556525800,301.9185258789062,1.5387668802119792,8.204556748911738,5.14663282110393
1758278545566610000,301.9286098632812,1.6142608048744498,8.09722157883048,5.291460394233465
1758278545576695000,301.9386950683594,1.6906515322461724,7.9959934934526675,5.4199780530750745
1758278545586779000,301.9487788085938,1.7675868878886103,7.902232675215601,5.53179416796267
1758278545596864000,301.95886401367187,1.8441966648384929,7.81732210291028,5.626617062473297
1758278545606947800,301.96894775390626,1.9178607437253,7.743688126900792,5.703288214221597
1758278545617033000,301.9790329589844,1.9846957072444256,7.684839047569036,5.759741338327527
1758278545627116800,301.9891166992188,2.040417156074941,7.643565372416377,5.795083285343647
1758278545637201700,301.99920166015625,2.0854683039397,7.621810052204132,5.807686746329069
1758278545647286800,302.0092868652344,2.123928382976353,7.621656907469034,5.793934699830412
1758278545657371000,302.0193708496094,2.152615694408864,7.645681341657042,5.751540496215224
1758278545667456000,302.0294560546875,2.165452818019688,7.693014755240083,5.683197027829289
1758278545677539800,302.0395397949219,2.1617516254141926,7.75872261442542,5.5945893545717
1758278545687625000,302.049625,2.1475210016183555,7.835566784653067,5.49203265093863
1758278545697708800,302.0597087402344,2.1279678676255047,7.917644179359078,5.38080339602828
1758278545707794000,302.0697939453125,2.105609320823103,8.001516056266427,5.264270189490914
1758278545717877800,302.0798776855469,2.081422389549762,8.086279913577437,5.142969037899375
1758278545727963000,302.089962890625,2.05606232284382,8.173176106742025,5.014198281079531
1758278545738047700,302.1000478515625,2.0315642797946927,8.264105500945448,4.873161916926503
1758278545748132000,302.11013208007813,2.0124501217409967,8.360451659500598,4.71415676536262
1758278545758217000,302.1202170410156,2.001835788746178,8.462152623087167,4.533761035245656
1758278545768301000,302.1303010253906,1.9994499165229496,8.566855691099166,4.333768916516005
1758278545778386000,302.1403859863281,2.001930481292307,8.671626563650369,4.118923512047529
1758278545788469800,302.1504697265625,2.005614138241112,8.773523342069982,3.8952740388765927
1758278545798555000,302.1605549316406,2.00595798324272,8.870469220083951,3.668966744673252
1758278545808638700,302.170638671875,2.000270292995125,8.960809416222572,3.4457506944835186
1758278545818723800,302.18072387695315,1.9866034405618904,9.043701049920916,3.2303663608327504
1758278545828808700,302.19080859375,1.9646713024780156,9.11845847700238,3.0272400357306
1758278545838893000,302.20089306640625,1.9357552968561649,9.18504428806603,2.8386972395151853
1758278545848978000,302.21097802734374,1.9009812128558756,9.244262785232069,2.6646339272901414
1758278545859062000,302.22106201171874,1.86169549665004,9.29713279015422,2.503558399192989
1758278545869147000,302.23114697265623,1.8190188228316604,9.345017407879231,2.352066984260082
1758278545879231000,302.24123095703123,1.7729396470934151,9.389289095804097,2.2064295560523868
1758278545889315800,302.2513159179687,1.723580865162611,9.430938034009934,2.063264801568538
1758278545899400000,302.2613999023437,1.6708920620262622,9.470532377773525,1.9202952773958444
1758278545909484800,302.2714848632813,1.6147884820103644,9.508272033581138,1.7764035238116975
1758278545919570000,302.2815698242188,1.5551481061704455,9.54401730070114,1.6320685565046966
1758278545929653800,302.29165380859376,1.4928661297805603,9.577416881477832,1.4882266334116458
1758278545939739000,302.30173876953126,1.4296087324872613,9.608201895841956,1.345015117176622
1758278545949823000,302.31182299804686,1.368128281738609,9.636182374179365,1.2010861733872442
1758278545959908000,302.321908203125,1.3125981176964938,9.661125676777958,1.0536295669283715
1758278545969992000,302.33199194335936,1.267381404006481,9.682787473487853,0.8987571312550455
1758278545980076800,302.3420769042969,1.2377687944225966,9.700465753519534,0.7343713095661253
1758278545990161000,302.35216088867185,1.2272669818915427,9.713393624153731,0.5605129453286528
1758278546000245800,302.3622458496094,1.2360085067518054,9.721050860908626,0.3792380942896008
1758278546010331000,302.3723308105469,1.265830959694087,9.72265128184259,0.1952491071873344
1758278546020414700,302.3824147949219,1.3229099606133996,9.716996617081762,0.0159649173672019
1758278546030499800,302.3924997558594,1.4115475906178354,9.70336848922372,-0.1502509864177554
1758278546040584000,302.402583984375,1.5308724737003443,9.681853407508134,-0.2975713262110948
1758278546050669000,302.4126689453125,1.6785669805683194,9.652568860834837,-0.4251029696900397
1758278546060753000,302.4227529296875,1.853975569922477,9.6148701215595,-0.5361250481231138
1758278546070838000,302.43283813476563,2.0539779177851973,9.56809492638111,-0.6349073843166232
1758278546080923000,302.4429228515625,2.271967757759243,9.512391159337758,-0.7231563803296536
1758278546091007000,302.4530070800781,2.5001877537161112,9.449008528229594,-0.7973034204278141
1758278546101091800,302.463091796875,2.731793738849461,9.379982338276506,-0.8506690999124199
1758278546111176000,302.4731760253906,2.9606048325672742,9.307638402077556,-0.8792576271455734
1758278546121260800,302.4832607421875,3.181622203668952,9.233724440082907,-0.8865582324825226
1758278546131345000,302.4933449707031,3.3924259315311907,9.158706900760532,-0.8831360760141164
1758278546141430000,302.50342993164065,3.591606441617012,9.082675800481438,-0.8807634285986423
1758278546151515000,302.51351489257814,3.7769530721396207,9.006216830179095,-0.8905412377040832
1758278546161599000,302.52359887695314,3.9443560496926304,8.93112154944539,-0.9206006412073968
1758278546171683800,302.53368383789064,4.0896588391184805,8.860501368299126,-0.9677697310741992
1758278546181768000,302.54376782226564,4.211251959393918,8.79717602033615,-1.0224581105299293
1758278546191852800,302.5538527832031,4.30992626863569,8.74264421968162,-1.0775371698036789
1758278546201937000,302.56393701171874,4.3880350519716735,8.697121654912829,-1.129426420060173
1758278546212021800,302.5740217285156,4.447288620451093,8.660629953339695,-1.1770800055082886
1758278546222107000,302.5841069335938,4.489651259884238,8.632914263418316,-1.2191017225492744
1758278546232190700,302.5941906738281,4.517523017150164,8.613630886277557,-1.2520977640263735
1758278546242275800,302.60427587890626,4.532896819631755,8.602781575483084,-1.2709772365413603
1758278546252360000,302.61435986328127,4.5374142970561975,8.600379190516472,-1.271116060490161
1758278546262445000,302.62444506835936,4.531622854173183,8.606372877973318,-1.2510513237133625
1758278546272529000,302.63452880859376,4.514405177390575,8.620643979910016,-1.214514321693778
1758278546282614000,302.64461401367186,4.484671717905998,8.64241800482273,-1.1690667949225753
1758278546292699000,302.6546989746094,4.440928437769413,8.671174143707752,-1.1221790062151848
1758278546302783000,302.66478295898435,4.382219643691182,8.706590909525751,-1.0778770692825317
1758278546312867800,302.6748679199219,4.30694169986695,8.748932506170869,-1.0376994457382709
1758278546322951700,302.68495166015623,4.214280367304385,8.798048126995562,-1.0022818031374363
1758278546333036800,302.6950368652344,4.103493010942637,8.85357478390634,-0.9726002930358052
1758278546343121000,302.7051208496094,3.975725878207385,8.914183858647942,-0.9493727813791484
1758278546353206000,302.7152060546875,3.832246212555468,8.978633242204785,-0.931893677181378
1758278546363289900,302.7252897949219,3.674094462950528,9.045926324754952,-0.91794691182822
1758278546373375000,302.735375,3.502657992097735,9.115072341695427,-0.9040014616493136
1758278546383459800,302.7454599609375,3.319445450994372,9.18528335751891,-0.8844364180229604
1758278546393544000,302.7555439453125,3.125181354522705,9.256163650906084,-0.8526665573399513
1758278546403628800,302.76562890625,2.920200633725524,9.32739816455841,-0.8015378431271761
1758278546413713000,302.775712890625,2.7055782243579625,9.398115960860252,-0.7250275079637766
1758278546423797800,302.7857978515625,2.4836928382501005,9.466678624954818,-0.6193942464295774
1758278546433883000,302.7958828125,2.259004523550719,9.530734040758013,-0.4820585634253919
1758278546443967000,302.8059670410156,2.0369867432348427,9.587664719247815,-0.3127098586320876
1758278546454052000,302.81605200195315,1.8227369665719568,9.635101593205333,-0.1132219082986004
1758278546464136000,302.8261359863281,1.6200019788749516,9.671276483914257,0.1113484882426913
1758278546474220800,302.836220703125,1.4332799683459103,9.694913964611292,0.3532004205830395
1758278546484304600,302.8463046875,1.2654533585533498,9.705829910901189,0.6048886781498789
1758278546494389800,302.8563896484375,1.114963083487004,9.704924486494065,0.861221546652168
1758278546504475000,302.8664748535156,0.981141546083614,9.693061614742874,1.119072126241028
1758278546514558700,302.8765588378906,0.8652923032224178,9.671092359519005,1.37536232464537
1758278546524643600,302.8866435546875,0.7692425703305751,9.640050740045307,1.62729198975265
1758278546534728000,302.8967280273437,0.6910089915711433,9.601278234058618,1.8730612325340508
1758278546544812800,302.9068127441406,0.6291889336045831,9.555691956403852,2.1126403885036704
1758278546554897000,302.9168969726563,0.5857192462449893,9.503433361378312,2.3477801007211205
1758278546564981800,302.9269816894531,0.5617870203850791,9.444472638365626,2.5800617931589485
1758278546575067000,302.93706689453126,0.5576029761660843,9.379241164520382,2.8087895925074813
1758278546585150700,302.94715063476565,0.5733657414326444,9.308028862699866,3.033521015696228
1758278546595235800,302.95723583984375,0.6081425288466736,9.230741624879837,3.254834447135031
1758278546605319700,302.96731958007814,0.6605959523245691,9.147122845950722,3.47334948002696
1758278546615404800,302.97740478515624,0.7290753951150923,9.057408088234066,3.688116266301274
1758278546625489700,302.98748974609373,0.8097419001098721,8.961869154408573,3.898666896185279
1758278546635573800,302.9975737304688,0.8976675093874334,8.861023346346617,4.104491666591168
1758278546645658600,303.0076586914063,0.9891975728977472,8.754960095897317,4.306107587130367
1758278546655743000,303.0177429199219,1.0827803311541675,8.643522166672348,4.504165230666101
1758278546665827800,303.0278278808594,1.1787470619376748,8.52667565640211,4.698589193874597
1758278546675911700,303.03791162109377,1.274887834113836,8.404775954395532,4.889251758722961
1758278546685996800,303.04799682617187,1.3689872366555034,8.278488246563077,5.075716287359595
1758278546696082000,303.05808203125,1.4602861948236825,8.14826962902248,5.257723544326424
1758278546706165800,303.0681657714844,1.5478699318610132,8.014383136624097,5.435453854626417
1758278546716250600,303.07825073242185,1.6321864837959408,7.877230920428037,5.608528448075056
1758278546726334700,303.08833471679685,1.7137991835996509,7.738188360440731,5.775269162327051
1758278546736419600,303.0984196777344,1.7929286882854998,7.600680170413852,5.931734566280245
1758278546746504700,303.1085046386719,1.8695912183359265,7.46970225893855,6.072772099477052
1758278546756588800,303.1185888671875,1.9437619315706192,7.349574827301502,6.194831375959515
1758278546766674000,303.128673828125,2.0141011038184167,7.243518591114878,6.296444076740741
1758278546776757800,303.1387578125,2.0783596409782765,7.154514612016081,6.376811744919419
1758278546786843000,303.1488427734375,2.134750513502955,7.085140631538629,6.4353703168720005
1758278546796926700,303.1589267578125,2.1819081321276723,7.03713443326056,6.472124468773603
1758278546807011800,303.16901171875,2.218433151448518,7.012289330339431,6.48665860556066
1758278546817096700,303.1790966796875,2.2515170904047785,7.013117013335227,6.474353250738978
1758278546827180800,303.1891809082031,2.2812144556626675,7.0437822007119655,6.430520538753271
1758278546837265700,303.199265625,2.2983182968072597,7.105033665010333,6.356619436240196
1758278546847349800,303.2093498535156,2.299543746948987,7.191776128917932,6.25786095584631
1758278546857434600,303.2194345703125,2.286468576798588,7.2953779576897615,6.141653328001499
1758278546867519700,303.2295197753906,2.259275157185644,7.406912333026528,6.016954350665212
1758278546877603800,303.2396037597656,2.2179364539727566,7.519780002793669,5.89101267979145
1758278546887689000,303.24968896484376,2.162203753095865,7.631019779098033,5.767390976297855
1758278546897772800,303.2597727050781,2.089879836771637,7.741133181720971,5.646027865386009
1758278546907857700,303.26985766601564,2.0022304871521888,7.852553575289249,5.522577426806092
1758278546917942800,303.27994287109374,1.903412970047444,7.967609110489487,5.391159954869747
1758278546928026600,303.29002661132813,1.7983961599111555,8.08752202259302,5.24672810305953
1758278546938111700,303.30011181640623,1.6912226101323962,8.210657988396287,5.088739435061812
1758278546948195600,303.3101955566406,1.5825431858353316,8.333229890576005,4.921709966996312
1758278546958280700,303.3202807617188,1.4714299585200843,8.451351243087649,4.75183826124221
1758278546968364800,303.3303647460938,1.357177994787693,8.561893100255727,4.58502302044928
1758278546978450000,303.3404499511719,1.2398318644322457,8.663486511814593,4.42461501635015
1758278546988534800,303.3505346679688,1.119853266681358,8.75635125799477,4.271139149601757
1758278546998619000,303.3606188964844,0.9983731783263384,8.841129143831134,4.124085424855351
1758278547008703700,303.37070385742186,0.8777461996693163,8.917230386736989,3.985343893641233
1758278547018787800,303.38078784179686,0.7609150330986827,8.984229454776644,3.856815421144664
1758278547028872700,303.39087280273435,0.650340808030963,9.042771075594423,3.73841349812597
1758278547038957800,303.4009577636719,0.5479226726183667,9.094062286892532,3.628799277196825
1758278547049041700,303.4110417480469,0.4535675782825797,9.139998108637332,3.5249262302681803
1758278547059126800,303.4211267089844,0.3658269701831042,9.18222630803585,3.4239281542539595
1758278547069211000,303.4312109375,0.2836477956030517,9.221508517110347,3.324712577742338
1758278547079296000,303.4412958984375,0.2069772101103328,9.258044057825208,3.2274116026803847
1758278547089380900,303.451380859375,0.1384019513956736,9.291954510733484,3.132223089727759
1758278547099464700,303.46146459960937,0.0826844024221412,9.323532136780024,3.038962037706375
1758278547109549800,303.4715498046875,0.0457514690206851,9.353219419035314,2.947131018488109
1758278547119633700,303.48163354492186,0.0322617838022415,9.381620753133296,2.855615056568384
1758278547129718800,303.49171875,0.0462218356119468,9.40933176687956,2.762737743167579
1758278547139804000,303.5018039550781,0.0908053020328748,9.436550613194704,2.6671444488063454
1758278547149887700,303.5118876953125,0.1669638372170739,9.46293008607626,2.5681600507020947
1758278547159972600,303.52197265625,0.2735413207988255,9.487516830322146,2.4662904525503517
1758278547170056700,303.532056640625,0.4101127596985549,9.509351645511387,2.361024197697639
1758278547180141600,303.5421416015625,0.5773998923195526,9.527192422628405,2.251582556856424
1758278547190226700,303.55222680664065,0.7756023876860737,9.53997065565884,2.134899128193408
1758278547200310800,303.56231079101565,1.0027933328561485,9.546809561768171,2.0057992855496702
1758278547210396000,303.57239599609375,1.2551038139745592,9.546732404878735,1.8587642655037344
1758278547220479700,303.58247973632814,1.524975378485769,9.538786998832226,1.690084107621759
1758278547230564900,303.59256494140624,1.8023127488330009,9.521856322297454,1.5020942691139876
1758278547240648700,303.60264868164063,2.076033097726852,9.495328380855918,1.3035304296217858
1758278547250733800,303.6127338867188,2.338552692040056,9.459332353845236,1.105698849926889
1758278547260818700,303.6228186035156,2.586836401860416,9.414835040470956,0.9162523098047822
1758278547270902800,303.6329028320313,2.8203277623489496,9.363557273176312,0.7347953071318566
1758278547280987600,303.6429875488281,3.040397038945556,9.30692119371891,0.5546079956011847
1758278547291071700,303.65307177734377,3.2458699271738527,9.246540667036175,0.3690485625781118
1758278547301156900,303.66315698242187,3.4326392839759587,9.18454101471901,0.1776698488170281
1758278547311242000,303.67324194335936,3.597844459223747,9.122811996036768,-0.0137663296106911
1758278547321325800,303.6833259277344,3.741694419492781,9.062637221059203,-0.1967912585954181
1758278547331411000,303.69341088867185,3.868053146734834,9.004297844815254,-0.3621727219918743
1758278547341494800,303.70349487304685,3.98229999590069,8.947655335617064,-0.5011405362425372
1758278547351579600,303.71357958984373,4.089395219746232,8.89275820878148,-0.6050558514103294
1758278547361664800,303.7236647949219,4.190739040458202,8.841009901365638,-0.6668222794935107
1758278547371748600,303.7337485351562,4.285274350199103,8.794330567777155,-0.6830623434156179
1758278547381833700,303.7438337402344,4.371105544480681,8.754016093045472,-0.6565286298204213
1758278547391917800,303.7539177246094,4.445497645381093,8.721001712194084,-0.5933607009088621
1758278547402002700,303.76400268554687,4.50499671305418,8.696252470862865,-0.5005961637001485
1758278547412087600,303.7740876464844,4.546152314785123,8.680625278142093,-0.3868328237349167
1758278547422172000,303.784171875,4.567013316506147,8.674283800160884,-0.2637956786636263
1758278547432256800,303.7942568359375,4.567806512710452,8.676626563894748,-0.1472681164157576
1758278547442340900,303.8043408203125,4.550131155288219,8.686996566739678,-0.0529131636438658
1758278547452425700,303.81442578125,4.514078137393295,8.70593975214064,0.0103806806442153
1758278547462510800,303.8245107421875,4.458644419462979,8.734355114763975,0.0437273108158959
1758278547472595000,303.8345949707031,4.383251032565534,8.772379432731867,0.0533908276255941
1758278547482680000,303.84468017578126,4.288716891868412,8.819031878313421,0.0443195867537753
1758278547492764000,303.8547639160156,4.17634577344656,8.872886218097806,0.0201292647968162
1758278547502849000,303.86484912109376,4.048047018052637,8.932159075799584,-0.0153534846377035
1758278547512934000,303.87493383789064,3.9060678200915455,8.99497822780609,-0.0581959446186898
1758278547523018200,303.88501831054685,3.751837627844512,9.059976477417347,-0.1045406987908296
1758278547533103000,303.89510302734374,3.586712824356556,9.12595847736895,-0.1509159439993556
1758278547543187000,303.90518701171874,3.411353334841132,9.192156165897844,-0.1931742371420376
1758278547553272000,303.9152719726562,3.225727887377143,9.25817148359716,-0.2265729776685126
1758278547563357200,303.9253571777344,3.0297987803027038,9.323616892454028,-0.2467255205929279
1758278547573441000,303.9354409179688,2.8237451695770024,9.38797509059608,-0.250557591302786
1758278547583526100,303.9455261230469,2.608563372761011,9.45039559867382,-0.2362323480260558
1758278547593610000,303.95560986328127,2.387138297641277,9.509524663990735,-0.2022502546536736
