time,seconds_elapsed,z,y,x
1758278140261197600,140.34119750976564,1.4378231647334991,9.652830726641415,0.9622459992166608
1758278140271282700,140.35128271484376,1.2899550548642873,9.665513682603835,1.0412694862447678
1758278140281367800,140.36136791992186,1.1404401276361196,9.675230774497985,1.122353047607839
1758278140291452700,140.37145263671874,0.992923534618318,9.681700847294929,1.2038107029803096
1758278140301537800,140.38153784179687,0.8505237731575965,9.684636316224932,1.2863957549475131
1758278140311621600,140.39162158203126,0.7161768236406147,9.683740828689931,1.372086517845094
1758278140321706800,140.40170678710936,0.5926040738552808,9.678844288820027,1.46258935719952
1758278140331791600,140.41179150390624,0.4818863851962611,9.669894674167036,1.5592643093176186
1758278140341876700,140.42187670898437,0.3862522473679855,9.65690835134387,1.6629263438440858
1758278140351961600,140.43196166992186,0.3084799659773707,9.639757894578576,1.7749061248607934
1758278140362046700,140.44204663085938,0.2502762901433743,9.61854208807051,1.8950936161220076
1758278140372131600,140.45213159179687,0.2135272528083063,9.593127660828827,2.024029938767105
1758278140382216700,140.462216796875,0.1997195853985846,9.563362637162207,2.1616139705091717
1758278140392301800,140.4723017578125,0.2096955656909383,9.52913303530216,2.3069556306406853
1758278140402385700,140.4823857421875,0.2421067747510969,9.490433594551682,2.458344461981952
1758278140412470500,140.49247045898437,0.2927410382441245,9.447382972854376,2.6137396063551304
1758278140422555600,140.5025556640625,0.3559287130357697,9.400252388367056,2.7710923145368693
1758278140432640800,140.51264086914065,0.4258557242861017,9.349234148791432,2.9293118686810136
1758278140442725600,140.5227255859375,0.4982697300465777,9.294493089300394,3.087801764199137
1758278140452810800,140.53281079101563,0.5695533070050179,9.23591873525679,3.247119634974003
1758278140462895600,140.5428955078125,0.6359622271317988,9.173055744108558,3.408959133180976
1758278140472980700,140.55298071289062,0.695350089515373,9.104801707571744,3.576234684962034
1758278140483065600,140.5630656738281,0.7482314926143735,9.03009864102602,3.7507132999897
1758278140493150700,140.57315063476562,0.7952865276474506,8.949220100715756,3.9305680550977584
1758278140503235600,140.58323559570312,0.8358459170509129,8.864967700058221,4.109026679672301
1758278140513319700,140.59331958007812,0.8696361776456236,8.782412166446447,4.275903879785537
1758278140523404500,140.60340454101564,0.9005183687739073,8.706271176052093,4.422703629770875
1758278140533489700,140.61348974609376,0.9369455537434668,8.638823195201159,4.545686450839042
1758278140543574500,140.62357446289062,0.9841071178909392,8.580863173663616,4.644427395576239
1758278140553659600,140.63365966796874,1.037708871153742,8.532838270685076,4.720614563199877
1758278140563744800,140.64374487304687,1.0907880618471653,8.494544488126039,4.77737076190561
1758278140573829600,140.65382958984375,1.1368253712050616,8.46641729479432,4.816409517613053
1758278140583914800,140.66391479492188,1.1711274537794292,8.44952052052915,4.837817047300934
1758278140593999600,140.67399951171876,1.190281359321624,8.443228726908565,4.844119070054591
1758278140604083700,140.68408374023437,1.1898546583421528,8.444636840140818,4.841768999797106
1758278140614168600,140.69416845703125,1.1655419817972927,8.45071703683734,4.837072950935363
1758278140624253700,140.70425366210938,1.1176020536884663,8.461018650621176,4.8303719919919965
1758278140634338600,140.71433862304687,1.051631963370368,8.477356037437914,4.816522622598708
1758278140644423700,140.72442358398436,0.9759875243213028,8.50214911791086,4.7886640170753
1758278140654508500,140.73450854492188,0.8972730301771312,8.53673177099228,4.742312015745044
1758278140664593700,140.74459375,0.8187638493467122,8.581178815484046,4.675829372794926
1758278140674678500,140.75467846679686,0.743029978448525,8.635960206985473,4.586770740899444
1758278140684763600,140.764763671875,0.6729272453051061,8.701658129298686,4.471988761943578
1758278140694848800,140.77484887695311,0.6113902785962447,8.776884927457571,4.331614661091566
1758278140704932600,140.7849326171875,0.559931492178887,8.858538543793559,4.1693128060698506
1758278140715017700,140.79501782226563,0.5177817648440599,8.94197495189309,3.992916082461178
1758278140725102600,140.8051025390625,0.4830513007897883,9.022572337174417,3.8118545819118617
1758278140735187700,140.81518774414062,0.4538225028917193,9.096485714647171,3.635711248542368
1758278140745272600,140.8252724609375,0.4297580654868855,9.161373489621282,3.472022323076427
1758278140755357700,140.83535766601562,0.4112699669096619,9.217031079435348,3.323787279590964
1758278140765442600,140.84544262695312,0.4011903983786702,9.26497824100256,3.188985133652389
1758278140775527700,140.85552758789063,0.4015156482776627,9.307167861956357,3.063622431710362
1758278140785612500,140.86561254882812,0.4117329447789117,9.345888345494863,2.9419767044648526
1758278140795697700,140.87569775390625,0.4282661098960786,9.383545583716034,2.8170997402131555
1758278140805781500,140.88578149414062,0.4460341505704447,9.42146877939701,2.6846564323604105
1758278140815866600,140.89586669921874,0.4602316392816603,9.459825690320134,2.543671506133675
1758278140825951500,140.90595141601565,0.4681210042919963,9.49791664378345,2.396003156620264
1758278140836036600,140.91603662109375,0.4695411002229899,9.534663781422376,2.2450166224695742
1758278140846121700,140.92612182617188,0.4659324812717735,9.569173953789472,2.0938499094463885
1758278140856206600,140.93620654296876,0.4602557508096098,9.600894787698984,1.94457602443248
1758278140866291700,140.9462917480469,0.4560094915419816,9.629636313536762,1.7979332185745238
1758278140876376600,140.95637646484374,0.4561877341857179,9.655250062742828,1.654826039496809
1758278140886461700,140.96646166992187,0.4634520991655066,9.677729021054503,1.515633549644798
1758278140896546600,140.9765466308594,0.4790418824853375,9.697194769024849,1.3803241848364471
1758278140906630700,140.98663061523436,0.5037687293216586,9.713726217108963,1.249043198761344
1758278140916715500,140.99671557617188,0.5369443651493638,9.727474756476283,1.1217367423404008
1758278140926800600,141.00680053710937,0.5782792324373498,9.738719788590071,0.9966486926212906
1758278140936885500,141.01688549804686,0.6276734875403345,9.747589908266066,0.8722974327441304
1758278140946970600,141.026970703125,0.6856563054315745,9.754081608372926,0.7471013926059007
1758278140957055500,141.03705541992187,0.7531103506971151,9.75797160154879,0.6206478997524827
1758278140967140600,141.047140625,0.8315805146913975,9.758799869066475,0.4946694770649075
1758278140977225700,141.05722583007812,0.9218342015903442,9.756121005246042,0.3724498223889619
1758278140987310600,141.067310546875,1.02433391433917,9.749605924263596,0.2574521183231845
1758278140997395700,141.07739575195313,1.1390372020356356,9.739082776683569,0.152464214620972
1758278141007479600,141.0874794921875,1.2639493837311864,9.724676065668463,0.0590301897860132
1758278141017564700,141.09756469726562,1.3969756060384213,9.706612001189589,-0.0234684145903098
1758278141027649500,141.1076494140625,1.5342179847359656,9.685415483903885,-0.0964728536747396
1758278141037734700,141.11773461914063,1.6709319556452331,9.661885555234552,-0.1623388077649288
1758278141047819500,141.12781958007812,1.803626754041016,9.636793199554084,-0.2225659157179295
1758278141057904600,141.13790454101562,1.9310240305505693,9.610623570030928,-0.278307567086257
1758278141067990000,141.14798999023438,2.0526377552226185,9.58363268725276,-0.3332632922412827
1758278141078075100,141.1580751953125,2.1684207279145715,9.555836917832494,-0.3928554084926843
1758278141088160300,141.16816015625,2.279053039845079,9.527033432674408,-0.4603706824261694
1758278141098245000,141.1782451171875,2.382534603238106,9.49771147660017,-0.5360945799196138
1758278141108330200,141.1883303222656,2.475644264090061,9.469078671833872,-0.6149168087545782
1758278141118414000,141.1984140625,2.555682261922956,9.44258229457438,-0.690307126912102
1758278141128499200,141.20849926757813,2.620954360039532,9.419638641360402,-0.7559014427203684
1758278141138584000,141.218583984375,2.6702529362156984,9.401630106461049,-0.805911162840575
1758278141148669200,141.22866918945311,2.7027649205029007,9.38967078859806,-0.8363820697542279
1758278141158754000,141.23875415039063,2.718274039801955,9.384217199367283,-0.847258560816571
1758278141168839200,141.24883911132812,2.7180282483473417,9.384770741596816,-0.8418895811293273
1758278141178924000,141.2589240722656,2.7041502373814583,9.390260571184754,-0.8251993622869253
1758278141189009200,141.26900903320313,2.678049289180338,9.399793538683651,-0.8014505301699042
1758278141199094300,141.27909423828126,2.640873989257216,9.412709134358169,-0.7726966563072055
1758278141209179100,141.28917919921875,2.593904440550506,9.42834860203862,-0.7404617353957146
1758278141219263000,141.29926293945311,2.537933839264512,9.446082411649822,-0.7076885428890586
1758278141229348000,141.30934814453124,2.473709204374253,9.465361697137356,-0.6768221338517963
1758278141239433200,141.31943310546876,2.4017652272783216,9.485933945044875,-0.6472811281993984
1758278141249518000,141.32951806640625,2.322350914301723,9.507655947509408,-0.6177179837804287
1758278141259603200,141.33960327148438,2.235428709913045,9.530324290913343,-0.5883583260443062
1758278141269688000,141.34968798828126,2.1420913777850568,9.553421088862418,-0.5603321454016491
1758278141279773200,141.3597731933594,2.0435170217864216,9.576486907151342,-0.534141692286171
1758278141289858000,141.36985815429688,1.939958593764901,9.599502456557753,-0.5064428804343566
1758278141299943200,141.37994311523437,1.8312978741683064,9.62268342565894,-0.4697973765389993
1758278141310028000,141.3900280761719,1.7166563265964387,9.646273560082912,-0.4157939106075093
1758278141320113200,141.40011303710938,1.596703520873934,9.669847327893972,-0.3391113972149789
1758278141330197000,141.41019702148438,1.4728643752373751,9.69249170590043,-0.2380764232564717
1758278141340282000,141.4202822265625,1.3472854001961647,9.71298971952796,-0.1142349212660454
1758278141350367000,141.4303669433594,1.222639322090894,9.730097506195309,0.0272977773198508
1758278141360452000,141.4404521484375,1.1028528859112412,9.742788060942292,0.1794277436013333
1758278141370537200,141.450537109375,0.9903379751045256,9.750763277605175,0.3350180634867399
1758278141380622000,141.4606220703125,0.8871821365345269,9.754171624743938,0.4893147085661068
1758278141390707200,141.47070727539062,0.7948913177847862,9.753416422462465,0.6398453521754592
1758278141400792000,141.4807919921875,0.7142395719677209,9.748930801481007,0.786513219409436
1758278141410877200,141.49087719726563,0.6455554734505713,9.741002931091188,0.9308741979405284
1758278141420962000,141.50096215820312,0.5894322388861328,9.729731595492362,1.074837555456161
1758278141431046100,141.51104614257812,0.5467471260329708,9.715148943388462,1.219567075038701
1758278141441131000,141.5211311035156,0.5182226770119741,9.697337392365933,1.365088183390349
1758278141451216100,141.53121606445313,0.504070744475536,9.67641618489027,1.5110492905944586
1758278141461301000,141.54130102539062,0.5032468608720227,9.652676412862538,1.6561895829349755
1758278141471386000,141.55138623046875,0.5140257733114063,9.626462944197652,1.79926899722293
1758278141481471000,141.56147094726563,0.5346639260619879,9.59793593789339,1.9401418413773177
1758278141491556000,141.57155615234376,0.5632556681655347,9.56709013325274,2.0794047661170363
1758278141501641200,141.58164111328125,0.5982305719675496,9.533587092101572,2.2188367638133464
1758278141511726000,141.59172607421874,0.6383271296322346,9.49670551442802,2.3612528918869797
1758278141521811200,141.60181127929687,0.6820061854261904,9.4553728025645,2.510212596385181
1758278141531896000,141.61189599609375,0.7274304043870419,9.408238126423957,2.669515561851859
1758278141541980200,141.6219802246094,0.7706494414538144,9.353761855348944,2.843168831971288
1758278141552065000,141.63206494140624,0.8086527166336774,9.290165873751045,3.0346789535596965
1758278141562150100,141.64215014648437,0.8398306758381426,9.216272954544424,3.244282365721464
1758278141572235000,141.6522351074219,0.8638636586587876,9.132592216295004,3.466968546818197
1758278141582320000,141.66232006835938,0.8831333726003766,9.04085968901515,3.695037005475163
1758278141592405000,141.67240502929687,0.9001028467755764,8.945793633398413,3.915733181798458
1758278141602490000,141.6824899902344,0.9126105192363262,8.85446851787567,4.115328994686902
1758278141612575200,141.6925751953125,0.9184786806173622,8.77310014822185,4.284799426163732
1758278141622660000,141.70266015625,0.9180259684138,8.704484292635321,4.42261770505309
1758278141632745200,141.7127451171875,0.9134232238586992,8.649122470897435,4.530863560238481
1758278141642829000,141.7228291015625,0.9037838003106414,8.6065552488029,4.613108420465887
1758278141652914200,141.7329140625,0.8876599101141095,8.576002289628983,4.67275332635045
1758278141662999000,141.7429990234375,0.8657911926552653,8.55603209926784,4.713289919400215
1758278141673084200,141.75308422851563,0.8389624416362493,8.54547680298388,4.737230182436108
1758278141683169000,141.7631689453125,0.8061415375303477,8.542852299699186,4.747652499990165
1758278141693254100,141.7732541503906,0.7646551694750785,8.54616536976993,4.748552955961227
1758278141703339000,141.78333911132813,0.7135688330993056,8.553499365919828,4.743298104172945
1758278141713424100,141.79342407226562,0.6533112752091139,8.56442641812563,4.732248594631255
1758278141723509000,141.8035090332031,0.586004383329302,8.580270468467473,4.712319613063335
1758278141733594000,141.81359399414063,0.516088112668693,8.60435277032256,4.676446920171379
1758278141743679200,141.82367919921876,0.4493381605518982,8.640043676906824,4.617155942291021
1758278141753763000,141.83376318359376,0.3911222280245274,8.689169234603643,4.529433527435362
1758278141763848200,141.84384814453125,0.3452752901395782,8.75168735783696,4.411249923342466
1758278141773933000,141.85393310546874,0.3122177277335897,8.825330101674794,4.26456006347239
1758278141784018200,141.86401806640626,0.2893162696935236,8.905895338252186,4.0953249020561575
1758278141794103000,141.87410302734375,0.2721092969680205,8.988889847803115,3.911033041283488
1758278141804188200,141.88418823242188,0.2563326858391985,9.070227822318673,3.719626672330498
1758278141814273000,141.89427294921876,0.2391449475371278,9.14593275938332,3.530593754510581
1758278141824358100,141.9043581542969,0.2199792236929759,9.212795049300787,3.3535666240438817
1758278141834443000,141.91444311523438,0.1997347829677164,9.269337605255842,3.195288325449824
1758278141844528000,141.92452807617187,0.1828150479520671,9.316187034714222,3.057065557412803
1758278141854613000,141.9346130371094,0.1744123813910409,9.355555753028392,2.934885284899175
1758278141864697300,141.944697265625,0.1776165294609032,9.390656292504072,2.82035435809493
1758278141874782200,141.9547822265625,0.1926002549126744,9.42491921211183,2.70262726559788
1758278141884867000,141.9648671875,0.2155088550795801,9.461407991075514,2.5701602846086025
1758278141894952200,141.9749521484375,0.2396636193826794,9.501528989061711,2.4153506850384177
1758278141905037000,141.985037109375,0.2579625885959714,9.544196164399384,2.2387791893847284
1758278141915122200,141.9951220703125,0.2658766679224558,9.587030512997508,2.0465935066223144
1758278141925207000,142.00520703125,0.2628868019240908,9.627491118201611,1.8473513294771315
1758278141935292200,142.01529223632812,0.2525629032432102,9.663944241330029,1.647651617822796
1758278141945377000,142.025376953125,0.2399971621859818,9.6957013155967,1.4512597155421971
1758278141955462100,142.03546215820313,0.230615549323894,9.72270447333455,1.2594612785317003
1758278141965546200,142.04554614257813,0.228982157702092,9.745006906035542,1.0736764757875352
1758278141975631400,142.05563134765626,0.2394236183480359,9.762737208515404,0.8955451834712177
1758278141985716200,142.06571630859375,0.2637739782884716,9.776105808654426,0.7270203622814267
1758278141995801000,142.07580102539063,0.302093443278037,9.785429517316818,0.5696410218210891
1758278142005886000,142.08588598632812,0.3523585263988003,9.791118668869135,0.4245455184703692
1758278142015971000,142.09597119140625,0.4133480883579701,9.793626852297782,0.2904768013728782
1758278142026056200,142.10605615234374,0.4843767772398888,9.793287829601764,0.1651297719240188
1758278142036141000,142.11614111328126,0.5653553803911432,9.790234871771933,0.0451939812683966
1758278142046226200,142.12622607421875,0.6566460456550121,9.78437854695916,-0.0716151972327148
1758278142056311000,142.13631103515624,0.7583354649342596,9.775529470071197,-0.1852363568148575
1758278142066396400,142.146396484375,0.8696331089057028,9.763575997427106,-0.2944621812146157
1758278142076480500,142.15648046875,0.9891182971164584,9.748519298070669,-0.3979775007467717
1758278142086565400,142.1665654296875,1.115219177139923,9.73038976714015,-0.4961702004840597
1758278142096650500,142.176650390625,1.2471958173289894,9.709081021651626,-0.5904568326935171
1758278142106735400,142.1867353515625,1.3847209584906697,9.684314829185604,-0.6833622031450272
1758278142116820500,142.19682055664063,1.526821298613399,9.65578840740323,-0.7777840425740927
1758278142126905300,142.2069052734375,1.6715332825392484,9.623530982398986,-0.8740854121394455
1758278142136990500,142.2169904785156,1.8167045545399187,9.587912556529044,-0.970512819237262
1758278142147075600,142.22707568359374,1.9591621836677195,9.549700022512674,-1.0654998182684183
1758278142157160400,142.23716040039062,2.095363236618787,9.50994376618564,-1.1579298993583769
1758278142167245600,142.24724560546875,2.22157597951889,9.470022090163829,-1.246462973009795
1758278142177329700,142.25732958984375,2.334963581506908,9.431119235795736,-1.3312914199896155
1758278142187414500,142.26741455078124,2.433761809389293,9.394247010472416,-1.4125592518784105
1758278142197499400,142.27749951171876,2.5158789515838027,9.360648692253232,-1.489633723730594
1758278142207584500,142.28758447265625,2.5791435092702506,9.331866834405064,-1.560344067378342
1758278142217669400,142.29766943359374,2.623231657321751,9.309002676168085,-1.622191451743245
1758278142227754500,142.30775439453126,2.6490833069369195,9.292571765848994,-1.67357238715142
1758278142237839400,142.31783935546875,2.657763456998765,9.28278803845942,-1.713622804119438
1758278142247924500,142.32792456054688,2.6496707514360547,9.279984086954594,-1.7411289429433645
1758278142258009600,142.33800952148437,2.6254142620578405,9.284235314658284,-1.7551494311198592
1758278142268094500,142.34809448242189,2.586418176448345,9.295257059410211,-1.754711331963539
1758278142278179600,142.3581796875,2.5324440096765755,9.313170317241548,-1.7383851971931754
1758278142288263700,142.368263671875,2.463792498254776,9.337533189603686,-1.706040532296896
1758278142298348500,142.3783486328125,2.381473111486435,9.366946915614603,-1.661103073939681
1758278142308433400,142.3884333496094,2.286225561822951,9.399831532606482,-1.608337552305311
1758278142318518500,142.3985185546875,2.1788114812865853,9.435110351258515,-1.5497997308798133
1758278142328603400,142.40860327148437,2.0602866625405847,9.471986668235065,-1.485629164264351
1758278142338688500,142.4186884765625,1.93162871844545,9.509732753783464,-1.4156978421650823
1758278142348773400,142.4287734375,1.79360877950415,9.547489945247769,-1.341193513061851
1758278142358858500,142.4388583984375,1.648519778959453,9.58428092202842,-1.2626624126605688
1758278142368943400,142.448943359375,1.4993236353568733,9.61936626393497,-1.179074978717789
1758278142379028500,142.45902856445312,1.348611095841974,9.652440266019106,-1.0872092535123228
1758278142389113600,142.4691135253906,1.1985856618084012,9.683424602347612,-0.9823916922751812
1758278142399197700,142.47919775390625,1.0508941506151108,9.712178403145074,-0.860001284142211
1758278142409282600,142.48928247070313,0.907210194562748,9.738327574402094,-0.7157981995865702
1758278142419367400,142.49936743164062,0.7695669799793511,9.761071321129798,-0.5473964567871764
1758278142429452500,142.50945263671875,0.6402723454158753,9.779249367377162,-0.3559603137504309
1758278142439537400,142.51953735351563,0.5221113550135865,9.791651168310642,-0.146187454172736
1758278142449622500,142.52962255859376,0.4176890401717275,9.797475344419478,0.0736565942666726
1758278142459707400,142.5397072753906,0.3277976837791502,9.796700268393757,0.2959856827211566
1758278142469792500,142.54979248046874,0.2505954025625251,9.789856686109305,0.5160512877896428
1758278142479877400,142.55987744140626,0.1844554721028544,9.77755717650652,0.7319329034380614
1758278142489962500,142.56996240234375,0.12881885201158,9.760273448750375,0.9438428389765322
1758278142500046600,142.5800466308594,0.0843384623726364,9.738224114027618,1.1533647833999243
1758278142510131700,142.59013159179688,0.0523886146133765,9.711479899486898,1.3619003471344708
1758278142520216600,142.60021655273437,0.0346032140955445,9.680230774742364,1.5691786773495375
1758278142530301700,142.6103017578125,0.030939387508505,9.64498819644749,1.7730299557253717
1758278142540386600,142.62038647460938,0.0396777066315291,9.606174189406632,1.9723679944604635
1758278142550471400,142.63047143554687,0.0597998361513717,9.564080430042743,2.166840619116277
1758278142560556500,142.640556640625,0.0902036737447604,9.518646128079297,2.3574610983885824
1758278142570641400,142.65064135742188,0.1292492153860162,9.46975028748512,2.545099200849235
1758278142580726500,142.6607265625,0.1753013843863271,9.417270158663392,2.730327173428237
1758278142590811400,142.67081127929688,0.2272928894408978,9.360853859436512,2.9142946245521304
1758278142600896500,142.680896484375,0.2842629866256378,9.300258813220262,3.0975422369688745
1758278142610980600,142.69098071289062,0.3464537958670407,9.235095143914222,3.280754485811293
1758278142621065700,142.7010656738281,0.4120929737303406,9.164777160584926,3.465172018790245
1758278142631150600,142.71115063476563,0.4776589402269571,9.088868809902667,3.651666358043253
1758278142641235700,142.72123559570312,0.5395402633940801,9.007322161072493,3.8402389648750415
1758278142651320600,142.7313205566406,0.5949696704754606,8.920259379169345,4.030556077286601
1758278142661405400,142.74140551757813,0.6425313033238053,8.82841403916478,4.2209757732898
1758278142671490600,142.75149047851562,0.6810656897056847,8.732539589774609,4.410134363315999
1758278142681575400,142.7615754394531,0.7099664977584034,8.63387580192685,4.595924353691935
1758278142691660500,142.77166064453124,0.7293829997595399,8.533979841935635,4.775936345188319
1758278142701745400,142.78174536132812,0.7417369429633021,8.434727440544963,4.9472775389730925
1758278142711829800,142.79182983398437,0.7489738354142755,8.339373215636611,5.105319398462772
1758278142721914600,142.80191455078125,0.7512712987016886,8.252133908122778,5.244831329527497
1758278142731999700,142.81199975585938,0.7477665054511279,8.17682001620233,5.361980622136593
1758278142742084600,142.8220847167969,0.7374004481289536,8.115733387076855,5.455409431940317
1758278142752169700,142.83216967773438,0.7185920680887997,8.069349821564554,5.526265175408125
1758278142762254600,142.84225463867188,0.6900009105071425,8.036938082781434,5.5769110745400186
1758278142772339500,142.85233935546876,0.6494287346873432,8.016621855461597,5.610920311647654
1758278142782424600,142.86242456054688,0.5938560101451352,8.006333101159333,5.631728706398606
1758278142792509400,142.87250952148435,0.5218343281704932,8.004881733307242,5.640917390504479
1758278142802594600,142.8825944824219,0.4338108114764094,8.011798965349794,5.638554753026366
1758278142812679400,142.89267944335938,0.3319695991689339,8.028464268946648,5.621739227303863
1758278142822764500,142.9027646484375,0.2203298637615516,8.057513837820292,5.585545631894469
1758278142832848600,142.9128486328125,0.1049161445070989,8.101478651753068,5.524981565338373
1758278142842933800,142.92293383789064,-0.0087260481590958,8.161346552738546,5.437162412109971
1758278142853018600,142.9330185546875,-0.1154734774845186,8.235432364168762,5.323033928626775
1758278142863103700,142.94310375976562,-0.2116072262648493,8.319836740517616,5.187091672742366
1758278142873188600,142.95318872070314,-0.2961479058118537,8.409336978700756,5.036438169938325
1758278142883273700,142.96327368164063,-0.3693063367314636,8.49834680301845,4.879764383931458
1758278142893358600,142.97335864257812,-0.4323500912740826,8.58259043584764,4.724679912942648
1758278142903443500,142.983443359375,-0.4871040467793122,8.65998522569537,4.5757799758076665
1758278142913528300,142.9935283203125,-0.5342873843671754,8.730684317296744,4.433965320758522
1758278142923613400,143.00361352539062,-0.5736712271852419,8.795880135306716,4.298114542549849
1758278142933697500,143.01369750976562,-0.6019678953323513,8.857467115169763,4.165729979147017
1758278142943782700,143.02378271484375,-0.6149740188345313,8.917298191276192,4.034100910286605
1758278142953867800,143.03386767578124,-0.6119886098155751,8.977453092509508,3.898870017541945
1758278142963952600,143.04395263671876,-0.5979835018713027,9.039896981462835,3.754074593116343
1758278142974037800,143.05403784179688,-0.5829230761878192,9.105415455555915,3.594718728418648
1758278142984122600,143.06412255859374,-0.5764979750437662,9.1728605137974,3.420040499165654
1758278142994207700,143.07420776367186,-0.5830162708966061,9.240202111664416,3.2325150632992385
1758278143004292600,143.08429272460938,-0.6020757030883803,9.30550197457075,3.0357085888683795
1758278143014377500,143.09437744140624,-0.6298545579064637,9.367919560039043,2.8312095141083
1758278143024462300,143.10446240234376,-0.6592356237567961,9.427200016525386,2.6198677338466045
1758278143034546700,143.11454663085937,-0.6828522077962755,9.483298920366169,2.4023199385516345
1758278143044631600,143.12463159179688,-0.6936548299048095,9.536133269453048,2.179770973968506
1758278143054716700,143.13471655273435,-0.6868576440453529,9.585338322126864,1.9544654041536151
1758278143064801000,143.14480102539062,-0.6598477643057704,9.630388593208789,1.7293375289931892
1758278143074886000,143.1548859863281,-0.6117866940353065,9.670680271586775,1.5079945791989564
1758278143084971000,143.16497094726563,-0.5434594461318105,9.705856214386223,1.2928317793443798
1758278143095056000,143.17505590820312,-0.4558014017492532,9.735700733029844,1.0857168960627168
1758278143105141000,143.18514111328125,-0.349672830978781,9.759975342586635,0.8893849072758108
1758278143115226000,143.19522607421874,-0.2254995580170303,9.77876421420872,0.7037617248341441
1758278143125311000,143.20531103515626,-0.0850992906772997,9.792061502677202,0.5279094468330964
1758278143135396000,143.21539599609375,0.0704415320771513,9.799776607099174,0.3602915113551542
1758278143145480000,143.22547998046875,0.2392647927908226,9.801697930550574,0.1996499176958575
1758278143155565000,143.23556494140624,0.4186570449536666,9.79760335471332,0.0456768785476684
1758278143165650000,143.24564990234376,0.6055538275277241,9.78741747626364,-0.1006690723887179
1758278143175735000,143.25573510742188,0.7961802616167813,9.771354230213165,-0.2390006802282296
1758278143185820000,143.26581982421874,0.9848743028711529,9.750079386994242,-0.369292965793237
1758278143195905000,143.2759050292969,1.1663085091903804,9.724612352782488,-0.4919606564976275
1758278143205990000,143.28598999023438,1.336696932294965,9.696211018684506,-0.6059037004113197
1758278143216075000,143.29607495117187,1.494494315504283,9.666004680991172,-0.7107935231670737
1758278143226160000,143.30616015625,1.6393554986424743,9.634981181696055,-0.8062453632310033
1758278143236245000,143.31624487304688,1.770239155963063,9.604283261093496,-0.8912900102447718
1758278143246330000,143.326330078125,1.8871289208531377,9.574747954529522,-0.9660955142516642
