time,seconds_elapsed,z,y,x
1758280524242950100,10.0009501953125,-0.8216876983642578,1.1036572456359863,-0.2076887190341949
1758280524253036300,10.011036376953124,-0.896388053894043,1.1165850162506104,-0.0104853697121143
1758280524263122400,10.021122314453123,-1.018211007118225,0.9904109835624696,0.1596573591232299
1758280524273207300,10.031207275390624,-1.1493831872940063,0.7694184184074402,0.3051402568817138
1758280524283293200,10.041293212890626,-1.2268855571746826,0.4914792776107788,0.4244300127029419
1758280524293379300,10.05137939453125,-1.2396913766860962,0.1604017615318298,0.5268881916999817
1758280524303464200,10.061464111328124,-1.1915422677993774,-0.2182890474796295,0.62073814868927
1758280524313550300,10.07155029296875,-1.0779895782470703,-0.6050876379013062,0.7029797434806824
1758280524323636200,10.08163623046875,-0.905726671218872,-0.9392815828323364,0.7760976552963257
1758280524333721000,10.09172119140625,-0.6864819526672363,-1.1934270858764648,0.8467768430709839
1758280524343807200,10.10180712890625,-0.4487260282039642,-1.398939847946167,0.922577142715454
1758280524353892400,10.111892333984375,-0.2160893231630325,-1.5661821365356443,0.9977339506149292
1758280524363977700,10.121977783203125,-0.0026130878832191,-1.6941064596176147,1.059275507926941
1758280524374063600,10.132063720703124,0.1711866706609726,-1.7665196657180786,1.0885052680969238
1758280524384148500,10.1421484375,0.3039413690567016,-1.7591118812561035,1.0917786359786987
1758280524394234600,10.152234619140623,0.3788968622684479,-1.6385245323181152,1.0570331811904907
1758280524404320800,10.16232080078125,0.398857831954956,-1.4497323036193848,0.9932047128677368
1758280524414406000,10.172406005859376,0.3666000366210937,-1.247921109199524,0.9080547094345092
1758280524424491500,10.182491455078123,0.2914150953292846,-1.1047816276550293,0.821229875087738
1758280524434577700,10.19257763671875,0.2036809921264648,-1.0447883605957031,0.7768446207046509
1758280524444662800,10.202662841796876,0.1130229234695434,-1.0588809251785278,0.7792477011680603
1758280524454748700,10.212748779296875,0.0387843810021877,-1.1197365522384644,0.8173258304595947
1758280524464834800,10.222834716796877,-0.0027241418138146,-1.1808005571365356,0.8490679860115051
1758280524474919700,10.232919677734374,-0.0297586899250745,-1.2458418607711792,0.8625662326812744
1758280524485005600,10.243005615234376,-0.0498732700943946,-1.3093591928482056,0.8568305373191833
1758280524495090700,10.253090576171877,-0.1057045757770538,-1.3761167526245115,0.8513950109481812
1758280524505176800,10.2631767578125,-0.1963448822498321,-1.44340980052948,0.8608753681182861
1758280524515262700,10.2732626953125,-0.3068162500858307,-1.5067129135131836,0.8726547956466675
1758280524525347600,10.28334765625,-0.4225263297557831,-1.5672564506530762,0.877172589302063
1758280524535433700,10.293433837890625,-0.5296293497085571,-1.6249741315841677,0.8741341829299927
1758280524545519900,10.303519775390624,-0.6213595271110535,-1.6568254232406616,0.8651455640792847
1758280524555604700,10.313604736328124,-0.6852120161056519,-1.6442917585372925,0.8631308674812317
1758280524565691000,10.32369091796875,-0.7295276522636414,-1.5885496139526367,0.8456370234489441
1758280524575776800,10.33377685546875,-0.7628859281539917,-1.4793576002120972,0.8272734880447388
1758280524585861600,10.343861572265626,-0.7906800508499146,-1.3179206848144531,0.8051842451095581
1758280524595947800,10.35394775390625,-0.8016384243965149,-1.132488250732422,0.7872446775436401
1758280524606034000,10.364033935546876,-0.7940563559532166,-0.9332444667816162,0.7571055889129639
1758280524616118800,10.374118896484376,-0.7756826281547546,-0.7471009492874146,0.7095023393630981
1758280524626204700,10.38420458984375,-0.752593457698822,-0.609771728515625,0.653396725654602
1758280524636289500,10.39428955078125,-0.7172887325286865,-0.5379481911659241,0.5919895768165588
1758280524646375700,10.404375732421874,-0.6846869587898254,-0.5074689388275146,0.5317578911781311
1758280524656461800,10.4144619140625,-0.6529313921928406,-0.52933269739151,0.4758389592170715
1758280524666547000,10.424546875,-0.62643963098526,-0.5932804942131042,0.4260104894638061
1758280524676632600,10.434632568359374,-0.6031249761581421,-0.6691547632217407,0.3849831521511078
1758280524686718700,10.44471875,-0.5732612609863281,-0.736703097820282,0.3461230397224426
1758280524696803800,10.454803955078123,-0.5258734822273254,-0.7822607159614563,0.2934843301773071
1758280524706889700,10.4648896484375,-0.4474995136260986,-0.7928833365440369,0.2309659421443939
1758280524716975600,10.4749755859375,-0.3426457941532135,-0.752753734588623,0.14865243434906
1758280524727060700,10.485060791015623,-0.2111190408468246,-0.6643316149711609,0.0593574196100235
1758280524737146600,10.495146728515625,-0.0673184692859649,-0.5486298203468323,-0.0245593208819627
1758280524747232800,10.505232666015624,0.0748194381594657,-0.4323774576187134,-0.0786812826991081
1758280524757318000,10.51531787109375,0.2065771967172622,-0.3096962869167328,-0.114856332540512
1758280524767403500,10.525403564453123,0.3253809213638305,-0.191941499710083,-0.1351098716259002
1758280524777488600,10.535488525390624,0.4412451982498169,-0.0786090865731239,-0.1470363140106201
1758280524787574800,10.54557470703125,0.5529464483261108,0.014931458979845,-0.1245111525058746
1758280524797661000,10.555660888671875,0.634144127368927,0.0634755566716194,-0.0611138083040714
1758280524807745800,10.565745849609376,0.6587179899215698,0.0762286111712455,0.0206978488713502
1758280524817831700,10.575831787109376,0.5938793420791626,0.0738416165113449,0.1003242284059524
1758280524827917800,10.585917724609375,0.4520084857940674,0.0748690366744995,0.1538931429386139
1758280524838002700,10.596002685546877,0.2813475430011749,0.0809101536870002,0.1701775789260864
1758280524848088800,10.6060888671875,0.1393616050481796,0.0716876611113548,0.157596081495285
1758280524858174700,10.6161748046875,0.0538001060485839,0.0445742756128311,0.1215350180864334
1758280524868259600,10.626259521484377,0.0208169855177402,0.0023976457305252,0.071757361292839
1758280524878345700,10.636345703125,0.030034452676773,-0.0484889708459377,0.0285363886505365
1758280524888431900,10.646431884765626,0.0721363127231597,-0.085613876581192,-0.0022403460461646
1758280524898516700,10.656516845703123,0.1367184966802597,-0.060743149369955,-0.0199612863361835
1758280524908602600,10.6666025390625,0.2055593729019165,0.0407765209674835,-0.0296536367386579
1758280524918687700,10.676687744140626,0.2572987377643585,0.1824303269386291,-0.0339602343738079
1758280524928773600,10.686773681640624,0.2951630055904388,0.3433707356452942,-0.0366295203566551
1758280524938859800,10.69685986328125,0.3096205294132232,0.4984292984008789,-0.0323128029704093
1758280524948945000,10.70694482421875,0.3049735724925995,0.632307231426239,-0.0272373501211404
1758280524959030500,10.717030517578126,0.2718510329723358,0.7445237636566162,-0.0205014161765575
1758280524969116700,10.72711669921875,0.2186965197324752,0.8475502133369446,-0.0417372807860374
1758280524979201800,10.737201904296874,0.1389199346303939,0.9435465335845948,-0.1044470071792602
1758280524989287700,10.74728759765625,0.0530413575470447,1.046153903007507,-0.2236063480377197
1758280524999373600,10.75737353515625,-0.0149992145597934,1.1644572019577026,-0.3812755942344665
1758280525009458700,10.767458740234376,-0.0358015149831771,1.289475440979004,-0.5504053235054016
1758280525019544600,10.777544677734374,0.0187770407646894,1.4254990816116333,-0.7113848924636841
1758280525029630700,10.787630615234375,0.1448949128389358,1.547221302986145,-0.8498184680938721
1758280525039715800,10.7977158203125,0.3147161900997162,1.6243685483932495,-0.9549768567085266
1758280525049801700,10.8078017578125,0.5025787353515625,1.6481876373291016,-1.0341979265213013
1758280525059886600,10.817886474609375,0.6856934428215027,1.6184906959533691,-1.0785459280014038
1758280525069972700,10.82797265625,0.8307439088821411,1.5416430234909058,-1.0822139978408811
1758280525080059000,10.838058837890625,0.930636703968048,1.4320334196090698,-1.057827115058899
1758280525090143700,10.848143798828126,0.979092299938202,1.2954018115997314,-1.0158392190933228
1758280525100229600,10.858229736328123,0.9734780788421632,1.1467326879501345,-0.9544492959976196
1758280525110315800,10.868315673828125,0.935277223587036,1.003001689910889,-0.8929247260093689
1758280525120400600,10.878400634765624,0.8758008480072021,0.867297887802124,-0.8366758227348328
1758280525130486800,10.88848681640625,0.8082695007324219,0.7577641606330872,-0.8028851747512817
1758280525140572700,10.89857275390625,0.7357268929481506,0.6875517964363098,-0.7871573567390442
1758280525150657500,10.908657470703124,0.6667507886886597,0.6508954763412476,-0.7782012224197388
1758280525160743700,10.91874365234375,0.6119290590286255,0.6610962152481079,-0.7821312546730042
1758280525170829800,10.928829833984375,0.5626435875892639,0.7085749506950378,-0.7814898490905762
1758280525180914700,10.938914794921876,0.5301463603973389,0.7691584229469299,-0.7769795060157776
1758280525191000600,10.94900048828125,0.5039914846420288,0.843731701374054,-0.7680224776268005
1758280525201086700,10.959086669921875,0.482235848903656,0.9091405272483826,-0.7649380564689636
1758280525211171600,10.969171630859377,0.4485084116458893,0.9729249477386476,-0.766014575958252
1758280525221257700,10.9792578125,0.4099602401256561,1.0555686950683594,-0.7871233224868774
1758280525231342800,10.9893427734375,0.3656476438045501,1.1035441160202026,-0.7979884743690491
1758280525241428700,10.9994287109375,0.3073100447654724,1.1200706958770752,-0.8037688732147217
1758280525251514600,11.0095146484375,0.2132597863674163,1.1289511919021606,-0.7922455668449402
1758280525261599700,11.019599853515626,0.0915021896362304,1.1183451414108276,-0.7748676538467407
1758280525271685600,11.029685546875,-0.0522758290171623,1.0864378213882446,-0.7371339201927185
1758280525281771800,11.039771728515625,-0.2107413709163665,1.0379012823104858,-0.6904186010360718
1758280525291856600,11.049856689453126,-0.3792081773281097,0.9565097093582152,-0.6337979435920715
1758280525301942800,11.05994287109375,-0.5572676658630371,0.8481318354606628,-0.5788172483444214
1758280525312028700,11.070028564453125,-0.7386179566383362,0.7183090448379517,-0.5240441560745239
1758280525322113800,11.08011376953125,-0.8995181322097778,0.5683949589729309,-0.4608106017112732
1758280525332200000,11.090199951171876,-1.0055478811264038,0.4111430644989013,-0.3693231046199798
1758280525342285600,11.10028564453125,-1.009092926979065,0.2636524140834808,-0.2464363276958465
1758280525352370700,11.11037060546875,-0.9090960025787354,0.1571123898029327,-0.0912800282239914
1758280525362457000,11.12045703125,-0.7389568090438843,0.0690461844205856,0.0966051891446113
1758280525372542200,11.130542236328123,-0.5623371005058289,-0.0469018742442131,0.2990325391292572
1758280525382628000,11.140628173828125,-0.4267670214176178,-0.1935712099075317,0.4860426187515259
1758280525392714000,11.1507138671875,-0.3657717108726501,-0.3508903682231903,0.6348419785499573
1758280525402799000,11.160799072265624,-0.3760659098625183,-0.4926640093326568,0.7483056783676147
1758280525412885200,11.17088525390625,-0.4366295635700226,-0.6207709312438965,0.837256133556366
1758280525422971100,11.18097119140625,-0.5101450085639954,-0.7361121773719788,0.900607168674469
1758280525433056000,11.191055908203126,-0.5754343271255493,-0.8485491871833801,0.9428520798683168
1758280525443142100,11.20114208984375,-0.6120802164077759,-0.9349810481071472,0.9598883390426636
1758280525453228000,11.21122802734375,-0.6029239296913147,-0.9747058749198914,0.9431033134460448
1758280525463313200,11.221313232421876,-0.5416322946548462,-0.9607743620872498,0.9173284769058228
1758280525473399000,11.23139892578125,-0.422639787197113,-0.8899469375610352,0.896901547908783
1758280525483485000,11.24148486328125,-0.2490443140268325,-0.7563462257385254,0.8875109553337097
1758280525493570000,11.251570068359374,-0.0332968607544899,-0.5937098860740662,0.8832041621208191
1758280525503656200,11.26165625,0.1890725642442703,-0.4270961582660675,0.8676998019218445
1758280525513741000,11.271740966796877,0.3709029853343963,-0.249604120850563,0.8244648575782776
1758280525523827200,11.2818271484375,0.4843965172767639,-0.0647959187626838,0.7508489489555359
1758280525533913000,11.2919130859375,0.5255604386329651,0.0876064002513885,0.6580098271369934
1758280525543998000,11.301998046875,0.5031952261924744,0.1374011188745498,0.5664706230163574
1758280525554084000,11.312083984375,0.4218659102916717,0.0486005321145057,0.4989520013332367
1758280525564170200,11.322170166015624,0.3052788376808166,-0.1942592561244964,0.4664153754711151
1758280525574255000,11.332255126953124,0.1752509474754333,-0.5395685434341431,0.4653255939483642
1758280525584341000,11.342341064453125,0.0587424375116825,-0.9114153385162354,0.4835099279880523
1758280525594427100,11.35242724609375,-0.0354005731642246,-1.197362780570984,0.4916402697563171
1758280525604512000,11.362511962890624,-0.0982144251465797,-1.319399118423462,0.4821357131004333
1758280525614598100,11.37259814453125,-0.1304614096879959,-1.297122836112976,0.4545376002788543
1758280525624684000,11.38268408203125,-0.1564631760120391,-1.210687279701233,0.4298924207687378
1758280525634769200,11.39276904296875,-0.1878484487533569,-1.119538426399231,0.4235739409923553
1758280525644855000,11.40285498046875,-0.2443120032548904,-1.0408152341842651,0.4296613931655884
1758280525654940200,11.412940185546876,-0.3108621537685394,-0.964614748954773,0.4396573603153229
1758280525665026300,11.4230263671875,-0.3780039250850677,-0.8957315683364868,0.4441642165184021
1758280525675112000,11.43311181640625,-0.4341573119163513,-0.8349085450172424,0.4200836718082428
1758280525685197000,11.443197021484377,-0.4864141345024109,-0.775606632232666,0.3802273273468017
1758280525695283200,11.453283203125,-0.5320383906364441,-0.7270395755767822,0.3187144696712494
1758280525705369000,11.463369140625,-0.5803388357162476,-0.6948781609535217,0.2508334219455719
1758280525715454200,11.4734541015625,-0.6184594035148621,-0.648106575012207,0.1863328963518142
1758280525725540000,11.4835400390625,-0.614805281162262,-0.5792742967605591,0.1216942518949508
1758280525735626000,11.4936259765625,-0.5500611066818237,-0.4909907579421997,0.0556366369128227
1758280525745711000,11.503711181640623,-0.423010766506195,-0.4368231296539306,0.0202903654426336
1758280525755797200,11.51379736328125,-0.2855605185031891,-0.4481276869773865,0.036086943000555
1758280525765883000,11.5238828125,-0.1601141691207885,-0.5397457480430603,0.0971026197075843
1758280525775968000,11.533968017578124,-0.0692577883601188,-0.7101441025733948,0.1736864000558853
1758280525786054100,11.54405419921875,-0.0128219434991478,-0.928899347782135,0.2364376634359359
1758280525796139000,11.554138916015624,0.0047921817749738,-1.1093412637710571,0.2683788537979126
1758280525806225200,11.56422509765625,-0.0158102996647357,-1.1924699544906616,0.2759515345096588
1758280525816311000,11.57431103515625,-0.0572373196482658,-1.1641271114349363,0.2566499412059784
1758280525826396000,11.58439599609375,-0.1136097833514213,-1.056044340133667,0.2177645862102508
1758280525836482000,11.59448193359375,-0.1588489413261413,-0.908808171749115,0.158888041973114
1758280525846568200,11.604568115234375,-0.1915490925312042,-0.7574873566627502,0.0972409322857856
1758280525856653000,11.614653076171876,-0.2147381901741027,-0.6231890320777893,0.0381384789943695
1758280525866739000,11.624739013671874,-0.2351744920015335,-0.5224747061729431,-0.01826673746109
1758280525876825000,11.6348251953125,-0.2685928046703338,-0.4595288932323456,-0.0647433251142501
1758280525886910200,11.64491015625,-0.3264870047569275,-0.4168043434619903,-0.1080527156591415
1758280525896996000,11.65499609375,-0.4117307662963867,-0.374697595834732,-0.1419311016798019
1758280525907082000,11.66508203125,-0.5024462938308716,-0.3155107200145721,-0.1734661161899566
1758280525917167000,11.6751669921875,-0.5830925107002258,-0.2440692335367202,-0.1908468008041381
1758280525927253000,11.6852529296875,-0.6334129571914673,-0.1599021703004837,-0.1938439309597015
1758280525937338000,11.695338134765626,-0.6535470485687256,-0.0776042714715004,-0.1873435229063034
1758280525947424300,11.70542431640625,-0.6432219743728638,-0.0150349028408527,-0.1601782143115997
1758280525957510000,11.715510009765625,-0.6135197281837463,0.0240696221590042,-0.1276604831218719
1758280525967595000,11.725594970703124,-0.5649476647377014,0.0288614481687545,-0.0835478901863098
1758280525977681200,11.73568115234375,-0.5024744272232056,0.0088509889319539,-0.0349260196089744
1758280525987767000,11.74576708984375,-0.4390728175640106,-0.035580925643444,0.0174197405576705
1758280525997852200,11.75585205078125,-0.380248486995697,-0.0921681821346283,0.0718578845262527
1758280526007938000,11.76593798828125,-0.3309954404830932,-0.157044917345047,0.1216286420822143
1758280526018024200,11.776024169921875,-0.2897470891475677,-0.2289153784513473,0.1655926704406738
1758280526028109000,11.786109130859376,-0.25408735871315,-0.2997054159641266,0.1889073103666305
1758280526038195200,11.7961953125,-0.2165167033672332,-0.3518965244293213,0.1808142662048339
1758280526048281000,11.806281005859375,-0.163788765668869,-0.3867368102073669,0.1520569175481796
1758280526058366000,11.816365966796877,-0.0978354290127754,-0.408342957496643,0.135984405875206
1758280526068452000,11.8264521484375,-0.0104507179930806,-0.4051716923713684,0.1496107429265976
1758280526078537000,11.836536865234375,0.1003383323550224,-0.3521448373794555,0.2004146128892898
1758280526088623000,11.846623046875,0.2395121902227401,-0.2282921373844146,0.2726741731166839
1758280526098709000,11.856708984375,0.4121336340904236,-0.0017411713488399,0.3491119742393493
1758280526108793900,11.8667939453125,0.6012079119682312,0.3092294931411743,0.4012114107608795
1758280526118880000,11.8768798828125,0.7445163130760193,0.6249923706054688,0.4252029359340668
1758280526128966100,11.886966064453125,0.8273336887359619,0.8853054642677307,0.4304389655590057
1758280526139051300,11.89705126953125,0.8568073511123657,1.0408036708831787,0.433827668428421
1758280526149137000,11.907136962890624,0.8424838185310364,1.071629762649536,0.4353097081184387
1758280526159223000,11.91722314453125,0.7908187508583069,1.0045838356018066,0.4275555908679962
1758280526169308200,11.92730810546875,0.7154561281204224,0.8842308521270752,0.3976099491119385
1758280526179394000,11.93739404296875,0.6260984539985657,0.7829381227493286,0.3327885270118713
1758280526189480200,11.947480224609375,0.5478063225746155,0.7360984683036804,0.2395723015069961
1758280526199565000,11.95756494140625,0.4987562298774719,0.792399525642395,0.1075936779379844
1758280526209651000,11.96765087890625,0.5050085783004761,0.934295654296875,-0.034266784787178
1758280526219736000,11.977736083984375,0.563886284828186,1.1512892246246338,-0.1841703504323959
1758280526229822200,11.987822265625,0.6660863757133484,1.3929705619812012,-0.3383189141750335
1758280526239908000,11.997908203125,0.7809262275695801,1.6211421489715576,-0.483541339635849
1758280526249993000,12.007992919921875,0.889283299446106,1.8006490468978882,-0.6132205128669739
1758280526260079000,12.0180791015625,0.9554703831672668,1.9285764694213867,-0.72096848487854
1758280526270165200,12.028165283203125,0.9689127206802368,2.0073442459106445,-0.8141003251075745
1758280526280250000,12.03825,0.9409664869308472,2.0544543266296387,-0.8843141198158264
1758280526290336300,12.048336181640623,0.8754931688308716,2.059823751449585,-0.9439492225646972
1758280526300422100,12.058422119140625,0.7956407070159912,2.04368257522583,-0.999718964099884
1758280526310507000,12.068507080078126,0.7146334648132324,1.99462890625,-1.053598403930664
1758280526320593200,12.07859326171875,0.6452078223228455,1.932235598564148,-1.117549180984497
1758280526330679300,12.08867919921875,0.5970059037208557,1.864036202430725,-1.1852773427963257
1758280526340764200,12.09876416015625,0.5799685716629028,1.7996636629104614,-1.255627155303955
1758280526350850000,12.10885009765625,0.5797584652900696,1.7590597867965698,-1.3231353759765625
1758280526360936200,12.118936279296875,0.5970705151557922,1.7431581020355225,-1.3718191385269165
1758280526371020800,12.129020751953124,0.6253988146781921,1.733851432800293,-1.4098695516586304
1758280526381107000,12.13910693359375,0.6545431017875671,1.7444850206375122,-1.4356569051742554
1758280526391191800,12.14919189453125,0.6796833276748657,1.742563247680664,-1.442484736442566
1758280526401277700,12.159277587890625,0.6867341995239258,1.72623872756958,-1.435033679008484
1758280526411363800,12.16936376953125,0.6783138513565063,1.7043994665145874,-1.4153773784637451
1758280526421449000,12.179448974609375,0.6476986408233643,1.6741243600845337,-1.3805557489395142
1758280526431534800,12.189534912109377,0.5934298038482666,1.634276270866394,-1.3371857404708862
1758280526441620700,12.199620849609374,0.5153282880783081,1.5839905738830566,-1.280692458152771
1758280526451705900,12.209705810546875,0.4078848958015442,1.5266942977905271,-1.209821701049805
1758280526461791700,12.219791748046877,0.2829294800758362,1.4836556911468506,-1.132482647895813
1758280526471878000,12.2298779296875,0.136760801076889,1.4087917804718018,-1.0404794216156006
1758280526481963000,12.239962890625,-0.0133725861087441,1.3280118703842163,-0.9487680196762084
1758280526492048600,12.250048583984375,-0.1591771841049194,1.2477604150772097,-0.8553723096847534
1758280526502133800,12.2601337890625,-0.2727287411689758,1.1752378940582275,-0.7762700915336609
1758280526512220000,12.270219970703126,-0.3553003370761871,1.1081593036651611,-0.7034707069396973
1758280526522305800,12.280305908203124,-0.4152572154998779,1.0546119213104248,-0.644054651260376
1758280526532391000,12.290390869140625,-0.4657467603683471,1.0223661661148071,-0.5871562361717224
1758280526542476800,12.300476806640624,-0.5109622478485107,1.0107377767562866,-0.5180385708808899
1758280526552563000,12.31056298828125,-0.5585728883743286,1.0059161186218262,-0.4379511773586273
1758280526562647800,12.320647705078123,-0.5996741652488708,1.0103219747543335,-0.3503610789775848
1758280526572734000,12.33073388671875,-0.6255396008491516,0.98987877368927,-0.2387431859970092
1758280526582819800,12.34081982421875,-0.6184340715408325,0.9011082649230956,-0.122137002646923
1758280526592904700,12.35090478515625,-0.5798834562301636,0.7136465311050415,0.0046150796115398
1758280526602990800,12.360990966796876,-0.5194796919822693,0.4411956071853637,0.1406660974025726
1758280526613077000,12.371076904296874,-0.4532252550125122,0.1496908217668533,0.2814988493919372
1758280526623161900,12.381161865234375,-0.4017458856105804,-0.0987064242362976,0.4294191598892212
1758280526633247700,12.391247802734377,-0.3773585259914398,-0.3087672293186188,0.5764922499656677
1758280526643334000,12.401333984375,-0.3847715556621551,-0.5177804827690125,0.7174171209335327
1758280526653418800,12.411418701171876,-0.4104665517807007,-0.7529040575027466,0.8238727450370789
1758280526663505000,12.4215048828125,-0.4538053274154663,-0.9994301199913024,0.8868678212165833
1758280526673590000,12.431590087890624,-0.4954473078250885,-1.2191979885101318,0.8980672359466553
1758280526683675600,12.441675537109376,-0.5101332068443298,-1.3621104955673218,0.8710414171218872
1758280526693761800,12.45176171875,-0.4760466516017914,-1.3776110410690308,0.8262036442756653
1758280526703847000,12.461846923828125,-0.3696438670158386,-1.2598588466644287,0.7914838790893555
1758280526713932800,12.471932861328124,-0.1668300330638885,-1.029191017150879,0.7883570790290833
1758280526724018700,12.482018798828124,0.1136898919939994,-0.7159156799316406,0.7931572198867798
1758280526734103800,12.492103759765625,0.4073792994022369,-0.3692552447319031,0.7920541167259216
1758280526744189700,12.502189697265624,0.6452041864395142,-0.0279405210167169,0.7948935031890869
1758280526754275800,12.51227587890625,0.7706137299537659,0.2529297769069671,0.7990333437919617
1758280526764361000,12.52236083984375,0.7710486054420471,0.4319599866867065,0.7952842116355896
1758280526774446800,12.53244677734375,0.6713161468505859,0.4701078534126282,0.7829010486602783
1758280526784532700,12.54253271484375,0.5118545889854431,0.4284968376159668,0.7445850968360901
1758280526794617900,12.552617919921875,0.339525431394577,0.3304690718650818,0.6671462655067444
1758280526804704000,12.5627041015625,0.2088703662157058,0.2522811591625213,0.5651071667671204
1758280526814788900,12.572788818359374,0.1562471091747284,0.2310746759176254,0.4643574059009552
1758280526824874800,12.582874755859375,0.1862735748291015,0.2597474753856659,0.4058498442173004
1758280526834961000,12.5929609375,0.2496299147605896,0.283769428730011,0.3884527683258056
1758280526845045800,12.603045654296874,0.2853517532348633,0.2889921069145202,0.3924439251422882
1758280526855132000,12.6131318359375,0.2425132095813751,0.2654526829719543,0.3891559839248657
1758280526865218000,12.623218017578123,0.1390248835086822,0.224181443452835,0.3566148579120636
1758280526875303000,12.633302978515625,0.0005943017313256,0.1808787137269973,0.2833403646945953
1758280526885388800,12.643388916015626,-0.1259525716304779,0.1357254683971405,0.1866676062345504
1758280526895475000,12.653474853515624,-0.199971929192543,0.1063441410660743,0.0960104018449783
1758280526905559800,12.663559814453125,-0.2143446058034896,0.1301235854625702,0.0256970692425966
1758280526915646000,12.67364599609375,-0.1952478736639022,0.2190883457660675,-0.0206453949213027
1758280526925731800,12.68373193359375,-0.155871570110321,0.3352182507514953,-0.0435203723609447
1758280526935816700,12.693816650390623,-0.1186666712164878,0.4916462004184723,-0.0759209170937538
1758280526945902800,12.70390283203125,-0.0947977676987648,0.662520706653595,-0.1162695288658142
1758280526955988000,12.713988037109376,-0.0867819190025329,0.8292593955993652,-0.1730007231235504
1758280526966073900,12.724073974609375,-0.0868287310004234,0.9992765784263612,-0.2364698350429535
1758280526976159700,12.73415966796875,-0.0826726034283638,1.1599154472351074,-0.3023830652236938
1758280526986244900,12.744244873046876,-0.062309842556715,1.3023358583450315,-0.3670993745326996
1758280526996330800,12.754330810546875,-0.028283167630434,1.4090564250946045,-0.4213178753852844
1758280527006417000,12.7644169921875,0.0222894232720136,1.4869304895401,-0.4700837433338165
1758280527016502000,12.774501953125,0.06699750572443,1.5149476528167725,-0.5061549544334412
1758280527026587600,12.784587646484376,0.1068848744034767,1.499086856842041,-0.5338326692581177
1758280527036673800,12.794673828125,0.1381418704986572,1.4468955993652344,-0.5529123544692993
1758280527046759000,12.804759033203124,0.1633888781070709,1.3778228759765625,-0.5750389099121094
1758280527056845000,12.814844970703126,0.1826280802488327,1.2838326692581177,-0.5886511206626892
1758280527066930700,12.8249306640625,0.1993787288665771,1.1677982807159424,-0.5968039035797119
1758280527077015800,12.835015869140625,0.2132391482591629,1.0445191860198977,-0.6002463102340698
1758280527087102000,12.84510205078125,0.2292046844959259,0.9220296144485474,-0.5956286787986755
1758280527097186800,12.855186767578124,0.2441050708293914,0.8107590675354004,-0.5925521850585938
1758280527107273000,12.86527294921875,0.2556714117527008,0.717464029788971,-0.5823003053665161
1758280527117358800,12.87535888671875,0.2650409340858459,0.6540858745574951,-0.5711402893066406
1758280527127443700,12.885443603515624,0.2623898386955261,0.6218708753585815,-0.5652692914009094
1758280527137529900,12.89552978515625,0.2550677359104156,0.621461033821106,-0.5568180084228516
1758280527147616000,12.905615966796876,0.2461192458868026,0.6552615761756897,-0.5443946123123169
1758280527157700900,12.915700927734376,0.2438028305768966,0.6994870901107788,-0.5292295217514038
1758280527167786800,12.925786865234375,0.2344729453325271,0.7579445838928223,-0.5094418525695801
1758280527177873000,12.935872802734377,0.2323807626962661,0.8267396092414856,-0.4878713488578796
1758280527187957800,12.945957763671874,0.2242273986339569,0.901470959186554,-0.4592778384685516
1758280527198044000,12.9560439453125,0.2124983072280883,0.9794267416000366,-0.4244087934494018
1758280527208129800,12.9661298828125,0.2039729803800583,1.0652241706848145,-0.3766857087612152
1758280527218214700,12.976214599609374,0.1905924528837204,1.1671996116638184,-0.330372542142868
1758280527228300800,12.98630078125,0.1755289584398269,1.2875492572784424,-0.2868916392326355
1758280527238386000,12.996385986328123,0.1531983464956283,1.4250141382217407,-0.2556495666503906
1758280527248471800,13.006471923828125,0.1216336488723754,1.55817449092865,-0.2437977343797683
1758280527258557700,13.0165576171875,0.0848458036780357,1.6645853519439695,-0.2388045787811279
1758280527268642800,13.026642822265623,0.0521762929856777,1.7520358562469482,-0.2476093024015426
1758280527278728700,13.036728759765625,0.0305737946182489,1.8083771467208865,-0.2673110961914062
1758280527288814800,13.04681494140625,0.0223882254213094,1.8240858316421509,-0.3008726239204407
1758280527298900000,13.05689990234375,0.0266090705990791,1.7867858409881592,-0.3367986679077148
1758280527308985900,13.06698583984375,0.0599295757710933,1.7069077491760254,-0.3761207163333893
1758280527319071700,13.07707177734375,0.1168072372674942,1.576892971992493,-0.3926030397415161
1758280527329156900,13.087156982421876,0.1963522136211395,1.4247303009033203,-0.3803662061691284
1758280527339243000,13.097242919921875,0.2938486933708191,1.27853524684906,-0.3413551747798919
1758280527349328600,13.10732861328125,0.3794103562831878,1.1774026155471802,-0.2811244428157806
1758280527359413800,13.117413818359376,0.4307326674461365,1.1601918935775757,-0.2175481170415878
1758280527369499400,13.12749951171875,0.4427076876163482,1.2137149572372437,-0.1646608710289001
1758280527379585500,13.13758544921875,0.4248959422111511,1.324943780899048,-0.1296163350343704
1758280527389670700,13.147670654296874,0.391619861125946,1.4902393817901611,-0.1058750301599502
1758280527399756500,13.157756591796876,0.3527984321117401,1.6850725412368774,-0.1040664762258529
1758280527409841700,13.167841552734377,0.3144638836383819,1.869368553161621,-0.113367460668087
1758280527419927600,13.177927490234374,0.2819378972053528,2.035041332244873,-0.1296324580907821
1758280527430013400,13.188013427734376,0.2510791420936584,2.1743645668029785,-0.1537478119134903
1758280527440098600,13.1980986328125,0.2315155565738678,2.292219638824463,-0.1737398952245712
1758280527450184700,13.208184814453125,0.2051799744367599,2.370628833770752,-0.1927287876605987
1758280527460270300,13.218270263671876,0.1606311500072479,2.3849730491638184,-0.2054877132177353
1758280527470355500,13.22835546875,0.0937758386135101,2.333515167236328,-0.2178839445114135
1758280527480441600,13.238441650390625,0.0066140349954366,2.250300645828247,-0.2650938034057617
1758280527490527500,13.248527587890624,-0.100783385336399,2.15938663482666,-0.3456256985664367
1758280527500612600,13.258612548828124,-0.222303956747055,2.070228815078736,-0.4638873636722564
1758280527510698500,13.268698486328123,-0.3537185192108154,1.988840937614441,-0.6111552119255066
1758280527520784600,13.27878466796875,-0.4787392914295196,1.9285142421722408,-0.7626342177391052
1758280527530869500,13.288869384765626,-0.566777765750885,1.8920706510543823,-0.9107055068016052
1758280527540955600,13.29895556640625,-0.5918573141098022,1.8545677661895752,-1.0311697721481323
1758280527551040500,13.30904052734375,-0.5337991714477539,1.8026797771453855,-1.1092969179153442
1758280527561126400,13.31912646484375,-0.3974152207374573,1.7264238595962524,-1.1495788097381592
1758280527571212500,13.329212646484375,-0.2172217965126037,1.623429536819458,-1.138453483581543
1758280527581297400,13.33929736328125,-0.0338817946612834,1.500808596611023,-1.090058207511902
1758280527591383600,13.349383544921874,0.1087821945548057,1.3511627912521362,-1.0081937313079834
1758280527601469400,13.359469482421876,0.1898834407329559,1.1928125619888306,-0.9084365367889404
1758280527611554600,13.369554443359377,0.1988173574209213,1.0295021533966064,-0.8059462308883667
1758280527621640400,13.379640380859374,0.1440145522356033,0.8810091018676758,-0.724698007106781
1758280527631726600,13.3897265625,0.042063295841217,0.7717421650886536,-0.6599975228309631
1758280527641811700,13.399811767578123,-0.0837934389710426,0.7182046175003052,-0.606731653213501
1758280527651897300,13.4098974609375,-0.2178237438201904,0.7217115163803101,-0.5746742486953735
1758280527661983500,13.4199833984375,-0.3345005512237549,0.781334638595581,-0.5571104288101196
1758280527672068600,13.430068603515624,-0.4133912026882171,0.886294424533844,-0.5527056455612183
1758280527682154500,13.440154541015623,-0.4603685736656189,1.029284119606018,-0.565497636795044
1758280527692240400,13.450240478515624,-0.471137672662735,1.194913387298584,-0.5954375267028809
1758280527702325500,13.460325439453126,-0.4626643061637878,1.387783765792847,-0.6375975012779236
1758280527712411400,13.470411376953123,-0.4327905476093292,1.5860322713851929,-0.6852611899375916
1758280527722496500,13.48049658203125,-0.3945904374122619,1.786255121231079,-0.7337365746498108
1758280527732582700,13.490582763671876,-0.3545346856117248,1.9817280769348145,-0.7818208336830139
1758280527742668300,13.500668212890623,-0.3179729580879211,2.1624059677124023,-0.8331413269042969
1758280527752753400,13.51075341796875,-0.2922854125499725,2.311009168624878,-0.8783823251724243
1758280527762839600,13.520839599609374,-0.2744355797767639,2.4283854961395264,-0.9208112955093384
1758280527772925700,13.53092578125,-0.2638881206512451,2.5051045417785645,-0.9511185884475708
1758280527783010600,13.541010498046877,-0.2484061121940612,2.533682584762573,-0.969562828540802
1758280527793096400,13.551096435546874,-0.2290323227643966,2.5093226432800293,-0.9709760546684264
1758280527803182600,13.5611826171875,-0.1952740997076034,2.4429972171783447,-0.9587029218673706
1758280527813267500,13.571267333984377,-0.1482751965522766,2.332647562026977,-0.9322661757469176
1758280527823353600,13.581353515625,-0.097926527261734,2.180391550064087,-0.894432783126831
1758280527833439500,13.591439453125,-0.042691096663475,1.9930808544158936,-0.8457617163658142
1758280527843524400,13.6015244140625,0.0042945207096636,1.778976559638977,-0.7889002561569214
1758280527853610500,13.611610595703125,0.0402531139552593,1.541136622428894,-0.7234976291656494
1758280527863695600,13.621695556640624,0.0694048777222633,1.29421067237854,-0.6638401746749878
1758280527873781500,13.631781494140624,0.0844975188374519,1.0463135242462158,-0.6015301942825317
1758280527883867400,13.641867431640623,0.0996628925204277,0.820939838886261,-0.5480810403823853
1758280527893952500,13.651952392578124,0.1099928021430969,0.6260459423065186,-0.5041661858558655
1758280527904038400,13.662038330078126,0.1123606190085411,0.4672805368900299,-0.4732391238212585
1758280527914124500,13.67212451171875,0.1187438070774078,0.3458099067211151,-0.4432588219642639
1758280527924209700,13.682209716796876,0.1232778429985046,0.2507829964160919,-0.4237913787364959
1758280527934295300,13.69229541015625,0.1218186989426612,0.1708862632513046,-0.4060952365398407
1758280527944381400,13.70238134765625,0.1269961446523666,0.1188494265079498,-0.3876962661743164
1758280527954466600,13.712466552734377,0.1334778815507888,0.0958936884999275,-0.3744032979011535
1758280527964552400,13.722552490234374,0.1536494493484497,0.1039566770195961,-0.3519179821014404
1758280527974638300,13.732638427734376,0.1834042221307754,0.1406565308570861,-0.3038755357265472
1758280527984723500,13.742723388671877,0.231571763753891,0.2035787850618362,-0.2256544828414917
1758280527994809300,13.752809326171874,0.2937557399272918,0.2587755024433136,-0.1248556226491928
1758280528004895500,13.7628955078125,0.3621249496936798,0.2888676226139068,-0.0111554246395826
1758280528014980600,13.772980712890623,0.4279229342937469,0.2837782502174377,0.1071042492985725
1758280528025066500,13.78306640625,0.4705992639064789,0.2699447274208069,0.1891647726297378
1758280528035151400,13.7931513671875,0.4796346426010132,0.2663387358188629,0.2360243201255798
1758280528045237500,13.803237548828124,0.4430928826332092,0.3094694316387176,0.2402789890766143
1758280528055323600,13.81332373046875,0.3812158107757568,0.4287059009075165,0.2264560759067535
1758280528065408500,13.823408447265624,0.3140884339809418,0.6381872296333313,0.1795873641967773
1758280528075494400,13.833494384765626,0.2717956304550171,0.9042060971260072,0.1022128611803054
1758280528085580500,13.84358056640625,0.2850760221481323,1.1863422393798828,0.0157368257641792
1758280528095665400,13.85366552734375,0.3760374784469604,1.43397057056427,-0.044987753033638
1758280528105751600,13.86375146484375,0.5201730132102966,1.6589645147323608,-0.0727807730436325
1758280528115837700,13.873837646484375,0.6658454537391663,1.8658664226531985,-0.0609038919210433
1758280528125922600,13.883922607421876,0.7625887393951416,2.041179656982422,-0.03340595215559
1758280528136008400,13.894008544921874,0.7841607928276062,2.1887831687927246,-0.0080772172659635
1758280528146094600,13.904094482421876,0.732550859451294,2.3230509757995605,-0.0241738948971033
1758280528156179500,13.914179443359377,0.6177568435668945,2.4253780841827397,-0.099458634853363
1758280528166265600,13.924265625,0.4802945852279663,2.472866535186768,-0.2276293933391571
1758280528176351500,13.9343515625,0.3459519743919372,2.4249255657196045,-0.3824296593666076
1758280528186436400,13.944436279296877,0.2356773912906646,2.258946657180786,-0.5321648716926575
1758280528196522500,13.9545224609375,0.1736170798540115,1.9898221492767332,-0.648542582988739
1758280528206607600,13.964607666015626,0.1549925208091735,1.6521131992340088,-0.7060666084289551
1758280528216693500,13.974693603515624,0.1865823566913604,1.304002285003662,-0.7168312072753906
1758280528226779400,13.984779296875,0.2396980375051498,1.0014454126358032,-0.6800106167793274
1758280528236864500,13.994864501953124,0.2955682873725891,0.7760782837867737,-0.6150484681129456
1758280528246950400,14.004950439453124,0.3293259739875793,0.6308560967445374,-0.5413851737976074
1758280528257036500,14.01503662109375,0.3317466974258423,0.5588709712028503,-0.4636798202991485
1758280528267121700,14.02512158203125,0.2891078889369964,0.5558562874794006,-0.3989415764808655
1758280528277207600,14.03520751953125,0.2252704352140426,0.6142935752868652,-0.3532470464706421
1758280528287293400,14.04529345703125,0.1558759212493896,0.7496775388717651,-0.3268958628177643
1758280528297378600,14.055378662109376,0.0906303972005844,0.9534804224967957,-0.3223984241485595
1758280528307464700,14.065464599609374,0.0337708443403244,1.2091856002807615,-0.3351922333240509
1758280528317550300,14.07555029296875,-0.016915176063776,1.490596055984497,-0.3613382279872894
1758280528327635500,14.085635498046877,-0.0676928684115409,1.7787004709243774,-0.3928186595439911
1758280528337721600,14.0957216796875,-0.111325480043888,2.041620969772339,-0.4283986389636993
1758280528347807500,14.105807373046876,-0.1460078358650207,2.258695363998413,-0.4576313495635986
1758280528357892600,14.115892578125,-0.1762557625770568,2.401127815246582,-0.4828740954399109
1758280528367978800,14.125978759765625,-0.1995456367731094,2.47705602645874,-0.5014115571975708
1758280528378064000,14.13606396484375,-0.2275593280792236,2.4664556980133057,-0.510080873966217
1758280528388149800,14.146149658203123,-0.262432336807251,2.400761842727661,-0.5184040665626526
1758280528398236000,14.15623583984375,-0.3033291101455688,2.304208755493164,-0.5353360176086426
1758280528408321000,14.166321044921874,-0.3445585966110229,2.1922507286071777,-0.5589358806610107
1758280528418406700,14.17640673828125,-0.3794185817241668,2.0696043968200684,-0.5840281844139099
1758280528428492800,14.186492919921877,-0.4090188145637512,1.9509508609771729,-0.597017765045166
1758280528438578000,14.196577880859374,-0.4329664707183838,1.8254258632659912,-0.6073761582374573
1758280528448664000,14.2066640625,-0.4468889534473419,1.704704523086548,-0.6034775972366333
1758280528458749700,14.216749755859375,-0.4516415894031524,1.5813218355178833,-0.5830528140068054
1758280528468834800,14.226834716796876,-0.4539912939071655,1.4616377353668213,-0.5518224239349365
1758280528478921000,14.2369208984375,-0.448687195777893,1.3448591232299805,-0.5100318193435669
1758280528489006800,14.2470068359375,-0.4399669468402862,1.2267968654632568,-0.4656180441379547
1758280528499092000,14.257092041015625,-0.422825425863266,1.117680907249451,-0.4194978773593902
1758280528509177900,14.267177734375,-0.3990380764007568,1.010836482048035,-0.3731511533260345
1758280528519263700,14.277263671875,-0.3629673719406128,0.9139643907546996,-0.336115688085556
1758280528529348900,14.287348876953123,-0.3105521202087402,0.8371801376342773,-0.3079192042350769
1758280528539435000,14.29743505859375,-0.2427727580070495,0.7963471412658691,-0.2751096785068512
1758280528549520600,14.307520751953126,-0.1609002649784088,0.7809620499610901,-0.2496983259916305
1758280528559605800,14.317605712890623,-0.0767005011439323,0.793113112449646,-0.227019265294075
1758280528569692000,14.32769189453125,0.0175271965563297,0.8131123781204224,-0.2022561281919479
1758280528579778000,14.337778076171874,0.1003870517015457,0.8160571455955505,-0.1766332983970642
1758280528589863000,14.34786279296875,0.1853799819946289,0.7866132259368896,-0.1426218003034591
1758280528599948800,14.35794873046875,0.261498361825943,0.7091483473777771,-0.1057323291897773
1758280528610033700,14.36803369140625,0.3320716023445129,0.5854586362838745,-0.0592396594583988
1758280528620119800,14.378119873046876,0.3996571898460388,0.4245225489139557,-0.007339505944401
1758280528630206000,14.3882060546875,0.4590747058391571,0.2359577119350433,0.0548104159533977
1758280528640290800,14.398290771484374,0.5205601453781128,0.0286897607147693,0.1229269653558731
1758280528650376700,14.408376708984376,0.5718672871589661,-0.1904580444097519,0.1942429542541504
1758280528660462800,14.418462890625,0.6136529445648193,-0.4094605445861816,0.2726547122001648
1758280528670547700,14.428547607421876,0.6482540369033813,-0.6292045712471008,0.3437214195728302
1758280528680633900,14.4386337890625,0.6639290452003479,-0.8345813155174255,0.4049809873104095
1758280528690719700,14.4487197265625,0.6493626236915588,-1.027378797531128,0.4559096693992615
1758280528700804900,14.458804931640625,0.6055865287780762,-1.186392068862915,0.4905171394348144
1758280528710890800,14.468890869140624,0.5317724943161011,-1.315139889717102,0.5142938494682312
1758280528720977000,14.478976806640626,0.4335463941097259,-1.4127863645553589,0.5225825309753418
1758280528731062000,14.48906201171875,0.3252870142459869,-1.4676862955093384,0.5204927325248718
1758280528741147600,14.499147705078125,0.2278831154108047,-1.42336106300354,0.4951509237289428
1758280528751233800,14.50923388671875,0.1529721319675445,-1.2635871171951294,0.4669909179210663
1758280528761319000,14.51931884765625,0.1316790580749511,-1.0003669261932373,0.4543995559215545
1758280528771404800,14.52940478515625,0.1609863489866256,-0.6636067628860474,0.4606721103191376
1758280528781490700,14.53949072265625,0.2226666212081909,-0.2727664411067962,0.4718656241893768
1758280528791575800,14.549575927734375,0.2695502638816833,0.1387047469615936,0.4666133224964142
1758280528801661700,14.55966162109375,0.2752991020679474,0.5641893148422241,0.4313945770263672
1758280528811747800,14.569747802734376,0.2374606430530548,0.9991703033447266,0.3613734245300293
1758280528821833000,14.5798330078125,0.1849344819784164,1.4163836240768433,0.2609468400478363
1758280528831918800,14.5899189453125,0.1341725140810012,1.7966161966323853,0.1432796120643615
1758280528842004700,14.600004638671876,0.1024881899356842,2.120598316192627,0.0134995635598897
1758280528852089900,14.61008984375,0.09825349599123,2.3764357566833496,-0.1173268929123878
1758280528862176000,14.620176025390624,0.1357522010803222,2.553438425064087,-0.2351045161485672
1758280528872260900,14.6302607421875,0.1980195641517639,2.646458387374878,-0.3154635429382324
1758280528882346800,14.6403466796875,0.2960421144962311,2.66021466255188,-0.3533432185649872
1758280528892433000,14.650432861328126,0.4049126803874969,2.603602170944214,-0.3489090502262115
1758280528902517800,14.660517822265623,0.517484724521637,2.504711151123047,-0.3089110255241394
1758280528912604000,14.67060400390625,0.6005913615226746,2.3747854232788086,-0.2453272640705108
1758280528922689800,14.680689697265626,0.6442286372184753,2.23487401008606,-0.1854646205902099
1758280528932774700,14.690774658203123,0.6381507515907288,2.1089062690734863,-0.1420095562934875
1758280528942860800,14.70086083984375,0.5832545161247253,2.0124104022979736,-0.1177489608526229
1758280528952947000,14.710947021484374,0.5001521706581116,1.958806037902832,-0.1190288737416267
1758280528963031800,14.72103173828125,0.4015710651874542,1.9571177959442136,-0.125940665602684
1758280528973118000,14.731117919921877,0.3109676539897918,1.985425353050232,-0.1371541619300842
1758280528983203800,14.741203857421874,0.2359200417995453,2.041125774383545,-0.1580818146467209
1758280528993288700,14.751288818359376,0.1802831441164016,2.0947840213775635,-0.1839781254529953
1758280529003374800,14.761374755859377,0.1446439772844314,2.143552303314209,-0.2209834158420562
1758280529013461000,14.7714609375,0.1163526847958564,2.180776834487915,-0.2755305469036102
1758280529023545900,14.7815458984375,0.0878131687641143,2.2117161750793457,-0.3321695327758789
1758280529033631700,14.7916318359375,0.0604979246854782,2.245723962783813,-0.398955762386322
1758280529043718000,14.8017177734375,0.0260121393948793,2.2766129970550537,-0.4658331274986267
1758280529053802800,14.811802734375,-0.0143446028232574,2.30142879486084,-0.5250903367996216
1758280529063889000,14.821888916015626,-0.0543844290077686,2.3121578693389893,-0.5818638205528259
1758280529073974800,14.831974853515623,-0.0894950181245803,2.313631057739258,-0.6301504373550415
1758280529084060000,14.842059814453124,-0.113207146525383,2.2951254844665527,-0.6768771409988403
1758280529094145800,14.852145751953126,-0.1242507398128509,2.243844985961914,-0.7237825989723206
1758280529104232000,14.86223193359375,-0.1163478717207908,2.170416593551636,-0.769294798374176
1758280529114317000,14.872317138671876,-0.0853683799505233,2.0746283531188965,-0.8115429282188416
1758280529124402700,14.882402587890626,-0.047603640705347,1.9414992332458496,-0.8480760455131531
1758280529134488800,14.89248876953125,-0.0035123459529131,1.7845386266708374,-0.8726903200149536
1758280529144574000,14.902573974609377,0.0407624095678329,1.5896449089050293,-0.890389084815979
1758280529154659800,14.912659912109374,0.0782759636640548,1.3470807075500488,-0.8872041702270508
1758280529164745700,14.922745849609376,0.1038088724017143,1.0872465372085571,-0.8730305433273315
1758280529174830800,14.932830810546877,0.1142407432198524,0.8128877878189087,-0.8491220474243164
1758280529184916700,14.942916748046876,0.1208859458565712,0.5310272574424744,-0.8105983138084412
1758280529195001900,14.953001953125,0.1205653026700019,0.2868896424770355,-0.7744653224945068
1758280529205088000,14.963087890625,0.1167083233594894,0.0956098735332489,-0.7332764863967896
1758280529215173600,14.973173583984376,0.1132033392786979,-0.0345545150339603,-0.6889085173606873
1758280529225258800,14.9832587890625,0.0984509587287902,-0.1213500425219535,-0.628523051738739
