time,seconds_elapsed,z,y,x
1758278286054887000,42.41688696289062,1.258452247619629,13.32388187637329,7.487716054534911
1758278286064971800,42.4269716796875,2.4396914916992185,11.697770036315918,6.026055941009521
1758278286075057000,42.43705688476562,3.3897406379699704,11.008539233398436,4.681562071228028
1758278286085141800,42.44714184570312,3.8474820678710935,11.142764163970948,3.668365856170654
1758278286095227000,42.45722680664063,4.00295553817749,11.46598138809204,2.938283987426757
1758278286105311700,42.46731176757813,4.106205484771729,11.54244620361328,2.6114754608154294
1758278286115396900,42.47739697265625,4.549581704711914,11.716774011993408,2.673724703979492
1758278286125481700,42.487481689453126,5.103390476226807,12.790723094177244,3.118148387145996
1758278286135566600,42.497566650390624,5.082291574096679,14.42910521774292,3.969287077331543
1758278286145651700,42.50765161132812,4.536563233184814,15.506047052001952,4.7280993659973145
1758278286155736600,42.517736572265626,4.144662348937988,15.453973165893554,5.115062209320068
1758278286165821700,42.52782177734375,4.00340445098877,14.221258586120603,5.118653511810303
1758278286175906600,42.53790649414063,4.144363073730468,12.46271746673584,4.514117592620849
1758278286185991700,42.54799169921875,4.346373838806152,10.94928274230957,3.418770333099365
1758278286196076800,42.55807690429688,4.050689933776855,9.826402163696288,2.1815666252136228
1758278286206162200,42.568162109375,3.3960254173278805,9.080458708953858,0.9867103591918944
1758278286216247300,42.57824731445312,2.702455123901367,8.608950619506835,-0.2510918991088867
1758278286226332200,42.58833227539063,1.993771432495117,8.328080837249756,-1.4221557861328125
1758278286236417300,42.598417236328125,1.4272434646606444,8.195202645111083,-2.40063607711792
1758278286246502100,42.60850219726562,1.0836755264282223,8.231564582824706,-3.008613661193848
1758278286256587300,42.61858715820313,0.6830956611633301,8.53562819366455,-3.0659248634338376
1758278286266672400,42.62867236328125,0.3229179489135742,9.160664464569091,-2.541594699859619
1758278286276757200,42.63875732421875,-0.0794575675964355,10.05594624786377,-1.553387964630127
1758278286286842400,42.64884228515625,-0.5957073005676269,10.927585289764403,-0.3380313468933105
1758278286296927200,42.65892724609375,-1.0654197387695312,11.348066956329346,0.9096469932556152
1758278286307012400,42.669012451171874,-1.3551181396484375,11.003451554870605,1.8198925369262693
1758278286317097200,42.67909716796875,-1.409137314605713,10.171316840362548,2.1664532272338866
1758278286327182300,42.68918237304688,-1.337460902404785,9.298031784820555,1.9747674568176268
1758278286337267200,42.69926708984375,-1.2648866645812988,8.60670605545044,1.5095441467285156
1758278286347352300,42.70935229492188,-1.2232874107360838,8.115894715118408,1.0494085151672363
1758278286357437400,42.7194375,-1.2159551681518554,7.749432223510742,0.6615478462219238
1758278286367522300,42.72952221679687,-1.258302610015869,7.359177352905273,0.4177881896972656
1758278286377607400,42.739607421875,-1.123030216217041,6.9707181335449215,0.3705027069091797
1758278286387692300,42.7496923828125,-1.0506056159973145,6.58884296875,0.4531026641845703
1758278286397777400,42.75977734375,-1.0579378585815429,6.230610545349121,0.6069301208496093
1758278286407862300,42.7698623046875,-1.1547533882141112,5.945850185394287,0.7990648040771484
1758278286417947400,42.77994750976563,-1.2439374000549317,5.811625254821777,1.0034697708129885
1758278286428032300,42.7900322265625,-1.4272434646606444,5.832125606536865,1.1231798538208009
1758278286438117400,42.80011743164062,-1.3977648567199703,6.049249769592285,1.259050798034668
1758278286448202500,42.81020239257813,-1.3233949676513672,6.535272706604004,1.4425065002441406
1758278286458287400,42.82028735351562,-1.279401512145996,7.273584643554687,1.8171990600585937
1758278286468372200,42.83037231445312,-1.20024321975708,8.153753028869628,2.418891864776611
1758278286478457000,42.84045703125,-0.995987890625,8.97047507019043,3.148075907897949
1758278286488542200,42.85054223632813,-0.8098387115478515,9.776273566436767,3.988590328216553
1758278286498627000,42.860626953125,-0.5511152946472168,10.55304236755371,4.69233597869873
1758278286508712200,42.870712158203126,-0.1096843635559082,11.021408067321778,5.181950218200683
1758278286518797000,42.880797119140624,0.5217863243103027,11.220426080322264,5.724087256622314
1758278286528882200,42.89088208007813,1.1387421646118163,11.347468405914306,6.291812325286865
1758278286538967300,42.90096728515625,1.8050784141540528,11.502343325805665,6.8016276412963865
1758278286549052200,42.91105224609375,2.5993548149108885,11.757625077819824,7.491307357025146
1758278286559137300,42.92113720703125,3.268234903717041,12.067225279998778,8.11409906387329
1758278286569222100,42.93122216796875,3.819050923156738,12.371737803649902,8.22946965637207
1758278286579307300,42.94130737304688,4.046948993682861,12.54561669921875,7.659350386047363
1758278286589392100,42.95139208984375,3.899406316375732,12.36650048751831,6.374711557769775
1758278286599477200,42.96147729492188,3.8607998146057128,12.054805358886718,4.504391148376465
1758278286609562000,42.97156201171875,3.738695529937744,11.922226441955566,2.3600842864990232
1758278286619647200,42.98164721679687,3.237259919738769,11.88736088027954,0.3761889358520507
1758278286629732400,42.991732421875,2.583343591308594,11.727547919464111,-1.0791863983154295
1758278286639817200,43.00181713867188,2.0573674140930174,11.449072338867186,-1.818845073699951
1758278286649902300,43.01190234375,1.5707459266662598,11.181669940948488,-1.9378069686889647
1758278286659987200,43.0219873046875,1.020827732849121,11.109694253540038,-1.661127039337158
1758278286670072300,43.032072265625,0.3896563201904297,11.1842137802124,-1.3039420791625975
1758278286680157200,43.0421572265625,-0.2377741523742675,11.33205573272705,-0.9555857376098632
1758278286690242300,43.0522421875,-0.6765116065979003,11.061810220336913,-0.716913759613037
1758278286700327200,43.0623271484375,-0.5345055206298828,10.39233158111572,-0.296881005859375
1758278286710412300,43.07241235351562,-0.014664485168457,9.654318919372558,0.3009212211608886
1758278286720497400,43.08249731445313,0.6634931350708008,9.006238457489014,0.8174702293395996
1758278286730582300,43.09258227539063,1.2605471740722656,8.404994565582275,1.223885961151123
1758278286740667400,43.10266748046875,1.6593313880920408,7.77621735458374,1.2835913650512694
1758278286750752300,43.11275219726563,1.9238906715393065,7.153724922943115,1.2126631408691406
1758278286760837400,43.12283740234375,2.0376152503967284,6.72920304107666,1.304989542388916
1758278286770922200,43.13292211914062,2.080710880279541,6.762721864318848,1.5358803649902344
1758278286781007400,43.14300732421875,2.109441300201416,7.361721192169189,1.582716934967041
1758278286791092200,43.15309228515625,2.0178630867004395,8.371026829528809,1.261444999694824
1758278286801177300,43.16317724609375,1.710357810974121,9.472658868408203,0.7246949150085449
1758278286811262500,43.17326245117187,1.3215993164062498,10.503512320709229,0.1159691429138183
1758278286821347300,43.18334741210938,0.9096469932556152,11.475408557128906,-0.3916016090393066
1758278286831432400,43.19343237304688,0.5702689079284667,12.42351241455078,-0.7541735229492187
1758278286841517300,43.20351733398437,0.2531868255615234,13.346327516937254,-0.958877764892578
1758278286851602400,43.2136025390625,-0.0294786079406738,14.17397310333252,-1.0527005424499511
1758278286861687300,43.223687255859375,-0.1610100616455078,14.791078581237793,-0.969053121948242
1758278286871772400,43.2337724609375,-0.167893391418457,14.993238983917236,-0.6450877098083496
1758278286881857300,43.24385717773438,-0.1566705711364746,14.765041638183591,-0.1238999359130859
1758278286891942100,43.253942138671874,-0.1725321571350097,14.170082525634763,0.4302081108093261
1758278286902027300,43.26402734375,-0.1623568000793457,13.243676120758057,0.8467991996765136
1758278286912112000,43.27411206054688,-0.0740706138610839,12.131419812011718,1.0173860679626463
1758278286922197200,43.284197265625,0.0366612129211425,11.068094999694823,1.0658686515808105
1758278286932282000,43.2942822265625,0.172981069946289,10.168773001098632,0.9865607215881348
1758278286942367200,43.3043671875,0.330699104309082,9.421033895111083,0.8789712844848633
1758278286952452000,43.3144521484375,0.5348047958374023,8.757091847229004,0.8607154968261719
1758278286962537200,43.324537109375,0.773776049041748,8.213458432769775,0.9988310050964356
1758278286972622000,43.3346220703125,0.7698854713439941,7.706336593627929,1.186177285003662
1758278286982707200,43.34470727539063,0.8903437423706054,7.261164722442627,1.3754688537597657
1758278286992792300,43.35479223632812,0.8575731071472168,6.884676511383057,1.5459060844421386
1758278287002877200,43.36487719726563,0.75971011428833,6.514024166870117,1.6831237670898436
1758278287012962300,43.37496240234375,0.8595183959960937,6.245723943328857,1.8351555725097652
1758278287023047200,43.38504711914062,0.7978677032470702,6.148758776092529,2.003946789550781
1758278287033132300,43.39513232421875,0.4312555740356445,6.184671800994873,2.1193173820495605
1758278287043217200,43.405217041015625,0.2048538795471191,6.33999563369751,2.238728189849853
1758278287053302300,43.41530224609375,0.007631517791748,6.533776330566406,2.4616882194519043
1758278287063387100,43.42538720703125,-0.3800795135498047,6.608295857238769,2.64289935760498
1758278287073472300,43.43547216796875,-0.7068880401611328,6.719476596832275,2.842964833831787
1758278287083557400,43.44555737304688,-0.9593266777038574,6.781576202392578,3.088669779205322
1758278287093643300,43.45564331054688,-1.2339116806030272,6.745064627075195,3.2529718681335447
1758278287103728400,43.46572827148437,-1.2589011604309082,6.6976295066833496,3.219004132080078
1758278287113813200,43.47581323242188,-0.9629179801940916,6.760477300262451,3.1543606872558594
1758278287123898400,43.4858984375,-0.4469675224304199,7.100005023193359,3.2213983337402343
1758278287133983500,43.4959833984375,0.0620996055603027,7.759906855773925,3.488950369262695
1758278287144068400,43.506068359375,0.5568015235900878,8.461108666992187,4.125957648468018
1758278287154153500,43.51615356445313,0.9560346504211426,8.968679418945312,5.077503170776367
1758278287164238300,43.52623828125,1.3654431343078612,9.150938020324707,6.116885966491699
1758278287174323200,43.5363232421875,2.054673937225341,8.834155213165282,6.824522194671631
1758278287184408000,43.546407958984375,3.164835319519043,8.13370158996582,6.855048265838622
1758278287194493200,43.5564931640625,4.291456838226318,7.721449991607666,6.6141317237854
1758278287204578000,43.566578125,4.840177931213379,8.128464273834227,6.667402710723876
1758278287214663000,43.57666284179688,5.048174200439453,9.187898508453369,6.678924806213378
1758278287224748000,43.586748046875,4.898835871887207,10.59718546066284,6.411971321105956
1758278287234833000,43.5968330078125,4.693981992340087,11.767501159667969,6.038026949310303
1758278287244918000,43.60691796875,4.758176524353027,12.27731647567749,5.538237352752685
1758278287255003000,43.6170029296875,4.992957924652099,12.32759471054077,4.957643450164794
1758278287265088000,43.627087890625,5.316025511169434,12.377723307800292,4.718672196960449
1758278287275172900,43.6371728515625,5.428253713989258,12.770671655273436,5.089025266265869
1758278287285258000,43.647258056640624,5.261108510589599,13.316549633789062,5.761945570373535
1758278287295342800,43.6573427734375,4.986673145294189,13.408277484893798,6.133944653320312
1758278287305428000,43.667427978515626,4.789899696350098,12.74194123535156,5.781099183654785
1758278287315513000,43.67751318359375,4.6651019348144525,11.506084265899656,4.662857370758056
1758278287325598000,43.68759790039063,4.517409619903564,10.225485652923584,3.2104747886657714
1758278287335683000,43.69768310546875,4.227262306213379,9.240870220184323,1.7910124794006346
1758278287345768000,43.70776782226562,3.7193922790527343,8.735693669891356,0.5559036979675293
1758278287355853000,43.71785302734375,3.1337106979370115,8.773103070831299,-0.2988262947082519
1758278287365938000,43.72793798828125,2.63676421585083,9.24446152267456,-0.7644985176086425
1758278287376023000,43.73802294921875,2.311900978088379,9.962273107910155,-0.854879630279541
1758278287386108000,43.74810791015625,2.0298340950012204,10.71255605316162,-0.5234323379516601
1758278287396193000,43.75819311523438,1.6660650802612305,11.315146683502196,0.1744774459838867
1758278287406278100,43.76827807617188,1.21296241607666,11.645995425415038,1.0447697494506836
1758278287416363000,43.77836303710937,0.7604583023071289,11.714379810333252,1.8543091857910157
1758278287426448100,43.7884482421875,0.3101987525939941,11.49770456008911,2.50253928527832
1758278287436533000,43.79853295898437,-0.0508767852783203,11.04564935913086,2.851643814849853
1758278287446618000,43.8086181640625,-0.2825157958984375,10.41253265762329,3.006369097137451
1758278287456703000,43.81870288085938,-0.4260182579040527,9.748291334533691,2.946214780426025
1758278287466788000,43.8287880859375,-0.4791396072387695,9.007285920715333,2.7334301078796384
1758278287476873000,43.838873046875,-0.5276221908569335,8.262988479614258,2.531868255615234
1758278287486958000,43.8489580078125,-0.5440823272705078,7.613710916900635,2.411260346984863
1758278287497043200,43.85904321289063,-0.5725134719848632,7.076811194610595,2.296189029693603
1758278287507128000,43.86912817382812,-0.6558616172790527,6.555773058319091,2.199523137664795
1758278287517213200,43.87921313476563,-0.7457938171386719,6.082319680023193,2.1341315048217773
1758278287527298000,43.889298095703126,-0.8336310905456542,5.727678559112548,2.0774188529968263
1758278287537383200,43.89938305664062,-0.948702407836914,5.411793577575684,1.9645920997619628
1758278287547468000,43.90946801757813,-0.9644143562316894,5.205443321990966,1.8365023109436036
1758278287557553200,43.91955322265625,-0.8604162216186523,5.1617491416931145,1.7510592391967772
1758278287567638000,43.92963793945312,-0.6877344268798827,5.402665683746338,1.8453309295654297
1758278287577723100,43.93972314453125,-0.6696282768249512,5.847239004516601,2.028188081359863
1758278287587808300,43.94980834960938,-0.4414309310913085,6.595726298522949,2.369960368347168
1758278287597893000,43.95989306640625,-0.2811690574645996,7.546822908020019,2.8526912780761715
1758278287607978000,43.96997802734375,0.0451905563354492,8.68885709991455,3.5275568710327145
1758278287618062800,43.98006274414063,0.2730886268615722,10.005518375396727,4.266467358398438
1758278287628148000,43.99014794921875,0.5593453628540038,11.241674620056152,5.002834006500244
1758278287638232800,44.00023291015625,0.8877999031066894,12.14294190750122,5.546018508148193
1758278287648318000,44.01031787109375,1.5243582695007325,12.581828999328613,5.853673421478272
1758278287658402800,44.02040283203125,2.4447791702270507,12.65335577392578,5.960514670562744
1758278287668488000,44.03048803710937,3.202992908477783,12.579734072875976,5.926247659301757
1758278287678573000,44.04057299804688,3.765929573822021,12.43009646911621,5.854720884704589
1758278287688658000,44.05065795898437,4.197634060668945,12.22569150238037,5.520580115509033
1758278287698743000,44.06074291992188,4.524592224884033,11.941679330444336,4.803815993499756
1758278287708828000,44.070827880859376,4.7286979164123535,11.56788459625244,3.749619075012207
1758278287718913000,44.0809130859375,4.635623326873779,11.098471433258055,2.4390929412841795
1758278287728998000,44.09099780273438,4.492719415283203,10.678289041900634,0.9961375282287596
1758278287739083000,44.1010830078125,4.306270960998535,10.411036281585693,-0.4613327323913574
1758278287749167900,44.11116796875,3.877110313415527,10.32275009536743,-1.6392799491882324
1758278287759253000,44.1212529296875,3.2851439529418944,10.443358003997805,-2.41320563583374
1758278287769338000,44.13133813476563,2.572270408630371,10.74427922515869,-2.945017679595947
1758278287779423000,44.141423095703125,2.01741417388916,11.289259378051756,-3.2583588218688964
1758278287789508000,44.15150805664062,1.546205359649658,11.972504676818849,-3.4488474914550777
1758278287799593000,44.16159301757813,0.9370306747436524,12.342109558105468,-3.671508245849609
1758278287809678000,44.171677978515625,0.5753565864562988,12.31532442703247,-3.679139763641357
1758278287819763000,44.18176293945312,0.471807364654541,11.831695691680908,-3.622576749420166
1758278287829848000,44.19184814453125,0.5559036979675293,11.10176346054077,-3.3904888259887693
1758278287839933000,44.201932861328125,0.8396165946960449,10.270676209259031,-2.851194902038574
1758278287850018000,44.21201806640625,1.1701660614013671,9.374496600341796,-2.075174288940429
1758278287860103200,44.22210327148437,1.386093123626709,8.488193073272704,-1.339555828857422
1758278287870188000,44.23218798828125,1.513584362030029,7.741202155303955,-0.608426496887207
1758278287880273200,44.242273193359374,1.589001714324951,7.212831776428223,0.0718260498046875
1758278287890358000,44.25235791015625,1.7247230209350586,7.036109766387939,0.5828384666442871
1758278287900443100,44.262443115234376,1.8809446792602535,7.255179218292236,0.8882488159179687
1758278287910528000,44.272528076171874,2.0081366424560545,7.86510209121704,0.930895532989502
1758278287920613000,44.28261303710938,1.9455881240844728,8.713547304534911,0.7647977928161621
1758278287930698000,44.29269799804688,1.720383530426025,9.670629418182372,0.5295674797058105
1758278287940783000,44.302783203125,1.3844471099853517,10.607959368133544,0.3266588890075683
1758278287950868200,44.3128681640625,1.0274117874145507,11.435904229736328,0.2539350135803223
1758278287960953000,44.322953125,0.6587047317504883,12.044181089019776,0.2805705070495605
1758278287971038200,44.3330380859375,0.3432686630249023,12.332682389068603,0.3694552436828613
1758278287981123000,44.343123046875,0.1375169578552246,12.237063960266113,0.4638765716552734
1758278287991208200,44.35320825195313,-0.0305260711669921,11.851298217773437,0.5660790550231933
1758278288001293000,44.36329296875,-0.1779191108703613,11.246313385772703,0.5906196220397949
1758278288011378200,44.37337817382812,-0.2937386161804199,10.512340939331054,0.5003881469726562
1758278288021463000,44.38346313476563,-0.3202244720458984,9.810091664886476,0.3682581428527832
1758278288031548000,44.3935478515625,-0.2644096458435058,9.18041662826538,0.2787748558044433
1758278288041633000,44.40363305664062,-0.2882020248413086,8.651896611785888,0.2135328605651855
1758278288051718000,44.4137177734375,-0.340275910949707,8.202085974884033,0.2446574821472167
1758278288061803000,44.42380297851562,-0.3589806114196777,7.818864071655273,0.3687070556640625
1758278288071888000,44.43388793945312,-0.2840121719360351,7.4956468475341795,0.5948094749450683
1758278288081973000,44.44397290039063,-0.2789244934082031,7.203404607391357,0.8369231178283691
1758278288092057900,44.45405786132813,-0.1900397567749023,7.005134782409668,1.07888712310791
1758278288102143000,44.46414306640625,-0.1857002662658691,6.873154415893555,1.2886790435791016
1758278288112227800,44.474227783203126,-0.1554734703063964,6.835296102142333,1.448492004394531
1758278288122313000,44.48431298828125,-0.20425532913208,6.937648223114013,1.6213234367370604
1758278288132398000,44.49439819335937,-0.2962824554443359,7.163451367187499,1.7357962036132812
1758278288142483000,44.50448291015625,-0.2051531547546386,7.660547486877441,1.86418526763916
1758278288152568000,44.514568115234376,-0.2503437110900878,8.479663729858398,2.048089882659912
1758278288162653000,44.52465283203125,-0.5210381362915039,9.501987838745116,2.3581389976501463
1758278288172738000,44.53473803710938,-0.6830956611633301,10.564414825439451,3.021183219909668
1758278288182823000,44.54482299804688,-0.6510732139587402,11.439944445037842,3.9649475868225097
1758278288192908000,44.55490795898437,-0.4055179061889648,11.54364330444336,4.484339709472656
1758278288202992600,44.56499267578125,-0.0139162971496582,10.830620122528076,4.18805725402832
1758278288213077500,44.57507739257812,0.2980781066894531,10.295366413879394,3.717746265411377
1758278288223162600,44.58516259765625,0.4468178848266601,10.398616360473632,3.4389714096069333
1758278288233247700,44.59524780273438,0.6003460662841796,10.64881043395996,3.1575030769348142
1758278288243332600,44.60533251953125,0.7267898414611816,10.733505317687989,2.8872575645446776
1758278288253417700,44.61541772460937,0.6419453201293945,10.68038396835327,2.725050402069092
1758278288263502600,44.62550268554688,0.9138368461608888,10.469394947052,2.450315761566162
1758278288273587700,44.635587646484375,1.432780055999756,10.29805989074707,2.348262915802002
1758278288283672600,44.64567260742187,1.5951368560791015,10.427197142791748,2.5745149726867678
1758278288293757700,44.6557578125,1.6186299598693847,10.842291855621337,2.8841151748657223
1758278288303842600,44.66584252929688,1.5898995399475098,11.343727465820312,3.397821068572998
1758278288313927700,44.675927734375,0.9913491249084472,11.70315699005127,3.74153864440918
1758278288324012800,44.6860126953125,0.4110544975280761,12.060491587829588,3.841496563720703
1758278288334097700,44.69609765625,0.2582745040893554,12.448950807189942,3.799149121856689
1758278288344182800,44.70618286132813,0.6203975051879882,12.71784958114624,3.401711646270752
1758278288354267600,44.716267578125,1.3997101455688477,12.879907106018065,2.8827684364318844
1758278288364352800,44.726352783203126,2.188898867797852,13.054085276794432,2.488622988128662
1758278288374437600,44.73643774414062,2.775927187347412,13.293804718017578,2.4768016174316405
1758278288384522800,44.74652270507813,3.0430303100585934,13.270910164642332,2.7768250129699705
1758278288394607600,44.756607666015626,3.140294752502441,12.491148611450194,2.9617770912170407
1758278288404692700,44.76669262695312,3.5057097808837887,11.152041695404051,2.70065947265625
1758278288414777900,44.77677783203125,4.069993184661865,9.9078050201416,2.032527571868896
1758278288424862700,44.78686279296875,4.428225608062744,9.062202921295166,1.1742062767028807
1758278288434947800,44.79694775390625,4.430021259307861,8.698882819366455,0.245106394958496
1758278288445032700,44.80703271484375,4.035576535797119,8.89386061706543,-0.5283703788757323
1758278288455117800,44.81711791992188,3.355922539520264,9.594164602661133,-0.9111433692932128
1758278288465202700,44.82720263671875,2.594416773986816,10.478373203277588,-0.8485948509216308
1758278288475287600,44.83728759765625,1.930474726104736,11.187505807495116,-0.4644751220703125
1758278288485372400,44.847372314453125,1.3441945945739746,11.578209590911865,0.086191259765625
1758278288495457500,44.85745751953125,0.8608651344299316,11.618611743927,0.7428010650634765
1758278288505542700,44.86754272460937,0.5568015235900878,11.398195553588868,1.381603995513916
1758278288515627500,44.87762744140625,0.4728548278808593,10.943596513366698,1.7751508934020994
1758278288525712600,44.88771264648437,0.3773860366821289,10.26528925552368,1.8134581199646
1758278288535797500,44.89779760742187,0.4905120651245117,9.431209252166749,1.6838719551086423
1758278288545882600,44.907882568359376,0.7773673515319823,8.639177415466309,1.5466542724609371
1758278288555967500,44.91796752929688,0.9368810371398926,7.9563810295104975,1.5164274765014647
1758278288566052600,44.92805249023438,0.960823053741455,7.341370478057861,1.5913959159851074
1758278288576137500,44.93813745117188,0.8668506385803222,6.851756238555907,1.7319056259155272
1758278288586222600,44.94822265625,0.6395511184692383,6.431274571990967,1.8576012130737305
1758278288596307700,44.9583076171875,0.4469675224304199,6.157288119506836,1.843984191131592
1758278288606392600,44.968392578125,0.3669114044189452,5.978171907806396,1.642123063659668
1758278288616477700,44.978477783203125,0.3874117561340331,5.917419040679931,1.3473369842529297
1758278288626562600,44.9885625,0.4206313041687011,5.918915416717529,0.937180312347412
1758278288636647700,44.99864770507813,0.3893570449829101,5.991190379333496,0.45325230178833
1758278288646732500,45.008732666015625,0.4083610206604003,6.159532683563232,-0.0137666595458984
1758278288656817700,45.01881762695312,0.4071639198303222,6.4743702018737785,-0.4348468765258789
1758278288666902500,45.02890258789063,0.1816600509643554,6.813299374389648,-0.7490858444213867
1758278288676987600,45.038987548828125,-0.0122702835083007,7.143399928283691,-1.0064625228881836
1758278288687072800,45.04907275390625,-0.05102642288208,7.530213134002685,-1.12362876663208
1758278288697157600,45.05915771484375,-0.1526303558349609,7.933785751342773,-1.1456254943847657
1758278288707242800,45.06924267578125,-0.2469020462036132,8.368782265472412,-1.1373954261779784
1758278288717327600,45.07932763671875,-0.3046621612548827,8.77175633239746,-1.1420341918945311
1758278288727412700,45.08941284179687,-0.2977788314819335,9.145850341796876,-1.1897685874938964
1758278288737497600,45.09949755859375,-0.1889922935485839,9.505579141235351,-1.2511200050354003
1758278288747582700,45.109582763671874,0.0193032508850097,9.849895267486572,-1.2381015335083008
1758278288757667600,45.11966748046875,0.3829226280212402,10.153659603118896,-1.1367968757629394
1758278288767752700,45.12975268554688,0.9074024291992188,10.536731868743896,-0.8421604339599609
1758278288777837800,45.139837890625,1.3997101455688477,10.86009873046875,-0.6275801101684569
1758278288787922700,45.14992260742188,1.8314146324157716,11.048342835998534,-0.388159944152832
1758278288798007800,45.1600078125,2.295590479278564,11.01242981109619,0.1864484542846679
1758278288808092700,45.1700927734375,2.8892028533935545,10.790816519927978,0.9041104019165038
1758278288818177800,45.180177734375,3.5869629997253414,10.481216317749023,1.5439607955932615
1758278288828262700,45.1902626953125,4.242375704193115,10.149170475006104,1.7536030784606933
1758278288838347800,45.20034765625,4.710142853546143,9.862015913391112,1.520168416595459
1758278288848432600,45.2104326171875,4.716277995300293,9.623343935394288,1.1827356201171877
1758278288858517800,45.22051782226563,4.233547085571288,9.434800554656984,0.9223661895751952
1758278288868603000,45.230602783203125,3.513341298675537,9.472808506011962,0.963366893005371
1758278288878687700,45.24068774414062,2.7536311843872068,9.73572177581787,1.196502279663086
1758278288888772600,45.25077270507813,2.2354361625671384,10.152312864685058,1.4233528869628906
1758278288898857500,45.260857421875,1.925387047576904,10.501267756652831,1.5623662208557128
1758278288908942600,45.27094262695312,1.8071733406066892,10.45622683792114,1.5978303329467771
1758278288919027500,45.28102734375,1.8300678939819333,9.862764101409912,1.5032593673706054
1758278288929112600,45.29111254882813,1.981052236175537,8.900145396423339,1.284489190673828
1758278288939197400,45.30119750976562,2.257283252716064,7.817816608428955,1.0646715507507325
1758278288949282600,45.31128247070313,2.5062802253723144,6.9330094573974606,0.8135796516418456
1758278288959367700,45.32136767578125,2.66220260848999,6.487239035797119,0.5140051689147949
1758278288969452500,45.33145263671875,2.8112416618347167,6.696432405853271,0.2156277870178222
1758278288979537700,45.34153759765625,2.7974750022888184,7.709030070495605,-0.1167173309326171
1758278288989622500,45.35162255859375,2.530970429992676,9.369708197021485,-0.3724479957580566
1758278288999707600,45.36170776367187,1.9704279663085935,11.40373214492798,-0.5487210929870605
1758278289009792500,45.37179248046875,1.1218331153869627,13.472920929718017,-0.6310217750549316
1758278289019877600,45.38187768554688,0.0113724578857421,15.155745421600342,-0.6181529411315918
1758278289029962500,45.39196240234375,-0.9307458953857422,16.45220562057495,-0.5198410354614258
1758278289040047600,45.40204760742188,-1.586757150268555,17.351677256774902,-0.3799298759460449
1758278289050132700,45.4121328125,-1.9047370582580565,17.86972264099121,-0.1752256340026855
1758278289060217600,45.42221752929687,-1.7643769859313965,17.966238895416257,0.0547673629760742
1758278289070302700,45.432302734375,-1.3465887962341307,17.731906407928467,0.1283890640258789
1758278289080387600,45.4423876953125,-0.8108861747741699,17.133505630493165,0.0282815071105957
1758278289090472700,45.45247265625,0.0987608184814453,16.232387980651854,-0.1162684181213378
1758278289100557600,45.4625576171875,1.25126964263916,15.121179135131834,-0.2403179916381835
1758278289110642700,45.472642578125,1.856703387451172,14.101698140716552,-0.2358288635253906
1758278289120727600,45.4827275390625,2.2281039199829102,13.085209898376464,-0.4945522804260253
1758278289130812700,45.49281274414062,1.8282722427368163,11.673229469299317,-0.7178115852355956
1758278289140897800,45.50289770507813,0.996586441040039,9.972897377777098,-0.7612064903259277
1758278289150982700,45.51298266601562,0.436642527770996,8.384344576263427,-0.5003881469726562
1758278289161067800,45.52306787109375,0.0610521423339843,7.1029977752685545,0.0570119270324707
1758278289171152600,45.53315258789063,-0.1327285545349121,6.297498554229736,0.5163993705749511
1758278289181237800,45.54323779296875,-0.321720848083496,5.857414361572265,0.8303390632629394
1758278289191322600,45.55332250976563,-0.3220201232910156,5.500528676605224,1.0443208366394043
1758278289201407700,45.56340771484375,-0.2371756019592285,5.09471149520874,1.1565490394592284
1758278289211493400,45.57349340820313,-0.2816179702758788,4.722263499450683,1.1876736610412597
1758278289221578200,45.583578125,-0.2753331909179687,4.415506411743164,1.2081740127563476
1758278289231663000,45.5936630859375,-0.1669955657958984,4.129548950958252,1.2729670951843262
1758278289241748200,45.60374829101563,-0.1071405242919921,3.84314257736206,1.4074913009643557
1758278289251833000,45.6138330078125,-0.1876455551147461,3.744381758880615,1.6298527801513671
1758278289261918200,45.62391821289062,-0.1936310592651367,3.8084266532897946,1.9192519058227535
1758278289272003300,45.63400341796875,-0.1063923362731933,4.213794921875,2.271947737884521
1758278289282088200,45.64408813476562,-0.1674444786071777,5.04996985168457,2.693027954864502
1758278289292173300,45.65417333984375,-0.1984194625854492,6.4743702018737785,3.220201232910156
1758278289302258200,45.66425805664063,-0.1575683967590332,8.745420114135742,4.029441394042968
1758278289312343300,45.67434326171875,-0.289848038482666,11.675773308563231,5.231779540252686
1758278289322428200,45.68442822265625,-0.7414543266296386,13.703213201904296,5.914725563812255
1758278289332513300,45.69451318359375,-1.1311106468200682,13.102567860412597,5.628618465423584
1758278289342598100,45.70459814453125,-1.208024375152588,11.208604709625243,5.3028574020385735
1758278289352683300,45.71468334960937,-0.3871124809265136,10.3559696434021,4.924423902130127
1758278289362768400,45.72476831054688,0.814627114868164,10.681730706787109,4.515464331054687
1758278289372853200,45.734853271484376,1.808220803833008,11.566986770629882,4.7207671234130855
1758278289382938400,45.7449384765625,1.4226046989440917,11.88137537612915,5.316773699188232
1758278289393023200,45.75502319335938,0.2542342887878417,11.26890866394043,5.366303746032714
1758278289403108400,45.7651083984375,0.4786906944274902,10.527903250122067,4.699368946075439
1758278289413193200,45.77519311523437,1.6787842765808103,10.13854620513916,3.4674025543212887
1758278289423278300,45.7852783203125,2.2067057426452634,10.083329929351804,1.9274819740295408
1758278289433363200,45.79536328125,2.1844097396850586,10.38694462738037,0.8182184173583984
1758278289443448300,45.8054482421875,2.286911498260498,11.023502993774413,0.6866869636535644
1758278289453533400,45.81553344726562,2.357241172027588,12.118999890899657,1.4634557647705078
1758278289463618300,45.82561840820313,2.3000796073913574,13.41336516342163,2.7436054649353028
1758278289473703400,45.835703369140624,2.235286524963379,14.18624338684082,3.997119671630859
1758278289483788300,45.84578833007812,2.4919150154113767,13.798981268310548,4.738873273468017
1758278289493873400,45.85587329101563,3.302501914978027,12.362160997009276,4.544793301391601
1758278289503958300,45.86595825195312,4.416254599761962,10.86593459701538,3.640233986663818
1758278289514043400,45.87604345703125,5.259761772155762,9.970802451324465,2.5266309394836424
1758278289524128300,45.886128173828126,5.367949759674072,9.749638072967528,1.5544354278564452
1758278289534213400,45.89621337890625,4.523544761657715,9.983820922851562,1.059134959411621
1758278289544298500,45.90629858398437,3.282001563262939,10.331279438781738,0.9516951599121092
1758278289554383400,45.91638330078125,2.277933242034912,10.744428862762453,0.9099462684631348
1758278289564468500,45.926468505859376,1.687313619995117,11.04535008392334,1.018283893585205
1758278289574553300,45.93655322265625,1.3085808448791505,11.290606116485597,1.3491326354980469
1758278289584638500,45.94663842773438,0.9706991355895996,11.348964781951905,1.9366098678588863
1758278289594723300,45.95672338867188,0.8387187690734863,11.107898602294922,2.5864859809875487
1758278289604808400,45.96680834960937,0.949300958251953,10.55932714691162,3.075352032470703
1758278289614893300,45.97689331054688,1.1834838081359862,9.81996774673462,3.3028011901855465
1758278289624978200,45.986978271484375,1.4857517677307128,9.038560179901122,3.3822587577819823
1758278289635063300,45.99706323242187,1.5578770927429195,8.283039918518066,3.329735958862305
1758278289645147400,46.0071474609375,1.4767735115051268,7.690624645233154,3.2595559226989743
1758278289655232500,46.017232421875,1.1948562660217283,7.391648712921143,3.0418332092285154
1758278289665317400,46.0273173828125,0.8563760063171386,7.286453477478027,2.549525492858886
1758278289675402500,46.03740258789063,0.6441898841857909,7.371297998809814,1.7865233512878418
1758278289685487400,46.0474873046875,0.6419453201293945,7.464522225952148,0.8714894042968749
1758278289695572500,46.05757250976563,0.7743745994567871,7.383418644714355,-0.0814028564453124
1758278289705657300,46.0676572265625,0.8185176925659179,7.19472562637329,-1.0535983680725096
1758278289715742500,46.07774243164062,0.7297825935363769,7.082946336364746,-2.015169609832764
1758278289725827300,46.08782739257813,0.6796539962768554,7.246949150085449,-2.6491841369628903
1758278289735912400,46.097912353515625,0.6298246742248534,7.7416510681152335,-2.9325977584838867
1758278289745997300,46.10799731445312,0.6807014595031737,8.3502272026062,-2.811840212249756
1758278289756082200,46.11808227539063,0.6175543907165527,8.955361672210692,-2.431760698699951
1758278289766167300,46.128167236328125,0.4804863456726074,9.456498007202148,-2.225709718322754
1758278289776252200,46.13825219726562,0.3633201019287109,9.838672447204589,-2.263119119262696
1758278289786337300,46.14833715820313,0.2302922721862793,10.128370848083495,-2.278382154846191
1758278289796422100,46.158422119140624,0.0659901832580566,10.434080472564697,-2.142660848236084
1758278289806507300,46.16850732421875,0.0062847793579101,10.73156002883911,-1.660528488922119
1758278289816592100,46.17859204101563,0.0210989021301269,10.94254905014038,-0.7474398307800293
1758278289826677200,46.18867724609375,0.0852934341430664,11.039663854980468,0.4188356529235839
1758278289836762400,46.19876245117187,0.2902969512939453,10.948384916687012,1.497872413635254
1758278289846847200,46.20884716796875,0.6821978355407714,10.676643028259276,2.2725462882995604
1758278289856932400,46.21893237304688,1.0612298858642577,10.3176624168396,2.84101954498291
1758278289867017200,46.22901733398437,1.4698901817321777,10.013748443603514,3.0430303100585934
1758278289877102300,46.23910229492188,1.8276736923217771,9.7821094329834,3.070264353942871
1758278289887187200,46.249187255859376,2.201618064117432,9.579200842285156,3.0137013397216794
1758278289897272300,46.25927221679687,2.47710089263916,9.316586847686766,3.034500966644287
1758278289907357200,46.26935717773438,2.6247932075500486,8.952069644927978,3.1477766326904293
1758278289917442300,46.2794423828125,2.6982652709960937,8.468590547180176,3.38345585861206
1758278289927527400,46.28952734375,2.854337291717529,7.915978876495361,3.417573232269287
1758278289937612300,46.2996123046875,3.110666506958008,7.392546538543701,3.21765739364624
1758278289947697400,46.30969750976563,3.343203343200684,6.941389163208007,2.8069021713256834
1758278289957782300,46.3197822265625,3.5256115821838376,6.678924806213378,2.161814461517334
1758278289967867400,46.32986743164062,3.4843116035461423,6.718728408813476,1.586457875061035
1758278289977952300,46.3399521484375,3.13475816116333,7.0765119194030754,1.2569558715820313
1758278289988037400,46.35003735351562,2.749441331481933,7.626430113220215,1.143979480743408
1758278289998122200,46.36012231445312,2.4295161346435545,8.32463917236328,1.0407295341491698
1758278290008207400,46.37020727539063,2.3157915557861326,9.05397285308838,0.8879495407104492
1758278290018292500,46.38029248046875,2.355146245574951,9.615862055206298,0.6196493171691894
1758278290028377300,46.39037744140625,2.597110250854492,9.955539415740969,0.275782103729248
1758278290038462500,46.40046240234375,2.8842648124694823,10.12522845840454,-0.0007481880187988
1758278290048547300,46.41054736328125,3.075950582885742,10.103531005859374,-0.1931821464538574
1758278290058632400,46.42063256835937,3.151517572784424,9.883563728332518,-0.2967313682556152
1758278290068717300,46.43071728515625,3.09016615524292,9.40352629547119,-0.3776853118896484
1758278290078802400,46.440802490234375,2.9855694702148434,8.863035270690917,-0.4789899696350097
1758278290088887300,46.45088720703125,2.901024224090576,8.553734343719482,-0.4893149642944335
1758278290098972400,46.46097241210938,2.7397148872375485,8.602516202545166,-0.4804863456726074
1758278290109057500,46.4710576171875,2.3933038345336914,9.126846366119384,-0.4795885200500488
1758278290119142400,46.48114233398437,1.9125182136535643,10.135104540252684,-0.5105635040283203
1758278290129227500,46.4912275390625,1.283890640258789,11.483937900543213,-0.5734112976074218
1758278290139312400,46.5013125,0.4688146125793457,12.940211060333253,-0.6738181297302246
1758278290149397200,46.51139721679687,-0.3591302490234375,14.316727377319337,-0.6414964073181152
1758278290159482400,46.521482421875,-0.9232640151977538,15.418808329010009,-0.4560954162597656
1758278290169567200,46.53156713867188,-1.2575544219970702,15.962890656280516,-0.1201589958190917
1758278290179652000,46.54165209960937,-1.42365216217041,16.240618048858643,0.2659060218811035
1758278290189737200,46.5517373046875,-1.4188637588500976,16.166098522186278,0.443076944732666
1758278290199822300,46.561822265625,-1.341950030517578,15.773299812316894,0.4667196861267089
1758278290209906400,46.57190649414063,-0.8598176712036132,15.167267517089844,0.6624456718444823
1758278290219991600,46.581991455078125,-0.1162684181213378,14.458733463287352,0.7743745994567871
1758278290230076700,46.59207666015625,0.5063736511230469,13.673136043548585,0.604535919189453
1758278290240161500,46.60216162109375,1.0066121604919434,13.000215739440916,0.4961982940673828
1758278290250246400,46.61224633789063,1.2114660400390624,12.336124053955077,0.3232172241210937
1758278290260331500,46.62233154296875,0.9228151023864746,11.369016220855713,0.052971711730957
1758278290270416400,46.63241650390625,0.4759972175598144,10.10637412033081,-0.0700303985595703
1758278290280501200,46.64250122070312,-0.2262520568847656,8.842385281372069,-0.0399532402038574
1758278290290586400,46.65258642578125,-0.7436988906860351,7.893084323120116,0.2893991256713867
1758278290300671200,46.66267114257813,-0.9843161575317382,7.494599384307861,0.699106884765625
1758278290310756400,46.67275634765625,-1.0574889457702636,7.378929516601562,1.0383353324890137
1758278290320841500,46.68284155273437,-0.8789712844848633,7.2052002586364745,1.342698218536377
1758278290330926300,46.69292626953125,-0.7612064903259277,7.050175701141357,1.613991194152832
1758278290341011500,46.703011474609376,-1.0128969398498535,6.789506995391846,1.764676261138916
1758278290351096300,46.71309643554687,-0.8958803337097168,6.7562874473571775,2.1054010848999023
1758278290361180400,46.723180419921874,-0.611568886566162,6.7553896217346185,2.396146949005127
1758278290371265500,46.733265625,-0.4671685989379882,6.893205854797363,2.6497826873779293
1758278290381350400,46.74335034179688,-0.3197755592346191,7.183353168487549,2.984073094177246
1758278290391435300,46.75343530273437,-0.1390133338928222,7.583184845733642,3.5185786148071285
1758278290401520400,46.76352026367187,-0.0902314750671386,8.151209189605712,4.297891255187988
1758278290411605200,46.773605224609376,-0.081702131652832,8.8359508644104,5.191826300048827
1758278290421690400,46.7836904296875,0.0468365699768066,9.475202707672118,6.028450142669677
1758278290431775200,46.79377514648438,0.3835211784362792,10.07539913635254,6.396409010314941
1758278290441860400,46.8038603515625,0.7670423568725585,10.343400084686278,6.08456424407959
1758278290451945500,46.81394555664063,1.1962030044555665,10.316166040802,5.476586660003662
1758278290462030300,46.8240302734375,1.522113705444336,10.024971263885496,4.863521397399902
1758278290472115500,46.83411547851563,1.7609353210449217,9.427468312072753,4.236539837646484
1758278290482200300,46.844200439453125,1.957409494781494,8.825625869750976,3.622576749420166
1758278290492285400,46.85428540039062,1.4368202713012694,8.103923706817627,3.3623569564819333
1758278290502370300,46.86437036132813,0.9494505958557128,7.590367450714111,3.569455400085449
1758278290512455400,46.874455322265625,1.0697592292785645,7.664886977386474,3.628113340759277
1758278290522540300,46.88454028320312,1.4112322410583495,8.28079535446167,3.598485095214844
1758278290532625400,46.89462548828125,1.0999860252380371,8.678981018066406,3.1748610389709477
1758278290542710500,46.90471044921875,0.7746738746643066,8.694393691253662,2.325069087219238
1758278290552795400,46.91479541015625,0.5116109672546386,8.7455697517395,1.6268600280761718
1758278290562880500,46.92488061523437,0.2331353866577148,8.789563207244873,1.4036007232666017
1758278290572965400,46.93496533203125,0.2385223403930663,8.927678715515135,1.6531962463378904
1758278290583050500,46.945050537109374,0.295534267425537,9.31479119644165,2.303670909881592
1758278290593135400,46.95513525390625,0.3573345977783203,10.167426262664794,3.282899388885498
1758278290603220500,46.965220458984376,0.3767874862670898,11.35719485015869,4.540603448486328
1758278290613305300,46.975305419921874,0.4462193344116211,12.586318127441404,5.750124199676513
1758278290623390500,46.98539038085938,0.6530185028076172,13.172897534179686,6.6702458251953125
1758278290633475600,46.9954755859375,1.2083236503601074,12.725481098937989,7.013664125823974
1758278290643560400,47.005560546875,1.9334674781799317,11.63267767868042,6.741473324584961
1758278290653645600,47.0156455078125,2.731933731842041,10.695198091125487,6.268319221496582
1758278290663730400,47.02573046875,3.5091514457702635,10.220846887207031,5.845293715667724
1758278290673815600,47.035815673828125,4.007145391082763,10.148123011779784,5.673809021759033
1758278290683900400,47.045900390625,4.117727580261231,10.423007289886474,5.731269861602783
1758278290693985500,47.05598559570313,3.755305303955078,10.83316396179199,5.743390507507324
1758278290704070400,47.0660703125,3.1516672103881835,11.138574311065671,5.621735135650635
1758278290714155500,47.07615551757812,2.5471312911987303,11.105953313446044,5.530007284545898
1758278290724240600,47.08624072265625,2.1739351074218747,10.806827743530272,5.804293012237548
1758278290734325500,47.096325439453125,1.900696842956543,10.493636238861084,6.322039121246338
1758278290744410600,47.10641064453125,1.8127099319458009,10.210372254943849,6.763470052337646
1758278290754495500,47.11649560546875,1.6792331893920898,9.836278245544433,6.921936274719238
1758278290764580600,47.12658056640625,1.3729250144958496,9.291447730255127,6.677428430175781
1758278290774665500,47.13666552734375,0.9522937103271484,8.637082489013672,6.126462773132324
1758278290784750300,47.14675024414063,0.6388029304504395,8.010998754882811,5.424662411499023
1758278290794835500,47.15683544921875,0.5111620544433594,7.50133307647705,4.68006569519043
1758278290804920300,47.16692041015625,0.3896563201904297,7.089530390930175,3.955969330596924
1758278290815005400,47.17700537109375,0.1979705497741699,6.827215671539307,3.275866421508789
1758278290825090300,47.18709033203125,-0.172981069946289,6.647051996612548,2.478297993469238
1758278290835175400,47.19717553710937,-0.4767454055786133,6.590339344787597,1.58960026473999
1758278290845259500,47.20725952148437,-0.5767033248901366,6.685957773590087,0.4614823699951171
1758278290855344600,47.2173447265625,-0.4887164138793945,6.779481275939941,-0.6853402252197265
1758278290865429500,47.22742944335938,-0.2457049453735351,7.101651036834716,-1.6151882949829102
1758278290875514600,47.2375146484375,0.1994669258117675,7.397185304260254,-2.1615151863098143
1758278290885599500,47.247599609375,0.6838438491821288,7.527220381927489,-2.2149358108520505
1758278290895684600,47.2576845703125,1.022024833679199,7.73117643585205,-1.9182044425964355
1758278290905769500,47.26776953125,1.1264718811035157,8.36968009109497,-1.5465046348571776
1758278290915854300,47.27785424804687,1.195155541229248,9.30252091293335,-1.196502279663086
1758278290925939200,47.287939208984376,1.2693757926940916,10.318260967254638,-0.8460510116577148
1758278290936024300,47.2980244140625,1.3768155921936034,11.118822147369384,-0.3927987098693847
1758278290946109400,47.308109375,1.667112543487549,11.622203046417235,0.3700537940979003
1758278290956194300,47.3181943359375,1.8676269325256347,11.851597492980956,1.6352397338867186
1758278290966279400,47.328279541015625,2.1538836685180662,11.83678337020874,3.079841160583496
1758278290976364300,47.3383642578125,2.550572956085205,11.642254485321043,4.461445156097412
1758278290986449400,47.34844946289063,2.601599378967285,11.216086589813232,5.549011260223389
1758278290996534300,47.3585341796875,2.612672561645508,10.56591120147705,6.027402679443359
1758278291006619400,47.36861938476562,2.494608492279053,9.804405435943602,5.9950809570312495
1758278291016704300,47.37870434570313,2.127697087860107,9.02090294265747,5.479729049682617
1758278291026789400,47.38878930664063,1.675192974090576,8.430432958221434,4.618115727233887
1758278291036874500,47.39887451171875,0.9635165306091308,8.015338245391845,3.719541916656494
