time,seconds_elapsed,z,y,x
1758278540121005000,296.4830051269531,0.6239888076782226,10.340407332611084,3.443759812927246
1758278540131089000,296.4930888671875,0.3103483901977539,9.943718045043944,3.708169458770752
1758278540141173200,296.5031733398437,0.1192611701965331,9.443180260467528,3.837456348419189
1758278540151258000,296.5132580566406,0.0748188018798828,8.831162461090088,3.784484636688232
1758278540161342200,296.5233422851563,0.2284966209411621,8.139387818908691,3.574393441009521
1758278540171426000,296.5334260253906,0.5612906517028808,7.4491095527648925,3.4084453384399414
1758278540181511200,296.5435112304688,0.6979097839355468,6.843376532745361,3.2740707702636715
1758278540191595000,296.5535949707031,0.5597942756652832,6.367678590393066,3.068767977905273
1758278540201679000,296.5636791992188,0.4424783943176269,6.079177290344238,2.8760347442626952
1758278540211764200,296.57376416015626,0.2685994987487793,6.016778409576416,2.467374448394775
1758278540221848000,296.58384814453126,0.1444002876281738,6.10970336151123,1.697638614654541
1758278540231932200,296.59393212890626,0.2255038688659668,6.341641647338867,0.5969044013977051
1758278540242017000,296.6040170898437,0.4635772964477538,6.613682810974121,-0.6679822631835937
1758278540252101000,296.61410107421875,0.6815992851257324,6.973411610412597,-1.8902222106933595
1758278540262185200,296.6241853027344,0.7845499565124511,7.602937009429931,-2.827701798248291
1758278540272270000,296.63427001953124,0.9068038787841796,8.456769176483153,-3.337666751861572
1758278540282354200,296.64435424804685,1.1667243965148926,9.194931475830078,-3.2544682441711426
1758278540292438000,296.65443798828124,1.396867031097412,9.782558345794676,-2.6696844886779783
1758278540302523100,296.6645231933594,1.597231782531738,10.296862789916991,-1.974617819213867
1758278540312607000,296.67460693359374,1.7782932830810545,10.832415773773192,-1.4471452659606934
1758278540322691000,296.6846911621094,1.7859248008728026,11.269058301544188,-1.04701431350708
1758278540332776200,296.6947761230469,1.648557480621338,11.480047322845458,-0.5774515129089355
1758278540342860000,296.7048601074219,1.4781202499389647,11.534665048217771,0.053570262145996
1758278540352944000,296.7149440917969,1.2250830619812012,11.352256809234618,0.9564835632324218
1758278540363029000,296.7250290527344,0.994042601776123,11.066897898864744,2.187552129364013
1758278540373113000,296.7351130371094,0.8617629600524902,10.711508589935304,3.4829648651123044
1758278540383197200,296.745197265625,1.0009259315490722,10.344297910308835,4.723610237884521
1758278540393282000,296.7552819824219,1.2951134605407717,9.956137966156003,5.58028551940918
1758278540403366100,296.7653662109375,1.5894506271362303,9.567678746795654,5.882104566192627
1758278540413450000,296.7754499511719,1.9192519058227535,9.192986186981202,5.722890155792236
1758278540423535000,296.78553515625,2.3247698120117186,8.719532808685303,5.146186830902099
1758278540433619000,296.7956188964844,2.5757120735168457,8.186673301696777,4.243872080230712
1758278540443703300,296.80570336914064,2.6726772407531736,7.680898200988769,3.301903364562988
1758278540453788200,296.8157880859375,2.7103859169006346,7.262212185668945,2.4179940391540526
1758278540463871500,296.82587158203125,2.8009166671752928,7.096862633514404,1.5064017570495605
1758278540473955300,296.83595532226565,2.8285996238708493,7.223904959106445,0.7351695472717285
1758278540484040400,296.84604052734375,2.8745383682250973,7.541585591888428,0.1444002876281738
1758278540494124300,296.85612426757814,2.972999911499023,8.044517578125,-0.2618658065795898
1758278540504208400,296.86620849609375,3.122637515258789,8.732102367401122,-0.4483142608642578
1758278540514293500,296.87629345703124,3.357568553161621,9.545382743835448,-0.5021837982177734
1758278540524377300,296.88637744140624,3.5571851165771484,10.26528925552368,-0.4357447021484374
1758278540534461400,296.89646142578124,3.6553473846435542,10.625915880584715,-0.4590881683349609
1758278540544546300,296.9065463867188,3.7223850311279296,10.685920559692384,-0.4932055419921874
1758278540554630400,296.91663037109373,3.730166186523437,10.506505072784424,-0.4089595710754394
1758278540564714500,296.9267145996094,3.7042788810729976,10.158747281646727,-0.1846528030395507
1758278540574799600,296.9367995605469,3.681384327697754,9.718064538574218,0.0734720634460449
1758278540584883500,296.9468835449219,3.6144963188171375,9.18056626586914,0.2877531120300293
1758278540594967300,296.9569672851562,3.530100710296631,8.684517609405518,0.3779845870971679
1758278540605052400,296.9670524902344,3.464260164642334,8.411428982543946,0.4448725959777831
1758278540615136500,296.9771364746094,3.3831565834045407,8.475473876953124,0.5098153160095215
1758278540625221400,296.98722143554687,3.3075895935058592,8.970624707794189,0.4999392341613769
1758278540635305500,296.9973054199219,3.1254806297302244,9.847052153015136,0.4557961410522461
1758278540645389600,297.0073896484375,2.717568521881103,10.959607736968994,0.3863642929077148
1758278540655474400,297.0174743652344,2.116773542785644,12.094459323883056,0.3280056274414062
1758278540665558300,297.02755834960936,1.4781202499389647,13.089549388885498,0.3815758895874023
1758278540675642400,297.0376423339844,0.824802471923828,13.769801935577393,0.416890364074707
1758278540685727200,297.04772729492186,0.1809118629455566,14.050372442626951,0.4988917709350585
1758278540695811600,297.0578115234375,-0.1313818161010742,13.992761965179442,0.7223007133483886
1758278540705895400,297.0678955078125,-0.2663549346923828,13.78970373687744,0.9478045822143554
1758278540715980500,297.07798046875,-0.3298012786865234,13.405883283233642,1.1073182678222655
1758278540726064400,297.088064453125,-0.2130839477539062,12.846388282775878,1.2719196319580075
1758278540736148500,297.0981484375,0.0061351417541503,12.100444828033446,1.4781202499389647
1758278540746233300,297.1082333984375,0.1741781707763671,11.263820985412597,1.7398364189147948
1758278540756317400,297.1183173828125,0.397736750793457,10.51473514099121,1.963843911743164
1758278540766402600,297.1284025878906,0.3935468978881836,9.787496386718749,2.1643583007812497
1758278540776486400,297.138486328125,0.4288613723754882,9.1554271484375,2.3632266761779785
1758278540786570500,297.1485705566406,0.3953425491333007,8.623615104675292,2.533813544464111
1758278540796655400,297.1586552734375,0.2680009483337402,8.167519688415528,2.7150246826171878
1758278540806739500,297.1687395019531,0.2748842781066894,7.85866767425537,2.8636148231506344
1758278540816823600,297.1788234863281,-0.0620996055603027,7.552060224151611,2.8685528640747067
1758278540826908400,297.18890844726565,-0.2724900764465331,7.332092946624756,2.7964275390625
1758278540836992500,297.19899243164065,-0.2261024192810058,7.29692810974121,2.931251020050049
1758278540847076400,297.20907641601565,-0.323666136932373,7.3265563552856445,3.0047230834960934
1758278540857161500,297.21916137695314,-0.5113116920471191,7.371597274017334,3.0268694488525387
1758278540867245300,297.22924536132814,-0.3980360260009765,7.441777310180663,3.0892683296203614
1758278540877330400,297.23933032226563,-0.1657984649658203,7.491606632232665,3.1235353408813475
1758278540887414500,297.24941455078124,-0.1617582496643066,7.627327938842773,3.1970074043273926
1758278540897498400,297.25949829101563,-0.3170820823669433,7.723245642852783,3.261501211547851
1758278540907583500,297.26958349609373,-0.2920926025390625,7.921515467834472,3.312976547241211
1758278540917667300,297.2796672363281,-0.3441664886474609,8.225279803466796,3.3506852233886715
1758278540927751400,297.28975146484373,-0.3875613937377929,8.579023098754883,3.336320013427734
1758278540937836300,297.2998361816406,-0.4483142608642578,8.994716361999512,3.3846529594421386
1758278540947920400,297.3099204101562,-0.5545569595336913,9.433603453826905,3.596988719177246
1758278540958005500,297.3200056152344,-0.5571007987976074,9.890895970916748,3.9719805541992175
1758278540968089300,297.3300893554688,-0.6239888076782226,10.318709880065915,4.25180287322998
1758278540978173400,297.3401733398438,-0.6621463966369628,10.54720650100708,4.323180010223388
1758278540988258300,297.35025830078126,-0.4908113403320312,10.467300020599364,4.122964896392822
1758278540998342400,297.36034228515626,-0.2965817306518554,10.004620549774168,3.769371238708496
1758278541008426500,297.3704265136719,0.0213981773376464,9.33424408493042,3.412635191345214
1758278541018511600,297.38051171875,0.4305073860168457,8.687959274291991,3.131466133880615
1758278541028595500,297.3905954589844,0.8656535377502441,8.124872971343994,2.93678761138916
1758278541038680600,297.4006806640625,1.382202545928955,7.805845600128173,2.8865093765258787
1758278541048764400,297.41076440429686,1.7337012771606444,7.826495589447021,2.739415612030029
1758278541058848300,297.42084814453125,1.2318167541503906,8.049455619049072,2.9644705680847165
1758278541068933400,297.43093334960935,1.0957961723327636,8.230816394805908,3.5338416503906247
1758278541079017500,297.441017578125,1.6885107208251953,8.736292220306396,3.727771984863281
1758278541089101600,297.4511015625,2.217030737304688,9.609876551055908,3.722534668731689
1758278541099186400,297.4611865234375,2.383876665496826,10.55887823410034,3.745878134918213
1758278541109270300,297.4712702636719,2.2768857788085937,11.4408422706604,3.771615802764893
1758278541119355400,297.48135546875,2.147598889160156,12.43772798690796,4.029291756439209
1758278541129439200,297.4914392089844,1.9448399360656736,13.552528134918212,4.676624030303955
1758278541139523600,297.5015236816406,1.9107225624084472,14.35234112701416,5.445162763214111
1758278541149608400,297.5116083984375,2.037764888000488,14.136862977600098,5.964854161071777
1758278541159692500,297.5216926269531,2.272097375488281,12.789525993347167,5.77167201461792
1758278541169777400,297.53177734375,2.893542343902588,11.369764408874511,5.053710791778564
1758278541179861500,297.54186157226565,3.6323031936645513,10.494234789276122,4.260631491851807
1758278541189945300,297.5519453125,3.984400475311279,10.085424855804442,3.445705101776123
1758278541200030200,297.5620302734375,3.999962786102295,9.964368034362792,2.841917370605469
1758278541210114600,297.57211450195314,3.6125510299682615,10.097545501708984,2.504334936523437
1758278541220198400,297.58219848632814,2.890100679016113,10.450241333770752,2.3425766868591307
1758278541230283500,297.59228344726563,2.120215207672119,10.896011755371092,2.2569839775085447
1758278541240367400,297.60236743164063,1.375169578552246,11.316643059539794,2.250399922943115
1758278541250452500,297.6124523925781,0.6878840644836426,11.551574097442629,2.4733599525451657
1758278541260536300,297.6225363769531,0.0553659133911132,11.537957075500488,2.937386161804199
1758278541270620400,297.6326203613281,-0.3678092300415039,11.3381908744812,3.457975385284424
1758278541280705500,297.6427055664063,-0.5576993492126464,11.039214942169188,3.763685009765625
1758278541290789400,297.6527893066406,-0.6108206985473632,10.575039095306396,3.822043675231933
1758278541300874500,297.6628745117188,-0.5223848747253418,9.88954923248291,3.595791618347168
1758278541310958300,297.6729582519531,-0.3079541885375976,9.09706848297119,3.267636353302002
1758278541321042400,297.6830424804688,-0.2337339370727539,8.322993158721923,2.910601030731201
1758278541331127300,297.69312719726565,-0.2789244934082031,7.631068878936767,2.610727272796631
1758278541341211600,297.70321166992187,-0.4323030372619628,7.053168453216553,2.3211785095214843
1758278541351296500,297.71329663085936,-0.5967547637939453,6.60126288986206,2.006490628814697
1758278541361380400,297.7233803710937,-0.6691793640136718,6.207715991973877,1.5679028121948242
1758278541371464400,297.73346435546875,-0.5858312187194824,5.927744035339355,0.9317933586120604
1758278541381549300,297.74354931640624,-0.4159925384521484,5.7843912109375,0.2169745254516601
1758278541391633400,297.75363330078125,-0.1016039329528808,5.809081415557861,-0.4516062881469726
1758278541401718300,297.76371826171874,0.26171616897583,6.048202306365966,-0.9074024291992188
1758278541411802600,297.773802734375,0.5256769020080566,6.626102732086181,-1.1725602630615233
1758278541421886500,297.7838864746094,0.8530839790344238,7.408557762145995,-1.1794435928344726
1758278541431971600,297.7939716796875,1.1674725845336913,8.245630517578125,-0.8132803764343262
1758278541442055400,297.8040554199219,1.467645617675781,9.06444748535156,-0.1877951927185058
1758278541452140300,297.8141403808594,1.7583914817810058,9.808894564056397,0.4459200592041015
1758278541462224600,297.824224609375,2.0498855339050293,10.396222158813476,1.0357914932250976
1758278541472309000,297.83430908203127,2.2991817817687985,10.849923373413086,1.52585464553833
1758278541482393900,297.8443937988281,2.43235924911499,11.14111815032959,1.8004396484374998
1758278541492477700,297.85447778320315,2.4352023635864257,11.258733306884764,2.1001637687683106
1758278541502562800,297.86456274414064,2.4054244804382323,11.131840618896485,2.7232547508239744
1758278541512646700,297.87464672851564,2.205359004211425,10.868628073883055,3.605368424987793
1758278541522730800,297.88473071289064,2.0337246726989746,10.544064111328124,4.556465034484863
1758278541532815600,297.89481567382813,1.971475429534912,10.272920773315429,5.440673635101318
1758278541542900000,297.90489990234374,2.1818659004211423,10.047566542053222,6.1924529563903805
1758278541552984800,297.91498486328123,2.4875755249023435,9.87623148574829,6.687304512023926
1758278541563069000,297.92506884765623,2.636913853454589,9.587281272888182,6.667402710723876
1758278541573153800,297.9351538085937,2.86017315826416,8.973916735076903,5.955426992034912
1758278541583238000,297.9452377929687,3.1376012756347653,8.223184877014159,4.823867432403564
1758278541593321700,297.9553217773437,3.235464268493652,7.646182276916503,3.7018846794128417
1758278541603406600,297.9654064941406,3.1712697364807125,7.352294023132324,2.6063877822875976
1758278541613491000,297.9754909667969,2.916885810089111,7.321319039154052,1.4909890838623046
1758278541623575800,297.9855759277344,2.549675130462646,7.554903338623046,0.4302081108093261
1758278541633660000,297.9956599121094,2.163610112762451,7.954585378265381,-0.4611830947875976
1758278541643743700,298.00574365234377,1.9045874206542968,8.435819911956786,-1.0347440299987791
1758278541653828900,298.01582885742187,1.817647972869873,8.985438830566405,-1.2665326782226562
1758278541663912700,298.02591259765626,1.8049287765502928,9.69696563644409,-1.1770493911743165
1758278541673997800,298.0359978027344,1.8423381774902343,10.416872148132324,-0.8656535377502441
1758278541684082000,298.04608203125,1.9897312171936037,11.010484522247314,-0.5385457359313964
1758278541694165800,298.0561657714844,2.263867307281494,11.3259205909729,-0.2448071197509765
1758278541704251000,298.0662509765625,2.5999533653259275,11.2232691947937,-0.017208324432373
1758278541714334700,298.07633471679685,3.009361849212646,10.73844335861206,0.0284311447143554
1758278541724419800,298.086419921875,3.4208652595520017,10.059387912750244,-0.0429459922790527
1758278541734503700,298.0965036621094,3.693953886413574,9.343820891571044,-0.1354220314025878
1758278541744588800,298.1065888671875,3.837605986022949,8.709507089233398,-0.2078466316223144
1758278541754672600,298.1166726074219,3.865139305114746,8.262389929199218,-0.2501940734863281
1758278541764756700,298.1267568359375,3.8347628715515136,8.139088543701172,-0.316034619140625
1758278541774841900,298.136841796875,3.698592652130127,8.385392039489746,-0.407313557434082
1758278541784925700,298.14692578125,3.3259950187683103,9.071779727935793,-0.519092847442627
1758278541795010800,298.1570107421875,2.7754782745361326,10.00417163696289,-0.6926724678039551
1758278541805094700,298.1670947265625,2.109890213012695,11.00075807800293,-0.8909422927856445
1758278541815178800,298.1771787109375,1.3667898727416992,11.918635139465332,-1.073200894165039
1758278541825263600,298.187263671875,0.6958148574829102,12.558186257934569,-1.1742062767028807
1758278541835348000,298.19734790039064,0.2543839263916015,12.929586790466308,-1.0951976219177246
1758278541845432800,298.20743286132813,-0.1333271049499511,13.043909919738768,-0.8801683853149413
1758278541855516700,298.2175166015625,-0.3372831588745117,12.936170845031738,-0.4984428581237792
1758278541865601800,298.2276018066406,-0.4059668190002441,12.537985181427,0.0398036026000976
1758278541875685600,298.237685546875,-0.2838625343322754,12.093411860656738,0.5940612869262695
1758278541885769700,298.2477697753906,-0.2123357597351074,11.665298676300049,0.9674071083068848
1758278541895854600,298.2578544921875,-0.0899321998596191,11.28791263961792,1.3195043899536132
1758278541905939000,298.2679389648437,0.194079972076416,10.907982763671876,1.4878466941833497
1758278541916023800,298.27802392578127,0.4538508522033691,10.395025057983398,1.6078560523986816
1758278541926108000,298.28810791015627,0.4563946914672851,9.76804349822998,1.7166425903320313
1758278541936192800,298.29819287109376,0.2575263160705566,9.189843797302244,1.7750012557983397
1758278541946276600,298.3082766113281,-0.1566705711364746,8.668356748199463,1.7188871543884277
1758278541956360700,298.3183605957031,-0.6197989547729492,8.080879515838623,1.5587749183654784
1758278541966445600,298.32844555664065,-0.9983820922851562,7.530811684417724,1.3991115951538085
1758278541976530000,298.33853002929686,-1.3851952980041502,7.0932713310241695,1.338209090423584
1758278541986614800,298.34861474609374,-1.882291417694092,6.789207720184326,1.4016554344177246
1758278541996699000,298.3586989746093,-2.1543325813293457,6.694187841796874,1.572541577911377
1758278542006783700,298.36878369140624,-2.065896757507324,6.809408796691894,1.8736124366760247
1758278542016867800,298.3788679199219,-1.8960580772399904,6.842628344726562,2.046144593811035
1758278542026951700,298.38895166015624,-1.5966332321166992,6.944980465698242,2.192340532684326
1758278542037036500,298.3990366210937,-1.4305354919433593,7.122600301361084,2.350657117462158
1758278542047121000,298.4091208496094,-1.3157634498596191,7.419930220031738,2.4842834976196286
1758278542057205800,298.4192058105469,-1.1828852577209472,7.862707889556884,2.733130832672119
1758278542067289900,298.4292897949219,-1.277605860900879,8.262539566802978,3.0400375579833985
1758278542077374700,298.4393747558594,-1.437718096923828,8.582913676452636,3.412036640930176
1758278542087458800,298.4494587402344,-1.2964601989746094,8.949525805664061,3.853617209625244
1758278542097543700,298.45954370117187,-1.3409025672912598,9.286509689331057,4.221576077270508
1758278542107627800,298.46962768554687,-1.3473369842529297,9.676315647125245,4.475361453247071
1758278542117712000,298.4797119140625,-1.1655272956848144,10.103082093048094,4.614823699951172
1758278542127797000,298.489796875,-0.997184991455078,10.43243445892334,4.761917464447021
1758278542137880800,298.499880859375,-0.9126397453308104,10.588656117248537,4.970661921691894
1758278542147965700,298.50996557617185,-0.8258499351501465,10.673650276184082,5.189731373596191
1758278542158049800,298.5200498046875,-0.6790554458618163,10.72018757095337,5.342511367034912
1758278542168134700,298.530134765625,-0.4381389038085937,10.523414122009276,5.558438429260254
1758278542178218800,298.54021875,-0.1189618949890136,10.225485652923584,5.685929667663574
1758278542188302800,298.550302734375,0.2467524085998535,10.084826305389404,5.706280381774902
1758278542198388000,298.5603879394531,0.619948592376709,10.106823033142089,5.619041658782959
1758278542208471800,298.5704719238281,0.9126397453308104,10.242095426940915,5.424063861083984
1758278542218557000,298.5805568847656,1.1399392654418945,10.529848538970947,5.237765044403075
1758278542228640800,298.5906408691406,1.2904746948242187,10.886135673522949,5.077353533172607
1758278542238725600,298.6007255859375,1.3564648780822752,11.3634796295166,4.969015908050537
1758278542248809700,298.61080981445315,1.2879308555603026,12.014253568267822,4.9354970848083495
1758278542258894600,298.62089453125,1.1079168182373047,12.776806797027588,4.971709384918213
1758278542268979000,298.63097900390625,0.950049146270752,13.409624223327636,5.16504116897583
1758278542279062800,298.64106274414064,0.9153332221984862,13.5224509765625,5.323956304168701
1758278542289148000,298.65114794921874,1.0244190353393554,12.94754330291748,5.255871194458008
1758278542299231700,298.66123168945313,1.1773486663818358,11.93225216140747,4.842871408081054
1758278542309316900,298.67131689453123,1.4088380393981932,10.973524034118652,4.243123892211914
1758278542319400700,298.6814006347656,1.5740379539489746,10.258705200958252,3.6406828994750975
1758278542329485600,298.6914855957031,1.58346512298584,9.699359838104249,3.210624426269531
1758278542339570000,298.7015698242187,1.4145242683410644,9.22545754699707,2.830694550323486
1758278542349654800,298.71165478515627,0.9962871658325196,8.932317481231689,2.4754548789978026
1758278542359739000,298.72173876953127,0.5758054992675781,8.776245460510253,2.205209366607666
1758278542369822700,298.7318227539063,0.0644938072204589,8.7593364112854,2.161215911102295
1758278542379907800,298.7419079589844,-0.5306149429321289,8.809165733337402,2.482787121582031
1758278542389991700,298.7519916992188,-1.0402806213378906,8.91929900970459,3.132812872314453
1758278542400076800,298.76207690429686,-1.4698901817321777,9.1554271484375,3.8515222831726073
1758278542410161000,298.77216088867186,-1.7188871543884277,9.287706790161131,4.419845902252197
1758278542420245800,298.7822458496093,-1.7217302688598632,9.191639448547363,4.674678741455078
1758278542430329900,298.79232983398435,-1.563563321685791,8.830713548278808,4.668693237304687
1758278542440414700,298.8024147949219,-1.3811550827026366,8.400355799865721,4.419097714233399
1758278542450498800,298.8124987792969,-1.1490671592712405,8.010400204467773,4.046649718475342
1758278542460582400,298.82258251953124,-0.9496002334594726,7.64812756576538,3.625719139099121
1758278542470667500,298.8326674804688,-0.8970774345397948,7.304559627532958,3.151367935180664
1758278542480751600,298.8427517089844,-0.7920318367004394,7.051073526763916,2.720411636352539
1758278542490836700,298.8528366699219,-0.7674912696838379,6.783222216033935,2.242918042755127
1758278542500920600,298.8629206542969,-0.7438485282897949,6.521506047058105,1.751208876800537
1758278542511005700,298.8730056152344,-0.7032967376708984,6.251410172271728,1.2051812606811525
1758278542521089500,298.8830895996094,-0.5913678100585937,6.129904438018799,0.6998550727844238
1758278542531174400,298.89317431640626,-0.5288192916870117,6.260538066101073,0.2635118202209472
1758278542541258500,298.90325854492187,-0.4994903213500976,6.551283930206298,-0.1803133125305175
1758278542551343400,298.91334326171875,-0.4701613510131835,6.942436626434326,-0.4590881683349609
1758278542561427700,298.923427734375,-0.4855740242004394,7.797465894317627,-0.7191583236694336
1758278542571511600,298.93351147460936,-0.5882254203796387,8.996063100433348,-1.099387474822998
1758278542581596700,298.9435966796875,-0.4896142395019531,10.038737923431396,-1.230470015716553
1758278542591680500,298.95368041992185,-0.3235164993286132,10.704924535369871,-0.8530839790344238
1758278542601765600,298.963765625,-0.2139817733764648,10.791265432739255,-0.0864905349731445
1758278542611849500,298.9738493652344,-0.1794154869079589,10.504110871124269,0.872087954711914
1758278542621934300,298.9839343261719,0.0047884033203125,10.190769728851318,1.94723413772583
1758278542632018700,298.9940187988281,0.4610334571838378,10.149320112609862,2.858676782226562
1758278542642103600,299.004103515625,0.8834604125976562,10.347141024780273,3.555539102935791
1758278542652187600,299.0141877441406,1.358559804534912,10.546009400177,4.197484423065185
1758278542662272500,299.0242724609375,1.91551096572876,10.57863039779663,4.74964718093872
1758278542672356600,299.03435668945315,2.67492180480957,10.36180550994873,5.060145208740234
1758278542682440400,299.0444404296875,3.391386651611328,9.955838690948486,5.016750303649902
1758278542692525600,299.05452563476564,3.899555953979492,9.494356320953369,4.582501977539062
1758278542702609700,299.06460961914064,4.065504056549072,9.185055393981932,3.8955157386779775
1758278542712694500,299.07469458007813,3.795108906555176,9.079710520935055,3.0252234352111813
1758278542722778600,299.0847785644532,3.2071827613830566,9.137320998382569,2.2246622550964354
1758278542732863500,299.0948635253906,2.5004443588256837,9.226505010223388,1.386093123626709
1758278542742947600,299.1049475097656,1.9699790534973145,9.253739054107664,0.6305728622436523
1758278542753032400,299.1150324707031,1.6154875701904297,9.276184694671633,-0.1093850883483886
1758278542763116500,299.1251164550781,1.3308768478393551,9.408763611602785,-0.7414543266296386
1758278542773201400,299.1352014160156,1.0793360359191897,9.750835173797606,-1.2448352256774902
1758278542783285500,299.1452854003906,0.8719383171081543,10.32948378753662,-1.5171756645202636
1758278542793370400,299.1553703613281,0.7044938385009765,11.041908419036863,-1.6247651016235352
1758278542803454700,299.1654548339844,0.4465186096191406,11.754033775329589,-1.5619173080444335
1758278542813539600,299.17553955078125,0.2457049453735351,12.376376569366457,-1.3492822731018066
1758278542823623400,299.18562353515625,0.1035492218017578,12.67864452896118,-1.0452186622619628
1758278542833707500,299.19570751953125,0.1249473991394043,12.657994539642331,-0.7796119155883788
1758278542843792400,299.20579248046874,0.4739022911071777,12.141744806671142,-0.5089174903869629
1758278542853876500,299.21587646484375,1.1665747589111328,11.144410177612304,-0.3763385734558105
1758278542863961300,299.22596142578124,1.786224076080322,9.992649541473387,-0.3711012573242187
1758278542874045700,299.2360456542969,2.2851158470153807,8.957755873870848,-0.4100070343017578
1758278542884130600,299.2461306152344,2.7468974922180176,8.2100167678833,-0.4109048599243163
1758278542894214700,299.2562145996094,3.0955531089782715,7.769184387207031,-0.4445733207702636
1758278542904299500,299.2662995605469,3.132064684295654,7.723844193267822,-0.4601356315612793
1758278542914383400,299.2763833007813,2.8637644607543944,8.041075913238524,-0.3917512466430664
1758278542924468500,299.2864685058594,2.3389853843688964,8.710255277252196,-0.2807201446533203
1758278542934552300,299.29655224609377,1.7191864295959471,9.57650736541748,-0.245106394958496
1758278542944637400,299.30663745117187,1.1215338401794432,10.487201821899411,-0.3311480171203613
1758278542954721500,299.31672143554687,0.6673837127685547,11.362132891082762,-0.5038298118591308
1758278542964805600,299.3268056640625,0.3362356956481933,12.177059281158446,-0.6042366439819336
1758278542974890500,299.33689038085936,0.0836474205017089,12.866589359283449,-0.6693290016174316
1758278542984974600,299.346974609375,-0.105943423461914,13.314903620147703,-0.6096235977172851
1758278542995059500,299.3570595703125,-0.1526303558349609,13.498508959960937,-0.3908534210205078
1758278543005143300,299.36714331054685,0.0124199211120605,13.481001360321043,-0.0402525154113769
1758278543015228400,299.377228515625,0.4056675437927245,13.19085404663086,0.4640262092590331
1758278543025312500,299.3873125,1.0076596237182616,12.690316262054443,0.9006687370300293
1758278543035397600,299.3973977050781,1.4769231491088866,12.132766550445556,0.9790788414001464
1758278543045481500,299.4074814453125,1.854009910583496,11.59526827774048,0.7179612228393554
1758278543055566600,299.4175666503906,1.7395371437072753,10.857255615997314,0.2913444145202636
1758278543065650400,299.427650390625,1.0568903953552244,9.734075762176513,-0.1218050094604492
1758278543075735600,299.43773559570315,0.2045546043395996,8.582614401245117,-0.3824737152099609
1758278543085819400,299.4478193359375,-0.4230255058288574,7.612663453674316,-0.4807856208801269
1758278543095904500,299.45790454101564,-0.9085995300292968,6.923881563568115,-0.2181716262817382
1758278543105988600,299.46798852539064,-1.2490250785827637,6.465990496063232,0.0926256767272949
1758278543116073700,299.47807373046874,-1.421856510925293,6.237942787933349,0.2668038475036621
1758278543126157600,299.4881574707032,-1.6570868240356444,6.10296966934204,0.2988262947082519
1758278543136242700,299.4982426757812,-1.930774001312256,6.078878015136718,0.3004723083496093
1758278543146326500,299.5083264160156,-2.065148569488525,6.1544450050354,0.3537432952880859
1758278543156410400,299.5184104003906,-1.9936217948913573,6.3064768104553215,0.4742015663146972
1758278543166495500,299.5284956054688,-1.8179472480773924,6.492476351928711,0.7404068634033203
1758278543176579600,299.5385795898438,-1.6579846496582031,6.70331573562622,1.0718541557312011
1758278543186664700,299.5486647949219,-1.465251416015625,6.93929423675537,1.4770727867126463
1758278543196748500,299.55874853515627,-1.2868833923339842,7.199813304901123,1.9635446365356444
1758278543206833700,299.5688337402344,-1.0832266136169433,7.604433385467529,2.492513565826416
1758278543216917500,299.5789174804688,-0.9006687370300293,8.222735964202881,2.956240499877929
1758278543227002600,299.58900268554686,-0.8795698348999023,8.9508725440979,3.424007649230957
1758278543237086500,299.59908642578125,-1.0333972915649414,9.771485163116454,3.980210622406005
1758278543247171600,299.6091716308593,-1.1825859825134275,10.56606083908081,4.689193589019775
1758278543257255700,299.61925561523435,-1.2113164024353027,11.18002392730713,5.354781650543212
1758278543267340500,299.6293405761719,-0.6983586967468262,11.424681409454346,5.687725318908691
1758278543277424600,299.6394245605469,0.4125508735656738,11.119570335388184,5.366603021240234
1758278543287509500,299.6495095214844,1.5081974082946776,10.433781197357176,4.67976641998291
1758278543297593600,299.6595935058594,1.8409914390563964,9.47400560684204,4.1849148643493645
1758278543307678500,299.6696784667969,2.0121768577575683,8.770559231567383,4.118775043487549
1758278543317762600,299.6797624511719,2.2486042716979977,8.623315829467773,4.267814096832275
1758278543327847400,299.6898474121094,2.6692355758666992,8.737938233947753,4.377199185180664
1758278543337931500,299.699931640625,3.017143004608154,9.262418035125732,4.478054930114745
1758278543348016400,299.71001635742186,3.101837888336181,10.031256043243408,4.7010149597167965
1758278543358100500,299.7201005859375,2.9427731155395507,10.724227786254882,4.892251817321777
1758278543368185600,299.730185546875,2.734028658294678,11.138574311065671,4.735581246185302
1758278543378269400,299.74026953125,2.704550050354004,11.425279959869384,4.252999974060058
1758278543388354600,299.7503544921875,2.8434137466430665,11.819575045776366,3.711162210845947
1758278543398438400,299.7604384765625,2.95579158706665,12.490699698638917,3.3195606018066406
1758278543408523500,299.7705234375,2.946514055633545,13.491027079772948,3.225588186645508
1758278543418607400,299.780607421875,2.7449522033691403,14.299219777679442,3.472190957641601
1758278543428691700,299.7906916503906,2.635567115020752,14.297124851226808,3.7784991325378416
1758278543438776600,299.8007766113281,2.742258726501465,13.090896127319334,3.846584242248535
1758278543448860400,299.8108603515625,3.118746937561035,11.431864014434812,3.456628646850586
1758278543458945500,299.82094555664065,3.5613749694824217,10.14498062210083,2.791489498138428
1758278543469030000,299.83102978515626,3.8524201087951657,9.386467608642578,1.9846435386657717
1758278543479115000,299.8411149902344,3.839551274871826,8.999504765319823,1.0598831474304198
1758278543489198800,299.85119873046875,3.453336619567871,9.030030836486816,0.2180219886779785
1758278543499284000,299.86128393554685,2.7537808219909667,9.478494734954834,-0.3479074287414551
1758278543509368000,299.8713681640625,2.011877582550049,10.030358217620847,-0.5799953521728515
1758278543519453000,299.8814528808594,1.3397054664611816,10.524910498046877,-0.462829108428955
1758278543529537000,299.891537109375,0.7779659019470214,10.736647707366943,0.0014963760375976
1758278543539622100,299.9016220703125,0.2979284690856933,10.746224514007569,0.7166144844055176
1758278543549706000,299.9117060546875,-0.0460883819580078,10.688913311767578,1.4544775085449215
1758278543559791000,299.921791015625,-0.1937806968688964,10.593145245361328,1.9313725517272948
1758278543569875000,299.931875,-0.1526303558349609,10.403105488586425,2.1537340309143067
1758278543579960000,299.9419599609375,-0.0418985290527343,10.04861400527954,2.000355487060547
1758278543590044000,299.9520439453125,0.2454056701660156,9.598204817962646,1.6493056686401366
1758278543600129000,299.96212890625,0.5054758255004882,9.157821350097656,1.2123638656616211
1758278543610213000,299.97221313476564,0.5289689292907714,8.680627031707763,0.7921814743041992
1758278543620298000,299.9822980957032,0.3125929542541503,8.183381274414062,0.4896142395019531
1758278543630382000,299.99238208007813,0.074669164276123,7.7389575912475586,0.3022679595947265
1758278543640467000,300.0024670410156,-0.1464952140808105,7.417536018371582,0.1402104347229003
1758278543650551000,300.0125510253906,-0.3827729904174804,7.20789373550415,-0.0799064804077148
1758278543660636000,300.0226359863281,-0.6169558403015136,7.126490879058838,-0.4061164566040038
1758278543670720000,300.0327199707031,-0.7799111907958984,7.063044535064697,-0.776319888305664
1758278543680804900,300.0428049316406,-0.8251017471313477,7.113472407531738,-1.0024223075866698
1758278543690889200,300.05288916015627,-0.8526350662231444,7.295132458496093,-1.2843395530700683
1758278543700974000,300.06297412109376,-0.8197147933959961,7.677755811309814,-1.3946224670410154
1758278543711058200,300.0730581054688,-0.8530839790344238,8.201038511657714,-1.2764087600708007
1758278543721143000,300.08314306640625,-0.8444049980163574,8.781333139038086,-0.98955347366333
1758278543731227000,300.09322680664064,-0.7462427299499511,9.312546632385253,-0.5735609352111816
1758278543741312000,300.10331201171874,-0.6630442222595214,9.67930839920044,-0.028730419921875
1758278543751395800,300.11339575195314,-0.4800374328613281,9.87039561920166,0.5910685348510741
1758278543761481000,300.12348095703123,-0.1349731185913086,9.938031816101072,1.201589958190918
1758278543771565000,300.13356494140623,0.2892494880676269,10.020033222961423,1.7597382202148435
1758278543781650200,300.1436501464844,0.7441478034973145,10.046967991638184,2.216581824493408
1758278543791734000,300.1537341308594,1.2196961082458495,10.083329929351804,2.5800515640258785
1758278543801819100,300.1638190917969,1.6291045921325682,10.017489383697509,2.8658593872070317
1758278543811903000,300.1739030761719,2.0245967788696286,9.847800341033937,3.0246248847961423
1758278543821988000,300.1839880371094,2.3090578636169434,9.60838017501831,3.017591917419433
1758278543832072000,300.1940720214844,2.5418939750671385,9.30252091293335,2.957138325500488
1758278543842157000,300.20415698242186,2.6937761428833005,9.000103315734863,2.7932851493835447
1758278543852241200,300.2142412109375,2.7802666778564453,8.711901290893554,2.47081611328125
1758278543862326000,300.2243259277344,2.7985224655151364,8.489240536499024,2.015618522644043
1758278543872410000,300.23441015625,2.7398645248413085,8.353219954681396,1.4704887321472166
1758278543882495000,300.24449487304685,2.656516379547119,8.34409206085205,0.8837596878051758
1758278543892579000,300.2545791015625,2.564040340423584,8.497021691894531,0.2759317413330078
1758278543902664000,300.2646638183594,2.4396914916992185,8.844330570220947,-0.2774281173706054
1758278543912748000,300.274748046875,2.257432890319824,9.30760859146118,-0.7344213592529296
1758278543922833000,300.2848330078125,2.06215581741333,9.7423058303833,-1.1119570335388185
1758278543932917000,300.2949169921875,1.880795041656494,10.091111084747316,-1.339555828857422
1758278543943002000,300.30500219726565,1.7354969284057615,10.368838477325438,-1.432630418395996
1758278543953086200,300.31508618164065,1.5876549758911132,10.599430024719238,-1.4182652084350584
1758278543963171000,300.32517114257814,1.4184148460388182,10.807276656341552,-1.3162123626708984
1758278543973255000,300.3352548828125,1.303642803955078,10.98788924407959,-1.163133094024658
1758278543983340000,300.34534008789063,1.250671092224121,11.13498300857544,-0.935983211517334
1758278543993424000,300.355423828125,1.292120708465576,11.138275035858154,-0.6558616172790527
1758278544003509000,300.3655090332031,1.4106336906433106,10.964994690704344,-0.4173392768859863
1758278544013592800,300.3755927734375,1.505354293823242,10.563965912628174,-0.2258031440734863
1758278544023678000,300.3856779785156,1.6442179901123046,10.00491982498169,-0.0495300468444824
1758278544033762000,300.3957619628906,1.8085200790405271,9.364770156097412,0.0950198783874511
1758278544043847200,300.4058471679688,1.946635587310791,8.785822267150879,0.2454056701660156
1758278544053931000,300.4159309082031,2.079364141845703,8.402001813507079,0.4574421546936035
1758278544064016100,300.42601611328126,2.1589713470458984,8.310722875213623,0.6654384239196777
1758278544074100000,300.4360998535156,2.0971710166931152,8.604311853790282,0.9323919090270996
1758278544084185000,300.44618505859376,1.8255787658691405,9.15572642364502,1.1240776794433591
1758278544094269000,300.4562690429688,1.4404115737915038,9.889249957275393,1.35990654296875
1758278544104353800,300.46635375976564,1.0290578010559082,10.771363631439208,1.5957354064941405
1758278544114438100,300.47643823242186,0.5885246955871581,11.641805572509766,1.804779138946533
1758278544124523000,300.48652294921874,0.1785176612854004,12.333580214691162,1.90249249420166
1758278544134607000,300.49660717773435,-0.0604535919189453,12.827982857513428,2.0177134490966795
1758278544144692000,300.50669189453123,-0.1244984863281249,13.258639881134032,2.150890916442871
1758278544154776000,300.5167761230469,-0.2467524085998535,13.581707467651366,2.039111626434326
1758278544164861000,300.5268608398438,-0.2862567359924316,13.72670630569458,1.974019268798828
1758278544174945000,300.5369450683594,-0.2696469619750976,13.657723370361328,2.0670938583374023
1758278544185030000,300.54702978515627,-0.2590226921081542,13.322086225128173,2.2123919715881346
1758278544195114200,300.5571142578125,-0.1343745681762695,12.863297332000732,2.2711995498657225
1758278544205199000,300.56719921875,-0.0008978256225585,12.356025855255126,2.1965303855895995
1758278544215283000,300.5772829589844,0.0486322212219238,11.817929032135009,2.1245546981811523
1758278544225368000,300.5873681640625,-0.1147720420837402,11.181520303344726,1.9469348625183105
1758278544235452000,300.59745190429686,-0.0960673416137695,10.53343984146118,1.77485161819458
1758278544245537000,300.607537109375,-0.1376665954589843,9.83882208480835,1.697488977050781
1758278544255620900,300.6176208496093,-0.2012625770568847,9.146149617004394,1.6716016716003417
1758278544265706000,300.6277060546875,-0.1677437538146972,8.557774559020995,1.6657658050537107
1758278544275790000,300.6377900390625,-0.0770633659362793,8.058433875274657,1.6888099960327148
1758278544285875200,300.6478752441406,-0.1273416007995605,7.700051814270019,1.7036241188049317
1758278544295959000,300.657958984375,-0.3865139305114746,7.376834590148925,1.681028840637207
1758278544306044200,300.6680441894531,-0.6323685134887695,7.136815873718262,1.6488567558288574
1758278544316128000,300.6781279296875,-0.5773018753051757,6.995857250976562,1.702726293182373
1758278544326213000,300.68821313476565,-0.535702621459961,6.906224326324463,1.6891092712402342
1758278544336297000,300.698296875,-0.5738602104187012,6.789656632995605,1.641374875640869
1758278544346382000,300.70838208007814,-0.4165910888671875,6.72935267868042,1.618480322265625
1758278544356466200,300.71846606445314,-0.1906383071899414,6.760327662658691,1.668160006713867
1758278544366551000,300.72855102539063,-0.2926911529541015,6.833350813293457,1.7521067024230956
1758278544376635100,300.73863525390624,-0.4261678955078125,7.000047103881836,1.939602619934082
1758278544386720000,300.7487199707031,-0.3458125022888183,7.286603115081786,2.193537633514404
1758278544396804000,300.7588041992188,-0.3706523445129394,7.647678652954101,2.427271570587158
1758278544406889000,300.7688889160156,-0.4593874435424804,8.182483448791503,2.589478733062744
1758278544416973000,300.7789731445313,-0.4649240348815918,8.894908080291748,2.7570728492736816
1758278544427058000,300.7890578613281,-0.5574000740051269,9.603142858886718,3.1051299156188965
1758278544437142000,300.79914208984377,-0.5749076736450195,10.178649082946777,3.7202901046752928
1758278544447227000,300.80922680664065,-0.3128922294616699,10.625915880584715,4.429123433685303
1758278544457312000,300.81931201171875,0.0716764122009277,10.839149465942382,4.867112699890137
1758278544467396000,300.8293959960937,0.5415384880065918,10.603021327209472,4.865466686248779
1758278544477481000,300.83948095703124,0.9478045822143554,10.051457119750976,4.608090007781982
1758278544487565000,300.84956494140624,1.3799579818725585,9.639055883789062,4.242226066589355
1758278544497650000,300.85964990234373,1.6880618080139158,9.568875847625732,3.845686416625977
1758278544507733800,300.8697336425781,1.2786533241271971,9.60269394607544,3.70936655960083
1758278544517819000,300.8798188476562,0.8834604125976562,9.42866541290283,4.013729445648194
1758278544527902700,300.8899028320312,1.3667898727416992,9.60838017501831,4.337395582580566
1758278544537987800,300.8999877929688,2.06170690460205,10.103680643463134,4.50124875869751
1758278544548072000,300.9100720214844,2.6056395942687987,10.626215155792236,4.44962378540039
1758278544558157000,300.9201569824219,2.9123966819763183,11.19813007736206,4.312855015563964
1758278544568241000,300.9302409667969,2.9964930152893063,11.969811199951172,4.294898503112793
1758278544578326000,300.9403259277344,2.953247747802734,12.92090780944824,4.367772016143799
1758278544588409900,300.95040991210936,2.8176760787963864,13.881281950378416,4.671386714172363
1758278544598495000,300.96049487304685,2.679111657714844,14.214375256347656,5.063736511230468
1758278544608578800,300.97057885742186,2.751087345123291,13.262081546020507,5.214720853424072
1758278544618664000,300.9806638183594,3.075950582885742,11.59377190170288,4.859930094909668
1758278544628748000,300.990748046875,3.52426484375,10.166678074645995,4.077923977661133
1758278544638833200,301.0008332519531,3.831919757080078,9.252691590881348,3.201346894836425
1758278544648917000,301.0109169921875,3.812466868591308,8.706215061950683,2.3669676162719724
1758278544659001900,301.021001953125,3.6017771224975585,8.463053955841064,1.5656582481384276
1758278544669086000,301.0310859375,3.1166520111083984,8.512733640289307,0.8411129707336426
1758278544679170800,301.0411708984375,2.56000012512207,8.856600853729248,0.423923331451416
1758278544689255000,301.0512548828125,1.814355945587158,9.428216500091551,0.3163338943481445
1758278544699339800,301.06133984375,0.9100959060668944,10.083778842163085,0.4572925170898437
1758278544709424000,301.07142407226564,-0.0480336708068847,10.851569387054443,0.912340470123291
1758278544719509000,301.08150903320313,-0.7870937957763672,11.448324150848388,1.381454357910156
1758278544729594000,301.0915939941406,-1.0965443603515623,11.787253323364258,1.7542016288757325
1758278544739678000,301.1016779785156,-1.0102034629821777,11.813589541625976,1.9482816009521484
1758278544749763000,301.1117631835937,-0.713771369934082,11.45894842071533,1.8722656982421877
1758278544759847000,301.1218469238281,-0.275782103729248,10.889876613616943,1.4993687896728514
1758278544769932000,301.13193212890627,0.2032078659057617,10.352677616119385,1.003619408416748
1758278544780015900,301.1420158691406,0.4089595710754394,9.811438403320311,0.5229834251403809
1758278544790101000,301.1521010742188,0.2928407905578613,9.246706086730956,0.2380734275817871
1758278544800185000,301.16218505859376,-0.0029927520751953,8.731653454589843,0.1333271049499511
1758278544810270000,301.17227001953125,-0.316034619140625,8.253860585784912,0.1702875930786132
1758278544820354000,301.18235400390626,-0.538845011138916,7.7608046813964835,0.1238999359130859
1758278544830439000,301.19243896484375,-0.5506663818359374,7.281365798950195,0.0320224472045898
1758278544840523000,301.20252294921875,-0.4486135360717773,6.911461642456055,0.0041898529052734
1758278544850607900,301.21260791015624,-0.2422632804870605,6.675333503723144,0.1238999359130859
1758278544860692000,301.22269189453124,-0.0297778831481933,6.706308487701415,0.4176385520935058
1758278544870776800,301.2327768554687,0.2075473564147949,7.011569199371338,0.773776049041748
1758278544880861000,301.24286083984373,0.4976946701049804,7.430704127502441,1.2056301734924315
1758278544890945800,301.2529458007813,0.8708908538818358,7.804049948883057,1.676539712524414
1758278544901031000,301.2630310058594,1.2035352470397949,8.145223685455322,2.13877027053833
1758278544911115000,301.2731149902344,1.4691419937133787,8.505102122497558,2.524835288238525
1758278544921200000,301.2832001953125,1.7414824325561522,8.883685260009765,2.914042695617676
1758278544931284000,301.29328393554687,1.975964557647705,9.252242678070068,3.2315736907958983
1758278544941369000,301.303369140625,2.1869535789489745,9.507075517272948,3.477428273773193
1758278544951453000,301.31345288085936,2.373551670837402,9.593566052246093,3.659088324737549
1758278544961537800,301.32353784179685,2.5341128196716305,9.572616787719726,3.772513628387451
1758278544971622000,301.33362182617185,2.661005507659912,9.482684587860106,3.688866207885742
1758278544981706800,301.3437067871094,2.681954772186279,9.393350938415526,3.472490232849121
1758278544991791000,301.353791015625,2.7638065414428707,9.26421368637085,3.2881367050170898
1758278545001876000,301.3638759765625,2.7971757270812985,9.120860861968994,3.0726585556030277
1758278545011960000,301.3739599609375,2.7296891677856445,9.024344607543943,2.8411691825866696
1758278545022045000,301.384044921875,2.664297534942627,9.058013068389892,2.6322750877380368
1758278545032129000,301.39412890625,2.64304899520874,9.17981807785034,2.510320440673828
1758278545042214000,301.4042138671875,2.6396073303222654,9.252841228485106,2.3786393493652342
1758278545052297700,301.4142976074219,2.5821464904785154,9.168894532775878,2.17707749710083
1758278545062382800,301.4243828125,2.569576931762695,8.913463143157959,1.8417396270751951
1758278545072468000,301.4344680175781,2.6958710693359373,8.686163623046875,1.4309844047546385
1758278545082552000,301.4445520019531,2.837877155303955,8.581267662811278,1.0371382316589357
1758278545092637000,301.4546369628906,2.907757916259765,8.57962164916992,0.6905775413513183
1758278545102721000,301.4647209472656,2.9749452003479,8.706663974761963,0.3803787887573241
