time,seconds_elapsed,z,y,x
1758278368255241000,124.61724096679689,1.2384008087158205,9.182960467529297,2.5802012016296385
1758278368265325800,124.62732592773438,1.3217489540100096,8.742427362060546,2.917783635711669
1758278368275410000,124.63740991210938,1.2173019065856934,8.450334759521484,3.2870892417907718
1758278368285494300,124.64749438476562,1.024119760131836,8.174702293395995,3.5612253318786617
1758278368295578400,124.65757836914062,0.8367734802246093,7.98077195892334,3.770119426727295
1758278368305662500,124.66766235351562,0.6648398735046386,7.76978293762207,3.882197991943359
1758278368315747600,124.67774755859377,0.6522703147888184,7.577797891998291,3.940407019805908
1758278368325831400,124.68783154296877,0.6886322525024413,7.37399147567749,3.8934208122253415
1758278368335916300,124.69791625976562,0.7695861961364746,7.230638651275634,3.810820854949951
1758278368346000400,124.70800048828124,0.8906430175781249,7.251438278198242,3.7174469902038574
1758278368356084200,124.71808422851562,0.927004955291748,7.411700151824951,3.606116613006592
1758278368366169300,124.72816943359376,0.9296984321594238,7.7142673866271965,3.717596627807617
1758278368376253400,124.73825341796876,0.8527847038269043,8.164078023529052,4.066401882171631
1758278368386338600,124.74833862304688,0.7556698989868164,8.702923034667968,4.4476784965515135
1758278368396422400,124.75842236328126,0.5674257934570313,9.414749115753173,4.62829108428955
1758278368406507500,124.76850756835935,0.0333691856384277,10.11280853729248,4.356848471069336
1758278368416591400,124.77859130859376,-0.3965396499633788,10.377816733551024,3.5009213775634764
1758278368426675200,124.78867529296876,-1.033696566772461,10.269778383636474,2.2738930267333983
1758278368436760300,124.79876025390624,-1.6341922706604004,9.977386505889893,1.8448820167541504
1758278368446844400,124.80884448242188,-0.5819406410217285,9.903615167236328,2.27284556350708
1758278368456929500,124.81892944335938,1.05344873046875,10.083329929351804,2.879925321960449
1758278368467013400,124.82901342773438,1.5484499237060545,9.62065045852661,3.6742017227172847
1758278368477097500,124.83909741210938,0.6813000099182128,8.820538191223145,4.515613968658447
1758278368487182300,124.84918237304689,-0.3538929328918457,7.983914348602294,5.1219455390930175
1758278368497266200,124.85926611328124,-0.3927987098693847,7.215225978088378,5.352088173675536
1758278368507351300,124.86935131835938,0.728435855102539,6.617124475860595,5.060444483947753
1758278368517435400,124.87943530273438,2.3044190979003907,6.372616631317138,4.428225608062744
1758278368527520500,124.8895205078125,3.2767642471313474,6.905775413513183,4.1754876953125
1758278368537604400,124.89960424804688,3.412036640930176,8.339453295135497,4.648342523193359
1758278368547688400,124.9096884765625,3.418770333099365,10.425251853942871,5.3770776535034175
1758278368557773300,124.91977319335938,3.815010707855224,12.746879276275632,6.124966397094727
1758278368567857400,124.929857421875,4.211101445007324,14.376133506011962,6.678625531005859
1758278368577942300,124.9399423828125,4.301781832885742,14.28111362762451,6.514473079681396
1758278368588026400,124.9500263671875,4.504391148376465,12.691064450073242,5.354931288146973
1758278368598110500,124.9601103515625,5.0023850936889644,11.003900467681884,3.726275608825683
1758278368608195300,124.9701953125,5.472247169494628,10.065074141693117,2.08145906829834
1758278368618279400,124.98027954101562,5.416881256103515,9.890297420501708,0.7960720520019531
1758278368628364300,124.9903642578125,4.612279860687256,10.306439596557617,0.2389712532043457
1758278368638448400,125.00044848632812,3.4097920768737797,11.046846459960936,0.4055179061889648
1758278368648532500,125.01053247070313,2.331802779388428,11.743708780670165,1.1640309196472167
1758278368658617600,125.02061767578124,1.3283330085754397,12.197110720062255,2.2659622337341307
1758278368668701400,125.03070141601565,0.7043442008972167,12.331186013031004,3.4370261207580564
1758278368678786600,125.04078662109374,0.5294178421020508,12.214169406890868,4.420594090270996
1758278368688870400,125.05087036132812,0.7592612014770508,11.870751106262206,5.002834006500244
1758278368698954200,125.06095434570312,1.1682207725524902,11.397896278381348,5.258415033721923
1758278368709039400,125.07103930664064,1.4737807594299317,10.730811840820312,5.288342554473877
1758278368719123500,125.08112353515624,1.676090799713135,9.949553911590575,5.0303673255920405
1758278368729208600,125.09120849609376,1.779490383911133,9.1539307723999,4.642656294250488
1758278368739292400,125.10129248046874,1.7087117973327637,8.408735505676269,4.056675437927246
1758278368749377500,125.11137744140623,1.3510779243469238,7.735067013549804,3.3348236373901363
1758278368759461400,125.12146142578123,0.9222165519714356,7.259219433593749,2.700958747863769
1758278368769545200,125.13154516601564,0.679953271484375,7.049277875518799,2.3546973327636715
1758278368779630300,125.14163037109375,0.5214870491027832,7.108534366607666,2.255038688659668
1758278368789714400,125.15171435546876,0.4976946701049804,7.289296591949462,2.169296341705322
1758278368799799600,125.16179956054688,0.6898293533325195,7.5074682182312,2.0869956596374517
1758278368809883400,125.17188330078125,0.9681552963256836,7.711723547363281,2.008585555267334
1758278368819967500,125.18196752929688,1.2301707405090332,7.862258976745605,1.8574515754699703
1758278368830052400,125.19205224609377,1.339555828857422,8.106467546081543,1.632396619415283
1758278368840136200,125.20213623046877,1.301248602294922,8.474426413726807,1.3311761230468748
1758278368850221300,125.21222119140624,1.3741221153259278,8.999055852508544,1.1731588134765625
1758278368860305400,125.22230541992188,1.435772808074951,9.625289224243163,1.10447515335083
1758278368870390500,125.232390625,1.3423989433288577,10.153659603118896,1.057339308166504
1758278368880474400,125.24247436523436,1.1263222434997555,10.537330419158934,1.0609306106567382
1758278368890558500,125.25255834960936,0.966509282684326,10.633996311187744,1.1974001052856444
1758278368900643300,125.26264331054688,1.0217255584716796,10.47074168548584,1.2779051361083984
1758278368910727400,125.2727275390625,1.1104606575012206,10.16428387298584,1.366939510345459
1758278368920812300,125.28281225585935,1.2725181823730467,9.89568437423706,1.563563321685791
1758278368930896400,125.292896484375,1.4384662849426268,9.681852238464357,1.6753426116943355
1758278368940980500,125.30298046875,1.4966753128051755,9.554061724853517,1.9738696311950683
1758278368951065300,125.3130654296875,1.578826357269287,9.249549201202392,2.20909994430542
1758278368961149400,125.3231494140625,1.6401777748107909,8.79165813369751,2.230647759246826
1758278368971234300,125.333234375,1.5493477493286132,8.467094171142577,2.387168692779541
1758278368981318400,125.343318359375,1.4966753128051755,8.16527512435913,2.6063877822875976
1758278368991402500,125.35340258789064,1.7414824325561522,7.874978173065185,2.7467478546142576
1758278369001487600,125.36348754882812,2.122908684539795,7.461679111480713,2.66863702545166
1758278369011571500,125.37357153320312,2.6421511695861817,7.019350354766845,2.423829905700684
1758278369021656600,125.38365649414062,3.2131682655334477,6.648698010253906,2.064101106262207
1758278369031740400,125.39374047851562,3.668365856170654,6.518962207794189,1.5439607955932615
1758278369041824300,125.40382421875,3.972878379821777,6.752995420074463,0.956333925628662
1758278369051909400,125.41390942382812,4.231751434326172,7.305457453155517,0.3532943824768066
1758278369061993500,125.42399340820312,4.245967006683349,7.954585378265381,-0.1626560752868652
1758278369072078600,125.43407861328124,3.970633815765381,8.575132521057128,-0.4222773178100585
1758278369082162400,125.44416235351562,3.672406071472168,9.156324974060055,-0.4435258575439453
1758278369092247600,125.45424755859376,3.436128295135498,9.722553666687013,-0.4079121078491211
1758278369102331400,125.46433129882811,3.2267852874755856,10.17640451889038,-0.3714005325317382
1758278369112415200,125.47441528320311,3.0974983978271484,10.345495011138915,-0.2027589530944824
1758278369122500400,125.48450024414062,3.0828339126586912,10.16428387298584,0.1007061073303222
1758278369132584400,125.49458447265626,3.103184626770019,9.72913772125244,0.4542997650146484
1758278369142669300,125.50466943359376,3.1573534393310547,9.160514826965333,0.7212532501220703
1758278369152753400,125.51475341796876,3.340809141540527,8.553435068511963,0.8587702079772949
1758278369162837500,125.52483740234376,3.4617163253784176,8.122029856872558,0.8646060745239257
1758278369172922400,125.53492236328124,3.405602223968505,7.926752783966064,0.9612719665527344
1758278369183006200,125.54500610351562,3.2851439529418944,8.101080592346191,1.1207856521606443
1758278369193091300,125.55509130859376,3.093458182525634,8.704120135498046,1.2707225311279295
1758278369203175400,125.56517553710935,2.8262054222106934,9.662249712371825,1.340004741668701
1758278369213259500,125.57525952148436,2.4212860664367675,10.87236901397705,1.356764153289795
1758278369223344400,125.58534448242187,1.7878700897216795,12.029666241455075,1.287182667541504
1758278369233428500,125.59542846679688,1.1710638870239256,13.02400811843872,1.1840823585510254
1758278369243513300,125.60551342773438,0.639700756072998,13.955202926635742,1.000477018737793
1758278369253597400,125.61559741210938,0.2672527603149414,14.814122772216797,0.8259995727539062
1758278369263682300,125.62568237304689,0.079158292388916,15.534927109527588,0.6989572471618652
1758278369273766400,125.63576635742189,-0.0653916328430175,16.046388439178465,0.605882657623291
1758278369283851000,125.64585107421875,-0.2150292366027832,16.080356175231934,0.5407902999877929
1758278369293936000,125.65593603515624,-0.0245405670166015,15.6531408164978,0.5659294174194336
1758278369304020000,125.66602001953125,0.2293944465637206,14.956278495788574,0.3995324020385742
1758278369314105000,125.67610498046876,0.199167650604248,14.02059455947876,0.1611596992492675
1758278369324189000,125.68618896484377,0.0601543167114257,12.961609237670896,0.0173579620361328
1758278369334273000,125.69627294921877,-0.0426467170715332,11.806556574249267,0.1102829139709472
1758278369344358000,125.70635791015626,-0.1192611701965331,10.766126315307616,0.3802291511535644
1758278369354442200,125.71644213867188,-0.3365349708557129,9.866355403900146,0.6132149002075195
1758278369364527000,125.72652709960936,-0.6048351943969726,9.12370397644043,0.9175777862548828
1758278369374611200,125.73661108398436,-0.7414543266296386,8.49103618774414,1.384147834777832
1758278369384695000,125.74669506835936,-0.5753565864562988,8.003067961883545,1.9834464378356933
1758278369394780000,125.75677978515624,-0.3559878593444824,7.6990043510437,2.622698281097412
1758278369404864000,125.76686401367188,-0.3731961837768554,7.518990313720702,3.1542110496520994
1758278369414948900,125.77694897460935,-0.311545491027832,7.481730550384521,3.5326445495605467
1758278369425033200,125.787033203125,-0.0996586441040039,7.573608039093017,3.833416133117676
1758278369435117000,125.79711694335936,-0.0151133979797363,7.799560820770263,3.9920319931030273
1758278369445202200,125.8072021484375,0.2033575035095214,8.317606204986571,4.07971962890625
1758278369455286000,125.8172861328125,0.557998624420166,9.171288734436034,4.147056550598144
1758278369465371100,125.82737109375,0.4595370811462402,9.935936889648437,4.31599740524292
1758278369475455000,125.837455078125,0.337732071685791,10.414328308868408,4.719270747375488
1758278369485539000,125.8475390625,0.6851905876159667,10.749067628479004,5.125985754394531
1758278369495624200,125.85762426757812,0.9584288520812988,10.94808564147949,5.194669414520264
1758278369505708000,125.8677080078125,1.0401309837341308,11.15353807144165,4.882076460266113
1758278369515793200,125.87779321289062,1.055244381713867,11.311106468200682,4.396502436065673
1758278369525877000,125.887876953125,0.7109282554626465,11.247360848999024,3.9196073928833006
1758278369535962000,125.89796215820311,0.5183446594238281,10.80817448196411,3.573944528198242
1758278369546046000,125.9080458984375,0.9686042091369628,10.407744254302978,3.191021900177002
1758278369556130000,125.91813012695312,1.6361375595092773,10.053552046203611,2.5412954246521
1758278369566215000,125.92821484375,1.6792331893920898,9.354894074249268,2.1269488998413086
1758278369576299000,125.93829907226562,1.624914739227295,8.557325646209716,2.154631856536865
1758278369586384100,125.94838403320313,2.056469588470459,7.96161834564209,1.9234417587280277
1758278369596468000,125.95846801757811,2.7186159851074216,7.420678408050537,1.3275848205566405
1758278369606552000,125.96855200195311,3.228431301116943,6.972513784790039,0.758513013458252
1758278369616637000,125.97863696289062,3.445705101776123,6.829609873199463,0.4773439559936523
1758278369626721000,125.98872094726562,3.4549826332092284,7.064391273498535,0.6622960342407226
1758278369636806000,125.99880590820312,3.321056977844238,7.8255977638244625,1.288828681182861
1758278369646890000,126.00888989257813,3.105429190826416,9.118466660308837,1.983596075439453
1758278369656974000,126.01897412109376,2.931101382446289,10.7888712310791,2.6568156547546384
1758278369667059000,126.02905883789064,2.944269491577148,12.562825023651122,3.449446041870117
1758278369677143000,126.03914306640624,3.106775929260254,14.028226077270508,4.193294570159912
1758278369687228000,126.04922778320312,3.3857004226684566,14.6318641708374,4.572625895690917
1758278369697312000,126.05931201171876,3.72866981048584,14.239215098571776,4.765658404541015
1758278369707396000,126.06939599609376,4.0909424491882325,13.127407702636718,4.98607459487915
1758278369717481200,126.07948120117187,4.695179093170165,11.933149987030028,5.029619137573242
1758278369727565000,126.08956494140624,5.203946945953369,11.19753152694702,4.9528550468444825
1758278369737650000,126.09964990234376,5.355230563354492,10.82179150390625,4.86531704864502
1758278369747734000,126.10973413085938,5.143792629241943,10.588955392456054,4.805312369537353
1758278369757817900,126.11981787109374,4.92232897567749,10.309282711029052,4.766107317352295
1758278369767903000,126.12990307617189,4.678419681549072,10.030956768035889,4.677372218322754
1758278369777987000,126.13998706054689,4.267365184020996,9.746495683288574,4.579060312652588
1758278369788072200,126.150072265625,3.725677058410645,9.457545470428466,4.446032482910156
1758278369798156000,126.16015600585938,3.2302269523620604,9.214534001922608,4.311358639526367
1758278369808239900,126.17023999023438,2.755875748443603,8.974964198303223,4.202123188781738
1758278369818325000,126.18032495117188,2.1999720504760742,8.604012578582763,4.0161236473083495
1758278369828408800,126.19040893554688,1.664119791412353,8.153902666473389,3.821145849609375
1758278369838494000,126.20049389648436,1.1155483360290526,7.674912696838378,3.669862232208252
1758278369848578000,126.210578125,0.6500257507324219,7.170185059356689,3.503016304016113
1758278369858663200,126.2206630859375,0.3265092514038086,6.689249800872802,3.363254782104492
1758278369868747000,126.2307470703125,-0.0885854614257812,6.190507667541503,3.1956606658935547
1758278369878830800,126.24083081054688,-0.4942530052185058,5.640290198516845,2.97524447555542
1758278369888916000,126.250916015625,-0.9709984107971192,5.186289708709716,2.914341970825195
1758278369898999800,126.26099975585936,-1.313818161010742,4.7685015190124505,2.970456072235107
1758278369909085000,126.2710849609375,-1.526602833557129,4.41790061340332,2.980631429290771
1758278369919169000,126.2811689453125,-1.622819812774658,4.119972144317627,2.9685107833862303
1758278369929253000,126.29125317382812,-1.556380716705322,3.927987098693847,2.912546319580078
1758278369939338000,126.301337890625,-1.1583446907043455,3.9158664527893055,2.870198877716064
1758278369949422000,126.31142211914064,-0.6615478462219238,4.19479094619751,2.830844187927246
1758278369959507000,126.3215068359375,-0.1367687698364257,4.885518125152587,2.786850732421875
1758278369969591000,126.33159106445312,0.361374813079834,5.9488429374694825,2.569576931762695
1758278369979675100,126.34167504882812,0.91293902053833,7.391798350524902,2.1704934425354003
1758278369989760000,126.35176000976564,1.5034090049743651,9.099462684631348,1.6335937202453612
1758278369999844000,126.36184399414064,2.058414877319336,10.817751288604736,0.8936357696533203
1758278370009929000,126.37192895507812,2.627037771606445,12.39822365951538,0.0483329460144042
1758278370020013000,126.38201293945312,3.414281204986572,13.762768968200684,-0.7742249618530272
1758278370030097000,126.39209692382812,4.211400720214844,14.525471834564208,-1.2559084083557128
1758278370040182000,126.40218212890623,4.857236618041992,14.650269596099852,-1.2345102310180662
1758278370050266000,126.41226611328123,4.94148258895874,14.200758234405516,-0.8756792572021483
1758278370060351200,126.42235131835938,4.674080191040039,13.691242193603514,-0.4070142822265625
1758278370070435000,126.43243505859375,4.515165055847167,13.468431801605224,0.1542763694763183
1758278370080519000,126.44251879882812,4.23968222732544,13.47651223220825,0.9259574920654297
1758278370090604000,126.45260400390625,3.6296097167968746,13.558513639068602,2.061407629394531
1758278370100688000,126.46268798828125,3.029862200927734,13.383886555480956,3.2912790946960446
1758278370110773000,126.47277294921876,2.7636569038391112,12.517335192108154,4.342034348297119
1758278370120857000,126.48285717773436,2.8788778587341306,11.01856495285034,4.809651860046387
1758278370130941000,126.49294091796877,3.2167595680236816,9.426869761657716,4.550629167938232
1758278370141026000,126.50302612304688,3.340958779144287,8.365639875793457,3.713406774902344
1758278370151110000,126.51310986328124,2.98811330947876,8.07594147491455,2.512864279937744
1758278370161195000,126.52319506835936,2.057217776489258,8.20448017654419,1.1893196746826171
1758278370171278800,126.53327880859376,0.974888988494873,8.449287296295166,-0.0857423469543457
1758278370181363200,126.54336328125,0.0680851097106933,8.623914379882812,-1.1716624374389648
1758278370191448000,126.55344799804688,-0.543932689666748,8.607154968261717,-2.0005051246643064
1758278370201532200,126.5635322265625,-0.980575217437744,8.541164785003662,-2.382081014251709
1758278370211617000,126.57361694335935,-1.2170026313781737,8.510937989044189,-2.3582886352539063
1758278370221700900,126.58370092773436,-1.2176011817932129,8.536526019287109,-2.078017403411865
1758278370231785000,126.59378491210936,-0.8738836059570312,8.585158240509033,-1.714248388671875
1758278370241869800,126.60386987304688,-0.1804629501342773,8.63124662246704,-1.2235866859436035
1758278370251954200,126.6139541015625,0.609025047302246,8.476670977783202,-0.7516296836853027
1758278370262039000,126.6240390625,1.399410870361328,8.113350875854492,-0.4499602745056152
1758278370272123100,126.634123046875,2.103156520843506,7.658751835632324,-0.2606687057495117
1758278370282208000,126.6442080078125,2.651877613830566,7.250839727783203,-0.0805050308227539
1758278370292291800,126.65429174804687,3.02612126083374,7.023839482879638,0.1224035598754882
1758278370302375700,126.66437573242187,3.356670727539062,7.039850706481933,0.3953425491333007
1758278370312460800,126.67446069335938,3.5836709724426266,7.416338917541504,0.6874351516723632
1758278370322545000,126.684544921875,3.6846763549804686,8.233809146881104,0.905307502746582
1758278370332630000,126.69463012695311,3.4712931320190425,9.415347666168213,0.9612719665527344
1758278370342713900,126.7047138671875,3.020435031890869,10.73245785446167,0.869544115447998
1758278370352798000,126.7147978515625,2.454655252075195,12.082637953186037,0.654365241241455
1758278370362882800,126.7248828125,1.8737620742797847,13.24741706085205,0.3763385734558105
1758278370372967000,126.734966796875,1.3218985916137695,14.161253907012938,0.0851437965393066
1758278370383051800,126.7450517578125,0.852934341430664,14.694113414001464,-0.1616086120605468
1758278370393135900,126.75513598632811,0.4997895965576172,14.794520246124266,-0.2973299186706543
1758278370403220000,126.76521997070311,0.3405751861572265,14.541183782958983,-0.2644096458435058
1758278370413304800,126.77530493164062,0.232985749053955,14.015656518554689,-0.2244564056396484
1758278370423389000,126.78538891601562,0.2290951713562011,13.291410516357422,-0.1858499038696289
1758278370433473800,126.79547387695312,0.3372831588745117,12.393584893798828,-0.0369604881286621
1758278370443558000,126.80555786132813,0.5301660301208496,11.469722328186034,0.1861491790771484
1758278370453642000,126.81564208984376,0.7803601036071777,10.649408984375,0.4911106155395507
1758278370463727000,126.82572705078124,0.917428148651123,9.906607919311522,0.7727285858154297
1758278370473811000,126.83581103515624,0.862511148071289,9.236830004882812,0.999130280303955
1758278370483895800,126.84589575195312,0.6893804405212401,8.669254573822021,1.1885714866638184
1758278370493980000,126.85597998046876,0.5161000953674316,8.156895418548583,1.3516764747619627
1758278370504063700,126.86606372070312,0.337732071685791,7.765443447113037,1.523909356689453
1758278370514148900,126.87614892578124,0.2841618095397949,7.487865692138671,1.751358514404297
1758278370524233000,126.88623291015624,-0.1283890640258789,7.239317632293701,1.811213555908203
1758278370534318000,126.89631811523438,-0.5385457359313964,7.09312169342041,1.816301234436035
1758278370544402000,126.90640185546874,-0.6959644950866699,7.212532501220703,1.9174562545776368
1758278370554485800,126.91648583984374,-0.5545569595336913,7.435342893218993,2.051232272338867
1758278370564571000,126.92657080078123,-0.4537012145996093,7.62957250289917,2.1914427070617672
1758278370574654700,126.93665478515624,-0.4872200378417968,7.740902880096435,2.308608950805664
1758278370584739800,126.94673974609375,-0.5270236404418945,7.935132489776611,2.466925535583496
1758278370594824000,126.95682397460938,-0.4064157318115234,8.281842817687988,2.694823606109619
1758278370604908000,126.96690795898438,-0.1903390319824218,8.904784162139892,2.9686604209899903
1758278370614993000,126.97699291992188,-0.1753752716064453,9.702053314971923,3.374028689575195
1758278370625077000,126.98707690429688,-0.2108393836975097,10.4578728515625,3.978414971160889
1758278370635161900,126.99716186523438,-0.1539770942687988,11.1474029296875,4.761169276428222
1758278370645245700,127.00724560546875,0.041449616241455,11.65632042007446,5.474042820739745
1758278370655330000,127.017330078125,0.4707599014282226,11.883021389770509,5.6298155662536615
1758278370665415000,127.02741479492188,0.8997709114074707,11.915792024993896,5.231629902648925
1758278370675499000,127.0374990234375,1.0752958206176757,11.471966892242431,4.662258820343017
1758278370685584000,127.047583984375,1.291522158050537,10.497377178955077,4.217835137176514
1758278370695668000,127.05766796875,1.4960767623901363,9.30177272491455,3.840898013305664
1758278370705751800,127.06775170898436,2.124853973388672,8.494178577423096,3.355473626708984
1758278370715837000,127.0778369140625,2.316539743804932,8.134898690795898,2.945765867614746
1758278370725921000,127.08792114257812,2.5342624572753905,7.976881381225586,3.2392052085876464
1758278370736006000,127.098005859375,3.531148173522949,8.19131206741333,3.5152865875244137
1758278370746090000,127.10809008789064,4.643404482269287,8.411877895355223,3.314772198486328
1758278370756174800,127.1181748046875,4.874594580078124,8.7853733543396,2.945915505218505
1758278370766259000,127.12825903320312,4.406528155517578,9.363872330474852,2.352003855895996
1758278370776342800,127.1383427734375,3.959111720275879,10.146925910949706,1.8294693435668945
1758278370786428000,127.14842797851564,3.774159642028808,11.333252833557127,1.7108067237854003
1758278370796512000,127.15851196289064,3.503914129638672,12.850129222869873,2.0361188743591305
1758278370806597000,127.16859716796876,3.082983550262451,14.680197116851806,2.861968809509277
1758278370816681000,127.17868090820312,2.681954772186279,16.015114179992676,3.913921163940429
1758278370826764800,127.18876489257812,2.6779145568847653,15.778836403656005,4.5504795303344725
1758278370836850000,127.19884985351564,3.323900092315674,13.805864598083495,4.3454760131835934
1758278370846933800,127.20893383789064,4.271854312133788,11.505784990692138,3.452139518737793
1758278370857019000,127.21901879882812,4.864269585418701,9.900622415161132,2.4818892959594727
1758278370867103000,127.22910302734375,4.88387211151123,8.994117811584472,1.7316063507080075
1758278370877187000,127.23918701171876,4.6164697135925294,8.351573941040039,0.969202759552002
1758278370887272000,127.24927197265625,3.9778164207458495,8.062324452972412,0.2804208694458007
1758278370897355800,127.25935571289062,3.273921132659912,8.00576143875122,-0.2201169151306152
1758278370907441000,127.26944091796877,2.592920397949219,8.092700886535644,-0.5514145698547362
1758278370917524700,127.27952465820312,1.9506758026123048,8.321347145080566,-0.6304232246398925
1758278370927609000,127.28960913085938,1.202787059020996,8.65054987335205,-0.352396556854248
1758278370937694000,127.29969384765624,0.4138976119995117,9.06639277420044,0.321122297668457
1758278370947778000,127.30977807617188,-0.2914940521240234,9.485677339935302,1.173458088684082
1758278370957863000,127.31986279296876,-0.8300397880554199,9.745897132873534,1.9259855979919436
1758278370967947000,127.32994702148436,-1.1795932304382324,9.737517427062988,2.5089737022399903
1758278370978030800,127.34003076171877,-1.3328221366882322,9.517849424743652,2.835931866455078
1758278370988115700,127.35011572265626,-1.3836989219665528,9.18116481628418,2.948309706878662
1758278370998200000,127.36019995117188,-1.34718734664917,8.769960681152343,2.893542343902588
1758278371008285000,127.37028491210935,-1.281945351409912,8.208370754241942,2.752434083557129
1758278371018369000,127.380369140625,-1.2099696640014648,7.490259893798828,2.68120658416748
1758278371028452900,127.39045288085936,-1.1323077476501464,6.744017163848876,2.7023054862976075
1758278371038538000,127.4005380859375,-1.1486182464599608,6.056881287384033,2.853140190887451
1758278371048621800,127.41062182617188,-1.148468608856201,5.560234080505371,3.0731074684143063
1758278371058707000,127.42070703125,-1.1361983253479002,5.2171150550842285,3.253570418548584
1758278371068791000,127.430791015625,-1.2204442962646485,5.118354236602783,3.303699015808105
1758278371078875000,127.440875,-1.1276689819335937,5.245546199798584,3.137302000427246
1758278371088960000,127.4509599609375,-0.7785644523620605,5.668571705627441,2.870498152923584
1758278371099043800,127.4610439453125,-0.2925415153503418,6.478260779571533,2.535908470916748
1758278371109129000,127.47112890625,0.4074631950378418,7.681047838592529,2.096123553466797
1758278371119212800,127.481212890625,1.250671092224121,9.382277755737304,1.6011223602294922
1758278371129297000,127.491296875,2.404975567626953,11.58748712234497,1.0800842239379882
1758278371139381800,127.5013818359375,3.936366804504394,13.602656732177731,0.7935282127380371
1758278371149465900,127.5114658203125,5.353883824920654,14.675408713531493,0.9253589416503906
1758278371159551000,127.52155102539062,6.227617793273925,14.60762287902832,1.1207856521606443
1758278371169634800,127.531634765625,6.462698468780517,13.673136043548585,1.0793360359191897
1758278371179719000,127.54171899414062,6.253654736328125,12.479476878356932,0.7873930709838867
1758278371189803800,127.5518037109375,5.694159735870361,11.726350818634032,0.7885901718139648
1758278371199888000,127.56188793945311,4.9269677413940425,11.44144082107544,1.2805986129760742
1758278371209972700,127.57197265625,3.782389710235595,11.3902647605896,2.5854385177612302
1758278371220057000,127.58205712890626,2.4069208564758298,11.058667830657958,4.229357232666016
1758278371230141000,127.59214086914062,1.2870330299377442,10.415226134490966,5.352537086486816
1758278371240225800,127.60222583007813,0.7638999671936034,9.406369409942627,5.838560023498535
1758278371250310000,127.61230981445313,1.1363479629516602,8.0958432762146,5.93717120437622
1758278371260394800,127.62239477539065,2.2034137153625486,6.859986306762695,5.689670607757568
1758278371270478800,127.63247875976562,3.449296404266357,6.068702658081055,5.2265422241210935
1758278371280563000,127.64256298828126,4.256292001342773,6.144419285583496,4.465186096191406
1758278371290648000,127.65264794921876,4.300734369659423,7.171382160186767,3.3572692779541016
1758278371300732000,127.66273193359376,3.810671217346191,8.694692966461181,1.9604022468566893
1758278371310817000,127.67281713867187,3.283497939300537,10.047716179656982,0.609025047302246
1758278371320900900,127.68290087890624,2.806004345703125,10.658387240600586,-0.4260182579040527
1758278371330984700,127.69298461914065,2.351704580688476,10.50261449508667,-0.9879074600219726
1758278371341069800,127.70306982421874,2.0241478660583496,10.091559997558592,-0.9430161788940428
1758278371351154000,127.71315380859374,1.8179472480773924,9.87668039855957,-0.3892074073791504
1758278371361239000,127.72323901367189,1.7750012557983397,9.94012674255371,0.3567360473632812
1758278371371323000,127.73332299804687,1.9143138648986813,10.225186377716064,0.9325415466308592
1758278371381406700,127.74340673828124,2.121113033294677,10.44500401763916,1.3459902458190918
1758278371391491800,127.75349194335938,2.345719076538086,10.388740278625487,1.522113705444336
1758278371401575700,127.76357568359376,2.592770760345459,9.965415497589111,1.4739303970336912
1758278371411660800,127.77366088867188,2.841917370605469,9.233238702392578,1.342698218536377
1758278371421745000,127.78374487304689,3.0527567543029783,8.466495620727539,1.2737152832031249
1758278371431830000,127.793830078125,3.2466870887756345,7.904007868194579,1.2375029830932616
1758278371441913900,127.80391381835938,3.481917401885986,7.723245642852783,1.260696811676025
1758278371451998000,127.813998046875,3.756801679992676,8.073397635650634,1.2339116806030272
1758278371462082800,127.82408276367188,3.951180927276611,8.823530943298339,1.103278052520752
1758278371472167000,127.8341669921875,3.9981671348571775,9.90271734161377,0.841412245941162
1758278371482251800,127.84425170898436,3.767725225067138,11.073781228637694,0.4822819969177245
1758278371492335900,127.8543359375,3.3355718254089357,12.08009411392212,0.0909796630859375
1758278371502420000,127.864419921875,2.777722838592529,12.891578839111329,-0.2742857276916504
1758278371512504800,127.8745048828125,2.14505504989624,13.45676006851196,-0.5122095176696777
1758278371522589000,127.8845888671875,1.592293741607666,13.819182344818117,-0.5635352157592773
1758278371532673800,127.894673828125,1.0821791503906248,13.94263336791992,-0.4424783943176269
1758278371542758000,127.9047578125,0.7332242584228515,13.695432046508788,-0.129586164855957
1758278371552842000,127.91484204101565,0.543932689666748,12.993033134460449,0.3531447448730468
1758278371562927000,127.92492700195312,0.5660790550231933,11.969811199951172,0.8243535591125488
1758278371573011000,127.93501098632812,0.7267898414611816,11.034276901245116,1.1462240447998049
1758278371583095800,127.945095703125,0.7592612014770508,10.261697953033446,1.2562076835632323
1758278371593180000,127.95517993164064,0.6823474731445313,9.61601169281006,1.3437456817626952
1758278371603263700,127.965263671875,0.5717652839660644,9.00189896697998,1.483058290863037
1758278371613348900,127.97534887695312,0.5231330627441406,8.44674345703125,1.6998831787109374
1758278371623433000,127.98543286132812,0.3299509162902831,7.915380326080322,1.9096750991821287
1758278371633518000,127.99551806640623,0.2958335426330566,7.519139951324463,2.197428211212158
1758278371643602000,128.0056018066406,0.2781763053894043,7.217171266937256,2.4488193855285645
1758278371653685800,128.0156857910156,0.0872387229919433,7.007528984069824,2.664297534942627
1758278371663771000,128.02577099609374,-0.0990600936889648,6.902034473419189,2.8592753326416016
1758278371673854700,128.03585473632813,-0.1572691215515136,6.908019977569579,3.086724490356445
1758278371683939800,128.04593994140626,-0.1776198356628417,6.949469593811035,3.260453748321533
1758278371694024000,128.05602392578126,-0.1698386802673339,7.025485496520996,3.4172739570617674
1758278371704108000,128.06610791015626,-0.1466448516845703,7.142651740264892,3.611503566741943
1758278371714193000,128.07619287109375,-0.0528220741271972,7.314136434173584,3.773860366821289
1758278371724276700,128.08627685546875,0.0314238967895507,7.659649661254883,3.9649475868225097
1758278371734361900,128.09636181640624,0.1342249305725097,8.208071479034423,4.129698588562012
1758278371744445700,128.10644580078124,0.1867477294921875,8.801534215545654,4.291606475830078
1758278371754530000,128.11653002929688,0.136619132232666,9.34082813949585,4.544045113372802
1758278371764615000,128.12661499023437,-0.0207996269226074,9.763704007720946,4.85229857711792
1758278371774699000,128.13669897460937,-0.1553238327026367,9.994295555114746,5.040542682647705
1758278371784784000,128.14678393554686,-0.1364694946289062,9.923666606140136,5.033060802459716
1758278371794868000,128.15686791992186,-0.0872387229919433,9.726593881988524,4.840477206420898
1758278371804951800,128.16695190429687,-0.0119710083007812,9.584438158416749,4.524442587280273
1758278371815037000,128.17703686523438,0.2721908012390137,9.510068269348144,4.116231204223633
1758278371825121000,128.18712109375,0.2549824768066406,9.368511096191405,3.561674244689941
1758278371835206000,128.19720581054688,-0.4103063095092773,8.72776287689209,3.303100465393066
1758278371845290000,128.2072900390625,-0.5725134719848632,7.941866181945801,3.633051381683349
1758278371855373800,128.21737377929688,0.005087678527832,7.424568985748291,3.839551274871826
1758278371865459000,128.227458984375,0.8298901504516601,7.020098542785644,3.74767378616333
1758278371875542800,128.23754272460937,1.7842787872314452,7.075464456176757,3.721187930297851
1758278371885628000,128.2476279296875,2.2563854270935058,7.639149309539794,3.955670055389404
1758278371895712000,128.2577119140625,2.1576246086120605,8.817844714355468,4.423137929534912
1758278371905795800,128.2677958984375,1.638980673980713,10.328137049102782,4.925321727752685
1758278371915881000,128.277880859375,1.0694599540710448,11.61906065673828,5.427954438781738
1758278371925964800,128.28796484375,1.1890203994750976,12.622829702758787,5.87986000213623
1758278371936050000,128.2980498046875,1.8339584716796875,13.600412168121338,6.170306591033935
1758278371946133800,128.3081337890625,2.187402491760254,14.551059864807128,6.604554917144775
1758278371956218000,128.31821801757812,2.2809259941101074,14.947000964355468,7.089979303741455
1758278371966303000,128.32830297851564,2.4295161346435545,14.079252500152586,6.971167046356201
1758278371976386800,128.33838671875,2.966266219329834,12.413337057495117,6.029497605895996
1758278371986472000,128.34847192382813,3.719841191864013,10.981454827117918,4.602254141235352
1758278371996555800,128.3585556640625,4.1283518501281735,9.955389778137206,3.165433869934082
1758278372006639900,128.36863989257813,3.9954736579895016,9.210493786621091,1.9645920997619628
1758278372016724700,128.37872485351562,3.397072880554199,8.713397666931153,1.0453682998657226
1758278372026809000,128.38880908203126,2.568828743743896,8.476670977783202,0.4517559257507323
1758278372036894000,128.39889404296875,1.8586486763000487,8.498817343139647,0.1212064590454101
1758278372046978000,128.40897802734375,1.33446815032959,8.678532105255126,0.0540191749572753
1758278372057062000,128.4190617675781,0.903960764312744,8.98888049545288,0.3018190467834472
1758278372067146800,128.42914672851563,0.5611410140991211,9.376441889190671,0.8363245674133301
1758278372077230800,128.43923095703124,0.247650234222412,9.73048445968628,1.59603468170166
1758278372087315700,128.44931567382812,-0.007631517791748,9.885808292388916,2.3261165504455565
1758278372097400000,128.45940014648437,-0.0974140800476074,9.770288062286376,2.848651062774658
1758278372107484000,128.46948388671876,0.0017956512451171,9.44946503982544,3.1331121475219725
1758278372117569000,128.47956909179686,0.2524386375427246,9.095572106933592,3.2384570205688474
1758278372127652900,128.48965283203125,0.4697124382019043,8.825027319335938,3.215712104797363
1758278372137738000,128.49973803710938,0.5472247169494628,8.59997236328125,3.073406743621826
1758278372147821800,128.50982177734377,0.4715080894470214,8.42788911895752,2.7965771766662595
1758278372157906000,128.51990600585938,0.2099415580749511,8.31880330581665,2.399738251495361
1758278372167991000,128.52999096679687,-0.0830488700866699,8.264035942840575,1.9577087699890137
1758278372178075000,128.54007495117187,-0.2621650817871093,8.281693180084227,1.509843421936035
1758278372188160000,128.55015991210936,-0.3911526962280273,8.398260873413085,1.0211270080566406
1758278372198243800,128.56024389648437,-0.378583137512207,8.566603177642822,0.5514145698547362
1758278372208328000,128.57032788085937,-0.1464952140808105,8.863783458709717,0.1605611488342285
1758278372218412800,128.58041284179689,0.0915782135009765,9.163357941436766,-0.0911293006896972
1758278372228497000,128.5904968261719,0.4686649749755859,9.463231699371338,-0.1756745468139648
1758278372238582000,128.60058203125,0.7306804191589356,9.80021558303833,-0.1312321784973144
1758278372248665900,128.61066577148438,0.7640496047973633,10.095600212860107,-0.0046387657165527
1758278372258750000,128.62075,0.965910732269287,10.434230110168455,0.1773205604553222
1758278372268834800,128.63083471679687,1.149815347290039,10.835558163452149,0.314089330291748
1758278372278919000,128.6409189453125,1.129314995574951,11.228356873321532,0.4688146125793457
1758278372289004300,128.65100439453124,1.111508120727539,11.553818661499022,0.8464999244689941
1758278372299088100,128.66108813476563,1.1525088241577148,11.774085214233398,1.4528314949035643
1758278372309172200,128.67117211914064,1.1694178733825682,11.757176165008543,2.179172423553467
1758278372319257300,128.68125732421876,1.2170026313781737,11.499200936126709,2.9478607940673824
1758278372329341200,128.69134106445313,1.4781202499389647,11.169250019836426,3.672406071472168
1758278372339426300,128.70142626953125,1.892167499542236,10.824784255981443,4.330063339996338
1758278372349510100,128.71151025390623,2.2258593559265134,10.436474674224852,4.679467144775391
1758278372359594200,128.72159423828126,2.6384102294921874,9.891644158935549,4.586991105651856
1758278372369679000,128.73167919921875,2.9788357780456542,9.188048146057127,4.154688068389892
1758278372379763500,128.74176342773438,3.040187195587158,8.463502868652343,3.5453637458801266
1758278372389848300,128.75184838867187,2.971653173065185,7.7233952804565424,3.044077773284912
1758278372399932400,128.76193237304688,2.9996354049682616,7.14444739151001,2.696918532562256
1758278372410016300,128.77201635742188,3.124433166503906,6.822427268218994,2.401982815551757
1758278372420101000,128.78210107421876,3.317166400146484,6.802076554107666,1.9672855766296389
1758278372430185200,128.79218530273437,3.3768718040466306,7.005434057617187,1.2701239807128906
1758278372440270000,128.80227001953125,3.2243910858154297,7.420379132843017,0.4150947128295898
1758278372450354400,128.8123544921875,2.962974192047119,7.896226712799072,-0.3904045082092285
1758278372460438300,128.8224382324219,2.657264567565918,8.461108666992187,-1.0339958419799804
1758278372470523400,128.8325234375,2.315941193389893,9.08449892425537,-1.60231946105957
1758278372480607200,128.84260717773438,1.9934721572875973,9.664494276428222,-2.0670938583374023
1758278372490692400,128.8526923828125,1.7230770072937012,10.133757801818849,-2.5272294898986813
1758278372500776200,128.86277612304687,1.506102481842041,10.376021082305908,-2.8944401695251463
1758278372510860300,128.8728603515625,1.402702897644043,10.31152727508545,-2.980631429290771
1758278372520945400,128.8829453125,1.4595651870727535,9.98561657409668,-2.7320833694458004
1758278372531029200,128.893029296875,1.6953940505981444,9.492111756896971,-2.237231813812256
1758278372541113300,128.90311328125,1.9755156448364255,9.024793520355225,-1.5315408744812011
1758278372551198200,128.9131982421875,2.263867307281494,8.651447698974609,-0.7413046890258789
1758278372561282000,128.92328198242188,2.6300305236816404,8.44674345703125,0.0315735343933105
1758278372571367200,128.9333671875,3.0246248847961423,8.463353231048583,0.6720224784851074
1758278372581451300,128.943451171875,3.2906805442810056,8.762778076171875,1.1067197174072263
1758278372591536400,128.95353637695314,3.322553353881836,9.21303762588501,1.2020388710021972
1758278372601620200,128.9636201171875,3.103932814788818,9.753827925872802,1.0054150596618652
1758278372611704300,128.9737043457031,2.644395733642578,10.377816733551024,0.5936123741149902
1758278372621789200,128.9837890625,2.015468885040283,11.035773277282717,0.1687912170410156
1758278372631873300,128.99387329101563,1.3287819213867187,11.684601927185058,-0.1614589744567871
1758278372641958100,129.00395825195312,0.6661866119384765,12.29721827697754,-0.3824737152099609
1758278372652042500,129.01404248046876,0.184503165435791,12.799850988006591,-0.4234744186401367
1758278372662126300,129.02412622070312,-0.1840542526245117,13.14027653656006,-0.2645592834472656
1758278372672211200,129.0342111816406,-0.4052186309814453,13.339444187164306,0.0299275207519531
1758278372682295300,129.04429541015625,-0.4821323593139648,13.303381524658205,0.421978042602539
1758278372692379100,129.05437915039062,-0.4733037406921386,12.959364673614502,0.6815992851257324
1758278372702464300,129.06446435546874,-0.2829647087097168,12.508656211090088,0.8470984748840331
1758278372712548400,129.07454833984374,-0.0788590171813964,11.935693826293944,0.8399158699035644
1758278372722633500,129.08463354492187,0.0828992324829101,11.335796672821044,0.617404753112793
1758278372732717300,129.09471728515626,0.0845452461242675,10.739341184234618,0.3443161262512206
1758278372742801200,129.10480126953124,0.0888847366333007,10.054449871826172,0.2165256126403808
1758278372752886300,129.11488623046876,0.0763151779174804,9.380781379699709,0.2614168937683105
1758278372762970000,129.12497021484376,0.0016460136413574,8.687360723876953,0.3040636108398437
1758278372773055200,129.13505517578125,-0.0526724365234375,7.949796974945068,0.3274070770263672
1758278372783139300,129.14513940429688,-0.15322890625,7.327903093719482,0.4128501487731933
1758278372793223400,129.15522338867189,-0.019752163696289,6.826617121124267,0.5945101997375488
1758278372803308300,129.16530834960938,0.3036146980285644,6.422146678161621,0.8307879760742187
1758278372813392100,129.17539208984374,0.2747346405029297,6.191405493164062,1.1430816551208496
1758278372823477200,129.18547729492187,0.069581485748291,6.061520053100586,1.456871710205078
1758278372833561000,129.19556103515626,0.132130004119873,6.111499012756347,1.8397943382263184
1758278372843645400,129.2056455078125,0.1882441055297851,6.263530818176269,2.250100647735596
1758278372853730300,129.2157302246094,0.1360205818176269,6.534674156188965,2.633172913360596
1758278372863814400,129.225814453125,0.1446995628356933,6.930615255737305,3.036595893096924
1758278372873899300,129.23589916992188,0.20425532913208,7.503876915740967,3.397970706176757
1758278372883983400,129.2459833984375,0.2386719779968261,8.28064571685791,3.840748375701904
1758278372894067200,129.25606713867188,0.2575263160705566,9.285611863708496,4.526986426544189
1758278372904152000,129.26615209960937,0.3733458213806152,10.357466019439697,5.403713146972656
1758278372914236400,129.276236328125,0.6607996582031249,11.269507214355468,6.265925019836425
1758278372924321300,129.2863212890625,1.0277110626220702,11.7212631401062,6.682067195892333
1758278372934405400,129.2964052734375,1.2759598472595215,11.698817499542235,6.515819818115234
1758278372944489200,129.3064892578125,1.568651000213623,11.241824257659912,6.298994930267334
1758278372954574300,129.31657421875,1.7929577682495117,10.720636483764649,6.314856516265869
1758278372964658200,129.326658203125,1.5369278282165526,10.248529843902586,6.1656678253173824
1758278372974743300,129.33674340820312,1.5846622238159178,9.777321029663083,5.743390507507324
1758278372984827400,129.34682739257812,2.001702225494385,9.651625442504882,5.274575894927978
1758278372994911200,129.3569111328125,2.111386589050293,9.527575868988036,4.9537528724670405
1758278373004996400,129.3669963378906,1.6425719764709472,9.189544522094726,4.32856696395874
1758278373015080200,129.377080078125,1.4360720832824707,9.137470635986327,3.541922080993652
1758278373025165300,129.38716528320313,1.458068811035156,9.56393780670166,2.790591672515869
1758278373035249200,129.39724926757813,1.569099913024902,10.256310999298096,2.2020669769287107
1758278373045333500,129.40733349609374,1.7149965766906736,11.163414153289796,2.064998931884765
1758278373055418400,129.41741845703126,1.8626888916015625,12.152518714141843,2.495655955505371
1758278373065502200,129.42750219726562,2.058564514923096,12.96101068725586,3.2597055603027343
1758278373075587300,129.43758740234375,2.3225252479553222,13.19609136276245,4.017470385742187
1758278373085671200,129.44767114257812,2.671180864715576,12.425607341003415,4.144213436126709
1758278373095755300,129.45775537109375,3.1542110496520994,11.173439872741698,3.3631051445007323
1758278373105840000,129.46784008789064,3.653102820587158,10.121337880706786,2.0874445724487303
1758278373115924500,129.47792456054688,3.962852660369873,9.588328736114502,0.6726210289001464
1758278373126009300,129.48800927734376,3.947290349578857,9.465326625823971,-0.4131494239807128
1758278373136093400,129.49809350585937,3.637690147399902,9.747692784118652,-0.862511148071289
1758278373146177300,129.50817724609374,3.2022447204589843,10.415974322509763,-0.6088754096984863
1758278373156262100,129.51826220703126,2.479794369506836,11.259032582092283,0.1788169364929199
1758278373166346200,129.52834619140626,1.7175404159545895,11.832144604492187,1.067365027618408
1758278373176431000,129.53843115234375,1.2036848846435546,12.038943772888183,1.915959878540039
1758278373186515500,129.5485153808594,0.9790788414001464,11.903372103881836,2.5942671363830563
1758278373196599300,129.5585993652344,0.7398083129882812,11.522993315124513,2.9605799903869627
1758278373206684400,129.56868432617188,0.6995557975769042,10.95571715927124,3.0756513076782226
1758278373216768300,129.57876831054688,0.8667010009765624,10.530746364593504,3.036895168304443
1758278373226852000,129.58885205078124,0.9347861106872558,10.12552773361206,2.874239093017578
1758278373236937200,129.59893725585937,0.94481183013916,9.771335525512695,2.7582699501037595
