time,seconds_elapsed,z,y,x
1758278587447646500,343.809646484375,3.226026285801828,6.850424697691202,6.231760299906134
1758278587457730300,343.8197302246094,3.277477948358655,6.773297618868947,6.288956351333856
1758278587467814100,343.8298142089844,3.301085326178372,6.715287912970781,6.338622007256746
1758278587477899300,343.83989916992186,3.293599938859045,6.6795508291572325,6.380138843515515
1758278587487983000,343.84998315429686,3.249966548837721,6.669885759711265,6.4125441525578495
1758278587498067500,343.8600673828125,3.164193514484167,6.689978699669242,6.434473075771331
1758278587508152000,343.87015209960936,3.0401915795013306,6.740293759411573,6.441743943557142
1758278587518236000,343.8802358398437,2.895044857420027,6.818902601224184,6.4258601457268
1758278587528319700,343.89031982421875,2.741013694876432,6.924906814962625,6.379880484840274
1758278587538404900,343.90040478515624,2.577687465243041,7.056290384629368,6.303546017700433
1758278587548489000,343.91048901367185,2.4039058925688264,7.20696083856821,6.200915079787373
1758278587558573000,343.92057299804685,2.226874962709844,7.367464119735359,6.07716068982482
1758278587568658000,343.9306579589844,2.0575670283183456,7.529815659117698,5.936217849174142
1758278587578742000,343.9407419433594,1.909132808998972,7.690663223677873,5.777481577679515
1758278587588825900,343.9508259277344,1.7953532850839196,7.850241206693648,5.596497818541526
1758278587598911000,343.9609108886719,1.725576861285418,8.008079652565717,5.391051818320155
1758278587608995000,343.9709951171875,1.6992469266340136,8.161344799172877,5.164821973267197
1758278587619079000,343.9810788574219,1.7095263285860418,8.305037815314531,4.926892338070273
1758278587629164000,343.9911640625,1.744624676104635,8.43644710394442,4.68540734847933
1758278587639248000,344.0012478027344,1.7928901098407803,8.555394385886192,4.445354145257174
1758278587649332000,344.01133203125,1.8450497745364904,8.663085529798268,4.209173399554193
1758278587659416800,344.0214167480469,1.8942200481578704,8.761165964800119,3.977975410699844
1758278587669501000,344.0315009765625,1.9357513513334093,8.851218576169014,3.752222827769816
1758278587679585000,344.0415849609375,1.9666392415501175,8.935005112880468,3.53106195654422
1758278587689670000,344.051669921875,1.9848852384671567,9.01416983501017,3.3129078659191724
1758278587699754000,344.06175390625,1.988232795329392,9.089970049142837,3.0967329664126035
1758278587709837800,344.071837890625,1.976317316608131,9.162929486891628,2.8818881464660167
1758278587719923000,344.0819228515625,1.94828773843199,9.233483617064357,2.6678347691580653
1758278587730007000,344.09200708007813,1.9039291028760368,9.30165932766795,2.4545000615134835
1758278587740091000,344.1020908203125,1.844893707191944,9.366959190574288,2.2420621565781533
1758278587750176000,344.1121760253906,1.7728665818572042,9.428812127897142,2.030970259424299
1758278587760259800,344.122259765625,1.6894504858933388,9.48650443840921,1.8227395969204605
1758278587770344000,344.1323439941406,1.596095179717243,9.53956265937984,1.6185282530605791
1758278587780428800,344.1424287109375,1.4947785392731427,9.587906711310149,1.417071468605846
1758278587790513200,344.1525131835937,1.3881950643420218,9.631659343796969,1.2142660460211336
1758278587800597000,344.1625969238281,1.2814710118964314,9.67068962393701,1.0029930201467123
1758278587810681900,344.1726818847656,1.180308027644083,9.70441010723114,0.7756822479892521
1758278587820766000,344.1827658691406,1.0894594435919076,9.731649411812423,0.5277037316605449
1758278587830849800,344.1928498535156,1.0116804036669431,9.750835173797606,0.2610038377217017
1758278587840935000,344.2029348144531,0.9470582208264618,9.760798349407317,-0.0171734175157733
1758278587851019000,344.2130190429688,0.8974527706582098,9.761062553301452,-0.2942877562294714
1758278587861103000,344.22310302734377,0.8694791604530065,9.752080789944529,-0.5579641010960563
1758278587871188000,344.23318798828126,0.8743414327271282,9.734677235201,-0.801234914657846
1758278587881271800,344.24327172851565,0.917895693097636,9.709936761698126,-1.0222482671715318
1758278587891356000,344.25335595703126,1.0001165879275649,9.67844681393504,-1.2238458483364432
1758278587901440800,344.26344067382814,1.1200455013178288,9.639567924964428,-1.412312729771435
1758278587911525000,344.2735251464844,1.275896718895435,9.591865093547105,-1.5932992653883993
1758278587921609000,344.28360888671875,1.4631246331200003,9.534006778818368,-1.7698484030798076
1758278587931694000,344.29369409179685,1.672396475239843,9.466429034107923,-1.939122289071232
1758278587941778000,344.30377783203124,1.8937084453739224,9.390969596236944,-2.096176598828286
1758278587951861800,344.31386181640624,2.1172150029428303,9.31028044101894,-2.2375161837115884
1758278587961947000,344.32394677734374,2.334215101227164,9.227128110557794,-2.362611466889083
1758278587972031000,344.3340310058594,2.5368062965393063,9.14378639500439,-2.475112349170446
1758278587982115000,344.3441149902344,2.718143106898665,9.062367171946168,-2.5798434742331504
1758278587992200000,344.3541999511719,2.871870902581513,8.985514233890175,-2.680164673899114
1758278588002284000,344.3642839355469,2.994543342526257,8.916455895233154,-2.7748706640318037
1758278588012368000,344.3743679199219,3.0862367068395016,8.857648316955565,-2.861398316144943
1758278588022452700,344.3844526367188,3.150157390347123,8.80952112264633,-2.939256339590252
1758278588032537000,344.394537109375,3.191229113186896,8.771069519177079,-3.009115473236144
1758278588042621000,344.4046208496094,3.214787975689769,8.740826941126585,-3.0713956960603594
1758278588052706000,344.4147060546875,3.224927676910162,8.718186070251464,-3.124656453865766
1758278588062790000,344.4247897949219,3.225460468612611,8.70342396992743,-3.164993724951148
1758278588072873700,344.4348737792969,3.219628985980153,8.697413915857672,-3.187379159760475
1758278588082958800,344.4449587402344,3.209538676859438,8.70170781365931,-3.185829299969971
1758278588093043000,344.45504296875,3.1961423119306565,8.71683114851117,-3.157831870497763
1758278588103127000,344.465126953125,3.1783368983879683,8.742325070729851,-3.1048867545127865
1758278588113212000,344.4752119140625,3.1540166961237786,8.776599096253515,-3.0321400827318428
1758278588123296000,344.4852958984375,3.1204359135612845,8.817996105524896,-2.945541703470051
1758278588133379800,344.4953798828125,3.0755896406188605,8.865448761573433,-2.8486759049549697
1758278588143465000,344.50546484375,3.017885639669001,8.91853562411666,-2.7427120232269164
1758278588153549000,344.5155490722656,2.9455557319954035,8.977077829456329,-2.6279548864513638
1758278588163633000,344.5256328125,2.8583874438911674,9.040198594757914,-2.504956283292174
1758278588173718000,344.5357180175781,2.7578108081594106,9.10631854187548,-2.3748333812110123
1758278588183801900,344.5458017578125,2.6459982004031537,9.173664815917611,-2.2389646289542315
1758278588193886000,344.5558859863281,2.525891227032244,9.24056451523602,-2.098148775684088
1758278588203970800,344.565970703125,2.3999885729946198,9.305899449455737,-1.952096483065188
1758278588214055000,344.5760549316406,2.270489940291643,9.369078082424402,-1.7987902737952768
1758278588224139000,344.5861389160156,2.1378711297415194,9.430098076054453,-1.634976406775415
1758278588234223900,344.5962238769531,2.002007053659856,9.488972289827466,-1.4566247497066855
1758278588244308000,344.6063078613281,1.8626171415396036,9.54536053200364,-1.2598232437118888
1758278588254391800,344.6163918457031,1.7204256160020828,9.598185528740286,-1.0417957751411944
1758278588264477000,344.62647680664065,1.5782766144320368,9.645541154155136,-0.8018420137055218
1758278588274561000,344.63656103515626,1.441577548830956,9.68505424937606,-0.5403560367563739
1758278588284644900,344.6466447753906,1.3168288871340452,9.714358669793604,-0.259960411349684
1758278588294730000,344.65672998046875,1.206288491270691,9.73210767697394,0.0363176693136338
1758278588304813800,344.66681372070315,1.1113217313099653,9.73734323953986,0.3456494206815957
1758278588314898000,344.6768979492188,1.0336852416608482,9.729349318176508,0.6645612026937305
1758278588324982800,344.68698266601564,0.9725228438854217,9.708159230631589,0.9880307941406964
1758278588335067100,344.69706713867185,0.924675270235166,9.674541038668156,1.3109624793186785
1758278588345151000,344.70715087890625,0.887372106148675,9.62954746620953,1.6293451228901743
1758278588355236000,344.7172360839844,0.8579989313438534,9.574371522432566,1.9405201731704171
1758278588365320000,344.72731982421874,0.8341182164754718,9.51000104933083,2.243772759888321
1758278588375403800,344.73740380859374,0.8143491747096181,9.437333288004996,2.5385017022803424
1758278588385489000,344.7474890136719,0.7978525056779384,9.357080186116695,2.824693848603964
1758278588395573000,344.7575729980469,0.7861904902610928,9.26958193540573,3.1027628942266103
1758278588405657000,344.7676569824219,0.7817058921929448,9.17469240539968,3.374066098976135
1758278588415742000,344.7777419433594,0.7853838500533252,9.072762309232354,3.638482174560428
1758278588425825800,344.7878256835937,0.7981132024407386,8.964420592457056,3.895201265901327
1758278588435910000,344.7979099121094,0.8224560549281537,8.849961269584298,4.14393111205399
1758278588445994800,344.8079948730469,0.8611052267961203,8.730002180251478,4.383600284394622
1758278588456079000,344.8180791015625,0.9140208974909036,8.605426537033916,4.613197267793119
1758278588466163000,344.8281628417969,0.9784305335592478,8.477093002587557,4.832386838945746
1758278588476248000,344.838248046875,1.0522262029364704,8.345822245645522,5.0408781982123845
1758278588486332000,344.8483317871094,1.1334120556302367,8.212564698800444,5.238277085578441
1758278588496415700,344.8584157714844,1.22170014154464,8.078194222277402,5.424077305087447
1758278588506500600,344.86850048828126,1.3163076397389173,7.943861739677191,5.597569831687212
1758278588516584400,344.87858447265626,1.4172602691762148,7.8108438468068835,5.757818845832348
1758278588526668300,344.88866821289065,1.524574104208499,7.679939000567793,5.904625025558471
1758278588536752400,344.89875244140626,1.6358792008340357,7.552280588904023,6.037991293475032
1758278588546837200,344.90883715820314,1.7483048259221017,7.428823136061429,6.158442550238966
1758278588556921600,344.91892163085936,1.859130176206678,7.311334236234426,6.265652632635831
1758278588567005400,344.9290053710937,1.9650769606694576,7.2018322435081,6.3594397543579335
1758278588577090600,344.93909057617185,2.0625399944253267,7.101537639588117,6.440846117934584
1758278588587174400,344.94917431640624,2.1464064645051955,7.011549325627088,6.5116445782572026
1758278588597258200,344.95925830078124,2.2101121900878846,6.933637818428873,6.573467120441794
1758278588607343400,344.96934326171873,2.2465517230823635,6.8702984419405455,6.627396279028058
1758278588617427500,344.9794274902344,2.2510588252432644,6.823765238824486,6.673781013584136
1758278588627511600,344.9895114746094,2.22656034380272,6.795646813321113,6.710588356977701
1758278588637596400,344.9995964355469,2.1838808935053646,6.786897689676285,6.733428549817204
1758278588647680300,345.0096801757812,2.1308117127493023,6.79901015227437,6.73821052339673
1758278588657764400,345.0197644042969,2.068206641884893,6.833871622297167,6.72243310855031
1758278588667849200,345.0298491210938,1.994172122250497,6.890252850210667,6.687157797029614
1758278588677933600,345.03993359375,1.9082532496854665,6.962938147193193,6.636749213784933
1758278588688017400,345.0500173339844,1.812535013770312,7.044571889784931,6.577165390437841
1758278588698102500,345.0601025390625,1.7126567355662583,7.128789219129085,6.512876750400662
1758278588708186400,345.0701862792969,1.6159817834481596,7.213416298317909,6.444036438408494
1758278588718270200,345.0802702636719,1.5257685746900735,7.300611766690015,6.367376977097988
1758278588728355300,345.09035522460937,1.4406450902864336,7.394697579097747,6.278007087296247
1758278588738439400,345.100439453125,1.359499715733528,7.499200156101584,6.171234811794758
1758278588748523500,345.1105234375,1.2828618817329407,7.616108041170239,6.04314151584506
1758278588758608400,345.1206083984375,1.213675605847314,7.744058713778853,5.892957968640327
1758278588768692500,345.1306923828125,1.154690186784789,7.878021778544783,5.724845381513237
1758278588778776300,345.1407763671875,1.1063348097428678,8.01115306866169,5.546877755326032
1758278588788861400,345.150861328125,1.06599805011414,8.13750448938012,5.367966126286984
1758278588798945500,345.1609455566406,1.030044035614282,8.252638935035467,5.196476171681285
1758278588809029400,345.171029296875,0.9950585008203984,8.354994563138485,5.037290402853489
1758278588819114500,345.1811145019531,0.9594304303392768,8.444848437064886,4.892282504720986
1758278588829198300,345.1911982421875,0.9221665753498672,8.524498896884918,4.759509526522457
1758278588839282400,345.2012824707031,0.8824153605241328,8.597512110647559,4.63406411473304
1758278588849367300,345.2113671875,0.8412875235829502,8.66765298384428,4.50936922904998
1758278588859451400,345.2214514160156,0.8013674549963324,8.73772137632668,4.37954750187248
1758278588869535500,345.2315354003906,0.7648867862738669,8.80974557905197,4.239543987898529
1758278588879620400,345.2416203613281,0.732256801630184,8.885456361335516,4.084461270475387
1758278588889704400,345.2517043457031,0.7023441131211817,8.966319704076648,3.90924878821522
1758278588899788300,345.2617883300781,0.6752187172431499,9.052917791077494,3.709333534114063
1758278588909873400,345.27187329101565,0.6531734011083841,9.144885296157002,3.480636129903793
1758278588919957500,345.28195751953126,0.6382917660579085,9.240659207782148,3.22074337696284
1758278588930041300,345.2920412597656,0.6336545347113162,9.336941653451325,2.930935962751508
1758278588940126500,345.3021264648437,0.6415532520718872,9.429606493145227,2.615592248484492
1758278588950210300,345.31221020507815,0.6636863926205784,9.514275073388218,2.282205804787576
1758278588960294400,345.3222944335937,0.7019013377897441,9.587494038856027,1.938473031382263
1758278588970379300,345.33237915039064,0.7575533746458589,9.646991352963449,1.5912448170766234
1758278588980463600,345.34246362304685,0.8298985529538243,9.691305710986256,1.2491082268215714
1758278588990547500,345.35254736328125,0.9154488114021718,9.720592595747112,0.9178449127584696
1758278589000632300,345.36263232421874,1.0115089926227927,9.735972535708546,0.5984087780786678
1758278589010716400,345.37271630859374,1.1190382970366626,9.738243403249978,0.2911622080874629
1758278589020800300,345.38280029296874,1.241328532730788,9.727768770986795,-0.0044934206954203
1758278589030885400,345.3928854980469,1.3797918315254152,9.704850252214074,-0.2871400216329842
1758278589040969500,345.4029694824219,1.5343667455568908,9.669999303585293,-0.5542655753716826
1758278589051053300,345.41305322265623,1.7049514218859374,9.623798693424463,-0.8037649445921182
1758278589061137400,345.4231374511719,1.8901948842950165,9.56697673600614,-1.0346599319119003
1758278589071222300,345.4332221679687,2.0879390779674054,9.50002442971766,-1.249171793577075
1758278589081306400,345.4433063964844,2.2943260123007,9.423191365405916,-1.4525595460943876
1758278589091390500,345.4533903808594,2.505312841644883,9.336476958549024,-1.6504590764589606
1758278589101475600,345.4634755859375,2.7157313695818184,9.240206203317642,-1.8476390603773292
1758278589111559400,345.4735593261719,2.9184035211756822,9.136319712385534,-2.0447394031882284
1758278589121643300,345.4836433105469,3.10591580529958,9.028377808582782,-2.238761361467093
1758278589131728400,345.4937282714844,3.2735432392582293,8.920606585171818,-2.424269466161728
1758278589141812200,345.5038122558594,3.416817153204977,8.817726640933751,-2.5968130214735865
1758278589151896600,345.513896484375,3.5317981618642804,8.723842488577962,-2.755240373149514
1758278589161981400,345.5239814453125,3.6182124167308207,8.64144886752963,-2.899014637833833
1758278589172065500,345.5340654296875,3.678124156858027,8.571696116867662,-3.02783741710186
1758278589182149400,345.5441494140625,3.714864572495222,8.51511264438033,-3.1405466814368963
1758278589192234500,345.554234375,3.733175305211544,8.47184341149628,-3.2344507075369355
1758278589202318300,345.564318359375,3.737344407589733,8.44168792720735,-3.3076483379557726
1758278589212402400,345.57440234375,3.731830904865265,8.423397068235278,-3.3600887192890045
1758278589222487600,345.5844875488281,3.720271107713878,8.415271629446744,-3.3931036846622824
1758278589232571400,345.5945712890625,3.7056776419550177,8.416174131244421,-3.406808677148818
1758278589242655500,345.6046555175781,3.689937051987648,8.42581523529291,-3.400056280279159
1758278589252740400,345.614740234375,3.6727386644274,8.444117784702778,-3.373165058483184
1758278589262824200,345.62482421875,3.652418345454335,8.470116149312258,-3.329768399827182
1758278589272908500,345.6349084472656,3.6266578812539576,8.502365975531935,-3.275286868055165
1758278589282993400,345.6449934082031,3.5926547816261647,8.540247670158744,-3.213623900346458
1758278589293077500,345.6550773925781,3.5474984198212622,8.58434107890725,-3.145585844647884
1758278589303161300,345.6651613769531,3.488599071606993,8.635047768315673,-3.071808368514478
1758278589313246500,345.67524658203126,3.413307683779299,8.692060279870033,-2.9946286827221518
1758278589323330300,345.6853303222656,3.319657340179384,8.75461931963563,-2.9166581388130783
1758278589333414400,345.6954143066406,3.206980516809225,8.821687945780157,-2.839625460276008
1758278589343499500,345.7054995117188,3.0756843331649897,8.892213434380292,-2.7638889590293165
1758278589353583400,345.71558325195315,2.9270643820151685,8.965068827232718,-2.6889047374546524
1758278589363667500,345.7256674804688,2.7617393797799945,9.039599459820986,-2.6131989236071704
1758278589373752300,345.73575244140625,2.579706111589074,9.115427146482467,-2.5346561327680943
1758278589383836400,345.74583642578125,2.3813036001384256,9.192237414440513,-2.450007426269352
1758278589393920500,345.75592041015625,2.167056015432626,9.269908683142065,-2.3543644475474954
1758278589404004400,345.76600439453125,1.939064421404153,9.34804406222403,-2.241535502355545
1758278589414089500,345.77608935546874,1.7010136440455912,9.425843341219425,-2.10485908697769
1758278589424173300,345.78617333984374,1.4594161339908838,9.501699084931612,-1.9386133166357875
1758278589434257400,345.79625732421874,1.2237350814383476,9.573383680438996,-1.7387252428025006
1758278589444342300,345.80634228515623,1.003345267650485,9.638692311173678,-1.5030995006337762
1758278589454426400,345.81642626953123,0.8071249225445091,9.695338327503205,-1.2326124345727263
1758278589464510500,345.8265104980469,0.6426258497394621,9.741184132876992,-0.9309913945794104
1758278589474595300,345.8365952148437,0.5150960328914225,9.774480253279208,-0.6038016866307705
1758278589484679400,345.8466794433594,0.4266343805084004,9.79394658577144,-0.2587679136294871
1758278589494763300,345.8567631835937,0.3769933841027319,9.798936064621806,0.095429482101649
1758278589504848400,345.8668483886719,0.3641115080347284,9.789552734726668,0.4499615531472489
1758278589514932200,345.8769321289063,0.3856410201344639,9.76655004480183,0.7975866212833672
1758278589525016300,345.8870163574219,0.4385737880945205,9.730820559772848,1.1354083440139888
1758278589535101200,345.8971010742188,0.517804670795612,9.68299848589003,1.4634846986040473
1758278589545185000,345.90718505859377,0.6198488583292812,9.623424599415063,1.7821010048009454
1758278589555269000,345.9172690429688,0.7410962339069694,9.55252443228364,2.0905638735130427
1758278589565354000,345.92735400390626,0.8767001977477222,9.471365321466326,2.386422404456884
1758278589575438300,345.93743823242187,1.022142614839971,9.38077728804648,2.669576352128386
1758278589585522200,345.94752221679687,1.171474367520958,9.281320303994416,2.941960630112886
1758278589595607300,345.9576071777344,1.3185662323206662,9.173307088521122,3.2065894716650245
1758278589605691100,345.96769116210936,1.4590003927968442,9.057188892525431,3.4654075811117884
1758278589615775200,345.9777751464844,1.5913519307129085,8.933719749245046,3.7184175888016817
1758278589625860000,345.98786010742185,1.7157555783644318,8.8041160487324,3.964101783648133
1758278589635944200,345.99794409179685,1.8328297599107024,8.669473769530654,4.201351035365462
1758278589646028300,346.0080283203125,1.9427678059667348,8.530421857193112,4.430343330869079
1758278589656113200,346.0181130371094,2.044089122585952,8.387638941633702,4.65183767183274
1758278589666197200,346.028197265625,2.1352374202370643,8.242033954390884,4.866211951658129
1758278589676281000,346.0382810058594,2.2169145635791123,8.094802242729067,5.07246050043404
1758278589686365200,346.048365234375,2.291092144946009,7.946931064119934,5.269494061619043
1758278589696450300,346.0584501953125,2.3595872967623173,7.799761896300315,5.455862436404824
1758278589706534100,346.0685341796875,2.4225763985082507,7.654886976897716,5.630652017077804
1758278589716618200,346.0786181640625,2.481640581895411,7.513613296857476,5.7928813913851975
1758278589726703000,346.088703125,2.538409347821772,7.376447052136063,5.942631807869672
1758278589736787200,346.098787109375,2.592846748191118,7.242911857393383,6.081755031877756
1758278589746871300,346.1088713378906,2.6431843120262024,7.112064878821372,6.213090670749545
1758278589756956200,346.1189560546875,2.685998786880076,6.984082642030716,6.338641296479105
1758278589767040300,346.12904028320315,2.7167253490552303,6.861008051025867,6.458820750564336
1758278589777124000,346.1391240234375,2.732774566580355,6.747092333510517,6.571079348522424
1758278589787209200,346.14920922851564,2.733550227127969,6.648612670058012,6.670385525926947
1758278589797293300,346.15929321289065,2.7186256297186016,6.572146100971103,6.7517667550623415
1758278589807377200,346.16937719726565,2.6867133648902177,6.523154398787021,6.81178487817347
1758278589817462300,346.17946215820314,2.636089677590132,6.505155216237903,6.848677561762929
1758278589827546000,346.18954614257814,2.571944537676871,6.518654749280214,6.860220700040459
1758278589837630200,346.19963012695314,2.505609194242954,6.563003594094514,6.842463509553671
1758278589847715000,346.20971508789063,2.442729105829448,6.638342620456219,6.792339588469266
1758278589857799200,346.21979907226563,2.380410889082402,6.742922354349494,6.710964204552769
1758278589867883300,346.22988330078124,2.3167146619804204,6.870406578490138,6.603087182679772
1758278589877968100,346.2399680175781,2.253083170677721,7.011640511041879,6.475405390140414
1758278589888052200,346.25005224609373,2.189150358340889,7.158707972052693,6.334894511166215
1758278589898136000,346.2601359863281,2.1254440482363104,7.307413847920298,6.185027190303802
1758278589908221200,346.2702211914062,2.065715409591049,7.457675721058249,6.023810207909345
1758278589918305300,346.2803051757812,2.0156714218750595,7.61116357050538,5.846165237805247
1758278589928389000,346.2903891601562,1.9816333970643576,7.768574730876088,5.647367005035281
1758278589938474200,346.30047412109377,1.9665275978691876,7.928668846720456,5.425806905359029
1758278589948558000,346.3105581054688,1.9688433274656532,8.087599764004349,5.185052860391139
1758278589958642200,346.3206420898438,1.9839847824960943,8.240711765876412,4.932023271217942
1758278589968726300,346.3307263183594,2.005649501815438,8.384708733400702,4.673801374098658
1758278589978811400,346.3408112792969,2.0281458496533333,8.518039345481991,4.415884305144846
1758278589988895200,346.3508952636719,2.047297709368914,8.6408327814579,4.161126284743845
1758278589998979000,346.36097900390627,2.059775644278526,8.754185019871592,3.9104932353183615
1758278590009064200,346.3710642089844,2.062895529864728,8.859365057745576,3.6642224727556103
1758278590019148000,346.3811479492188,2.055446529033035,8.957078413000703,3.42290173381567
1758278590029232400,346.391232421875,2.03706682273373,9.047753540182113,3.1873014183491466
1758278590039317200,346.40131713867186,2.0078774069979786,9.131897804290055,2.957577009178698
1758278590049401300,346.4114013671875,1.968291831062734,9.21008812842965,2.733220264521241
1758278590059485200,346.42148510742186,1.9183299686722457,9.282911372578145,2.513556646116078
1758278590069570300,346.4315703125,1.858706543967128,9.350601930013298,2.29822784204483
1758278590079654100,346.44165405273435,1.7906024372950196,9.413046403488517,2.087749108353257
1758278590089738200,346.45173828125,1.715410856579989,9.4700519007802,1.8830467661060395
1758278590099823400,346.4618232421875,1.635103978677839,9.521591533881423,1.6840766839005052
1758278590109907200,346.4719072265625,1.5510516306370496,9.567921323379874,1.4897963669463992
1758278590119991300,346.4819912109375,1.464487592036277,9.60938730623424,1.298209526859969
1758278590130076200,346.492076171875,1.376889972604066,9.646308046874404,1.106033123382553
1758278590140160000,346.5021599121094,1.2907163946256042,9.678762455755471,0.9088467827886344
1758278590150244400,346.5122443847656,1.2089821142688393,9.706358318689466,0.703815062456578
1758278590160329200,346.5223291015625,1.1332887945767491,9.728701667922737,0.4882628614256158
1758278590170413300,346.5324133300781,1.065537519930303,9.745092830753324,0.2611001377030275
1758278590180497200,346.5424970703125,1.007690603378415,9.75470821583867,0.0247625529039418
1758278590190581000,346.5525810546875,0.9629169572807847,9.756876792049407,-0.215691134577617
1758278590200666000,346.562666015625,0.9356725381329656,9.751334940013288,-0.4542614422982558
1758278590210750200,346.57275024414065,0.93232344690077,9.738157478532194,-0.685147698322311
1758278590220834300,346.58283422851565,0.9589926965091377,9.717657126817109,-0.9043480100646616
1758278590230919200,346.59291918945314,1.0188267682902514,9.690174076607825,-1.1103566126048563
1758278590241003300,346.60300317382814,1.1142309698201716,9.655478026279807,-1.3040785650238391
1758278590251087000,346.61308715820314,1.2462414392136036,9.61259516236484,-1.4883851849742231
1758278590261172200,346.62317211914063,1.411822608166933,9.560658054378628,-1.6646210189327597
1758278590271256300,346.63325634765624,1.604941187865287,9.499848488628864,-1.829597061599791
1758278590281340200,346.64334008789064,1.8179662450388072,9.431774484834074,-1.9766187837727367
1758278590291425300,346.65342529296873,2.041954594775289,9.358997417914868,-2.0999970338992773
1758278590301509000,346.6635090332031,2.269719540441036,9.283447379150989,-2.199179000402242
1758278590311593200,346.67359326171874,2.4937837318927047,9.206438373750448,-2.2787999418668448
1758278590321678000,346.6836779785156,2.7064716660663484,9.128861797595023,-2.347188564568758
1758278590331762200,346.6937622070312,2.9002357040613886,9.05189780037999,-2.4129149823240934
1758278590341846300,346.7038461914062,3.0681057146042585,8.97769274648428,-2.4815581643089653
1758278590351931100,346.7139311523438,3.204783299025893,8.90906052428484,-2.555070267504453
1758278590362015200,346.7240151367188,3.308326675608754,8.848846586340665,-2.6312109656378624
1758278590372099000,346.7340991210938,3.378911493180692,8.799081561696529,-2.707304609759152
1758278590382184200,346.74418408203127,3.41782983737886,8.760934494131803,-2.7811601195648312
1758278590392268300,346.7542683105469,3.429281790241599,8.734712842160462,-2.848720328618586
1758278590402352000,346.76435205078127,3.4192256756514308,8.720511882850527,-2.903781121583283
1758278590412436200,346.7744362792969,3.393762440831959,8.718723830389976,-2.938809472605586
1758278590422521000,346.78452099609376,3.356482219229638,8.730101548972725,-2.9478333215385675
1758278590432605200,346.79460522460937,3.310292130462825,8.754176252043246,-2.928606058499217
1758278590442689300,346.8046892089844,3.257297914639115,8.78957022150755,-2.8816403091847893
1758278590452774400,346.8147744140625,3.1994314166039226,8.83362154468,-2.8108976707026363
1758278590462858200,346.82485815429686,3.137008862699568,8.883922575896978,-2.7212989405810832
1758278590472942000,346.83494213867186,3.068812986090779,8.939038313919305,-2.616556709602475
1758278590483027200,346.8450270996093,2.9923671675309538,8.998255057519673,-2.4995062011927365
1758278590493111000,346.85511108398435,2.9056863706827163,9.060468060326576,-2.3738759343557057
1758278590503195400,346.8651953125,2.806911231414974,9.12461583058834,-2.24343841336742
1758278590513280800,346.8752807617187,2.694357449902594,9.190017400303482,-2.110547946269065
1758278590523365000,346.885365234375,2.5677950167819854,9.255869051873685,-1.976283414338529
1758278590533449000,346.8954489746094,2.427831980948895,9.32139337118566,-1.8405540705524384
1758278590543534000,346.9055341796875,2.276001835580915,9.38588717840612,-1.701569085971266
1758278590553618000,346.9156179199219,2.114243439786136,9.448676519796251,-1.5565582652293144
1758278590563701800,346.9257016601563,1.945261084087193,9.509081596398351,-1.4013285405509173
1758278590573786000,346.9357861328125,1.771669627157599,9.566372340372205,-1.2313016442351044
1758278590583871000,346.94587109375,1.5950814726300535,9.61972106872201,-1.0426368290752173
1758278590593955000,346.955955078125,1.4190909917347132,9.667606270968914,-0.83305847828947
1758278590604039000,346.9660388183594,1.2495289364516735,9.708075644001363,-0.6019448067177087
1758278590614123800,346.97612377929687,1.094189906179905,9.73906056485176,-0.3518993844544514
1758278590624208000,346.98620776367187,0.957742038860917,9.75939082069695,-0.0860747572464868
1758278590634292000,346.9962919921875,0.8417511225067078,9.768537419226766,0.193716088933777
1758278590644377000,347.00637719726564,0.7491511647425592,9.76593512777388,0.4854634034328162
1758278590654461000,347.0164609375,0.6818947609409689,9.751322080531716,0.7855694357533007
1758278590664544800,347.0265446777344,0.6383619817499071,9.724986446791888,1.0897394295770677
1758278590674630000,347.0366298828125,0.6150923845171928,9.687440852251648,1.3948308490946888
1758278590684713700,347.04671362304686,0.6076619057228788,9.639372694653272,1.6981313666075466
1758278590694798000,347.0567980957032,0.611603884814307,9.58167278535664,1.9969673059269784
1758278590704883000,347.0668830566406,0.6232565478809178,9.515104509949683,2.290133236785978
1758278590714967000,347.0769670410156,0.6402808209832758,9.440307919901608,2.577016726374626
1758278590725051000,347.08705078125,0.6611217297643422,9.35770679358244,2.857733656157553
1758278590735136000,347.0971359863281,0.684942531139031,9.267949950289726,3.131508803978562
1758278590745219800,347.1072197265625,0.7113716883812099,9.171198718065025,3.399037166364491
1758278590755304000,347.1173039550781,0.7377202546678483,9.06724559163749,3.662132222478092
1758278590765389000,347.12738916015627,0.7619478832777589,8.956496229198574,3.920582959917188
1758278590775473000,347.1374729003906,0.7892167792797088,8.838837233501673,4.174024344761669
1758278590785557000,347.1475568847656,0.8252279307942837,8.71390327836573,4.422361976726353
1758278590795640800,347.1576408691406,0.8694063874777406,8.582357796135545,4.66451215222776
1758278590805726000,347.1677258300781,0.9207667915545404,8.445319561707972,4.898893447293341
1758278590815810000,347.17781005859376,0.977641867399588,8.304260401201248,5.123851664975286
1758278590825894000,347.1878937988281,1.0376723385356366,8.161366426482797,5.337203323754668
1758278590835979000,347.19797900390626,1.1005995540264992,8.0186846332103,5.53712734568417
1758278590846062800,347.20806274414065,1.1667680895261463,7.878245065906643,5.722088776281476
1758278590856147000,347.21814697265626,1.2369481256894768,7.741940990972519,5.890900451588631
1758278590866231800,347.22823168945314,1.3126682603232562,7.610960741409658,6.043225102475285
1758278590876316000,347.23831591796875,1.3966706317424773,7.485976517391204,6.178982064920663
1758278590886400000,347.2483999023437,1.4898976353637874,7.366347682926058,6.299802154996991
1758278590896484900,347.25848486328124,1.5907565951682627,7.252782678544521,6.40601562757194
1758278590906569000,347.26856884765624,1.6980996562950312,7.1465902487576,6.4971607103526585
1758278590916652800,347.27865283203124,1.8089773212887343,7.049196626976132,6.573188303500413
1758278590926738000,347.2887380371094,1.917611006747931,6.961183997002244,6.635892889216541
1758278590936822000,347.2988220214844,2.016387315059453,6.883675225386023,6.687268271666765
1758278590946905900,347.30890576171873,2.0977124300934373,6.818362502998113,6.72903528329432
1758278590956991000,347.3189909667969,2.1554547172270717,6.767451230928302,6.762100517550111
1758278590967074800,347.3290747070312,2.1875749257177115,6.733322166833281,6.785813986092806
1758278590977159000,347.3391589355469,2.194448464749008,6.719040543502569,6.797740570729971
1758278590987243000,347.3492429199219,2.1777517431005835,6.727372318518161,6.79486939920783
1758278590997328100,347.359328125,2.140495048504323,6.760282069951296,6.774013073661923
1758278591007412000,347.3694118652344,2.083856777089834,6.818734258919954,6.732961516827345
1758278591017495800,347.3794958496094,2.010585789173841,6.901357012549043,6.67077072585225
1758278591027581000,347.3895808105469,1.926368459829688,7.004021268209814,6.588108809256553
1758278591037664800,347.3996647949219,1.8363298769861456,7.120773085933923,6.487900714576244
1758278591047749000,347.4097490234375,1.7434139851406216,7.244369070464372,6.375735055598616
1758278591057834000,347.419833984375,1.650195457086712,7.368622642120719,6.257046132332087
1758278591067917800,347.42991772460937,1.556950041025877,7.490794731327891,6.134679981857538
1758278591078002000,347.440001953125,1.4626052854210136,7.612568176606297,6.0066626737535
1758278591088086800,347.45008666992186,1.366747202643752,7.738380083620548,5.866845037740469
1758278591098171000,347.4601708984375,1.2712316496938467,7.872857527649402,5.707231398889422
1758278591108255000,347.4702548828125,1.180576396256685,8.018092512536048,5.521486124438047
1758278591118340000,347.4803400878906,1.0985489781722426,8.172721348711848,5.307561634206771
1758278591128424000,347.490423828125,1.0273032855387776,8.3310367644459,5.07039129294455
1758278591138507800,347.5005078125,0.966278469603136,8.486047877937555,4.819097441522777
1758278591148593000,347.5105930175781,0.9128378982514144,8.63122674872279,4.564978595808148
1758278591158676700,347.5206767578125,0.8649555455487221,8.762742420336604,4.3170109661996365
1758278591168761000,347.5307609863281,0.8207008087586611,8.879345184978842,4.08093923382908
1758278591178845000,347.5408449707031,0.7796380729429423,8.980428308928012,3.861922096633911
1758278591188930000,347.5509299316406,0.7417128314353525,9.06564224809408,3.6652947781622407
1758278591199014000,347.5610139160156,0.707707759046182,9.135429485547542,3.494777175720036
1758278591209098000,347.5710979003906,0.6785591137122362,9.19110402649641,3.3516482232019302
1758278591219182800,347.5811828613281,0.6542047899827361,9.235650439709424,3.2318992694884536
1758278591229267000,347.5912668457031,0.6332526028469204,9.27309023578763,3.127164052772522
1758278591239351000,347.6013510742188,0.6143192081876099,9.307775764721631,3.0262670990452167
1758278591249436000,347.61143579101565,0.5962575183289125,9.343706909802556,2.9171926840811966
1758278591259520000,347.62152001953126,0.5778682770162821,9.3837741317749,2.7894848803177474
1758278591269603800,347.63160375976565,0.5589186618745327,9.428914419227835,2.636963537815213
1758278591279689000,347.6416889648437,0.540706822955422,9.478421669718625,2.4571406391501425
1758278591289773000,347.65177294921875,0.5255207981308921,9.530318445694446,2.251056341025233
1758278591299857000,347.6618569335937,0.5172459044016897,9.582203531232476,2.020946878059953
1758278591309942000,347.67194189453124,0.5201994935102761,9.63139338633716,1.7708927975662052
1758278591320025900,347.68202587890624,0.5382719604913145,9.675067108368872,1.5078874655626713
1758278591330110000,347.69210986328125,0.5775847108345479,9.710683196151257,1.2407312974900009
1758278591340194000,347.70219409179685,0.6450236315961927,9.736405081906916,0.9781282626770436
1758278591350279000,347.71227880859374,0.7407349993791431,9.751696174541117,0.7253218147352337
1758278591360363000,347.7223630371094,0.8617139332789927,9.756744690102336,0.4834700741911307
1758278591370446800,347.73244677734374,1.0074069641314447,9.75155647380948,0.25036141114356
1758278591380532000,347.7425319824219,1.1782232572592797,9.735579152476786,0.0256051092418842
1758278591390616000,347.7526159667969,1.3705394345335662,9.708613404139877,-0.1866577313874848
1758278591400700000,347.7626999511719,1.5787610369481146,9.67126596252024,-0.3801770556401461
1758278591410785000,347.7727849121094,1.7992118602082132,9.624390229576823,-0.5516647452235222
1758278591420868900,347.7828688964844,2.029578951196372,9.568690554186702,-0.7009689523104577
1758278591430953000,347.7929528808594,2.267700309573114,9.504503036436438,-0.8320773582976311
1758278591441037800,347.8030378417969,2.510553957168758,9.432072006475924,-0.9505310845687984
1758278591451122000,347.8131218261719,2.752657078658044,9.352276585227251,-1.062155330146104
1758278591461206000,347.8232060546875,2.988267330996692,9.266555281060931,-1.1711544879168272
1758278591471291000,347.8332907714844,3.2120819316014644,9.176806621074675,-1.280293492549658
1758278591481375000,347.843375,3.4195901250496505,9.085629974111914,-1.3885614134363828
1758278591491458800,347.8534587402344,3.607348200628161,8.99632438171804,-1.4911594719931482
1758278591501544000,347.8635439453125,3.773247203359008,8.912589867454766,-1.5807368670657276
1758278591511628300,347.87362817382814,3.917264336888492,8.837488741502165,-1.650524689041078
1758278591521712400,347.88371240234375,4.041891125771403,8.77270734951198,-1.6950225869372486
1758278591531796200,347.89379614257814,4.150948589600622,8.718673561507464,-1.7101877151042222
1758278591541881300,347.90388134765624,4.24792457049191,8.674875336313248,-1.694714251640439
1758278591551965200,347.91396508789063,4.3355692439362405,8.640231892955303,-1.6491250513762234
1758278591562049300,347.92404931640624,4.414489343655109,8.613740776392817,-1.5767510122999548
1758278591572134100,347.9341340332031,4.482731397493184,8.594894621625542,-1.484346138716489
1758278591582218500,347.9442185058594,4.537974561287462,8.583033503440022,-1.381557526023686
1758278591592302300,347.95430224609373,4.577684348124265,8.577939979693292,-1.2783302296526728
1758278591602387500,347.9643874511719,4.599620285600423,8.579794667649269,-1.1836421405028552
1758278591612471300,347.9744711914062,4.600545291490852,8.589906896340846,-1.1040198107987642
1758278591622555100,347.9845551757812,4.578676281771063,8.609192611569165,-1.043036422852054
1758278591632640300,347.9946401367188,4.533316798609495,8.638049872741103,-1.001766985483095
1758278591642724400,348.0047243652344,4.464781607043743,8.676499722644687,-0.9769761700324714
1758278591652808400,348.0148083496094,4.374581403897702,8.724132995957136,-0.9606957740999758
1758278591662893300,348.0248933105469,4.265211513118445,8.779836763000487,-0.9448986316397786
1758278591672977200,348.03497705078127,4.139780129854381,8.841734123986958,-0.9253856104616076
1758278591683061200,348.0450612792969,4.00126773122102,8.907761132124065,-0.9011283904310315
1758278591693146000,348.05514599609376,3.8526018951028576,8.975832797831297,-0.8730782809235155
1758278591703230500,348.06523046875,3.6959181722238656,9.044295508682728,-0.8433812809918075
1758278591713314300,348.0753142089844,3.5330443625330923,9.11184227373302,-0.8138382295127957
1758278591723398100,348.08539819335937,3.365596084533632,9.17756240787804,-0.7845313979424535
1758278591733483300,348.09548315429686,3.193308549809456,9.241521377569436,-0.7533052887473255
1758278591743567000,348.10556713867186,3.014635697962344,9.304317148700356,-0.7155745468985288
1758278591753651500,348.1156513671875,2.8277096892938016,9.366476960015296,-0.6659938658453524
1758278591763736300,348.125736328125,2.6311507598832247,9.428041143524649,-0.5995607245927677
1758278591773820400,348.1358203125,2.4257784094199537,9.48810427482128,-0.5117116511501372
1758278591783904300,348.145904296875,2.214947793550789,9.544875963357091,-0.3996613987131044
1758278591793989400,348.1559892578125,2.003017545876652,9.596326164609192,-0.262330300552491
1758278591804073200,348.1660732421875,1.7957140812203287,9.640324296289682,-0.0997072781518567
1758278591814157300,348.1761572265625,1.5998830276928842,9.674870709013938,0.0872986273524817
1758278591824242400,348.1862424316406,1.423077577152848,9.69827321191132,0.2978682085321285
1758278591834326300,348.196326171875,1.2672522246688604,9.709896429687738,0.5313820183144882
1758278591844410400,348.2064104003906,1.1326863717041908,9.709247025868295,0.7860927289750427
1758278591854494200,348.216494140625,1.0213145665179937,9.695784317705035,1.0578604094311594
1758278591864579300,348.2265793457031,0.9346595616981388,9.66953227059543,1.3404983704045417
1758278591874663400,348.2366633300781,0.8724084188379346,9.631222121423482,1.627531789857894
1758278591884747300,348.2467473144531,0.833533621520549,9.58187736801803,1.9139565758936103
1758278591894832400,348.25683227539065,0.8168048972986638,9.522671145811676,2.195896763861179
1758278591904916200,348.26691625976565,0.8197080713942646,9.45472456778884,2.471166826415062
1758278591915000300,348.27700024414065,0.8405915041428059,9.379044765165448,2.738119142478704
1758278591925085200,348.28708520507814,0.8761458518005907,9.296794936501978,2.995391776049137
1758278591935169300,348.29716918945314,0.9218589707054198,9.209414174690842,3.2414924427419898
1758278591945253400,348.30725341796875,0.9739148827657104,9.1181457577914,3.4758147010967133
1758278591955338200,348.31733813476563,1.0307414432939142,9.023815615233778,3.698470779316127
1758278591965422300,348.32742236328124,1.0904304075159132,8.926731205531954,3.910857684716582
1758278591975506400,348.33750634765624,1.1491611942302435,8.827101203000545,4.114861961697041
1758278591985591300,348.34759130859373,1.2049734631493687,8.725060632196069,4.311814274339378
1758278591995675400,348.35767529296874,1.2567061346046626,8.620980079996585,4.50219802224636
1758278592005759200,348.36775927734374,1.303280254253,8.515531746575236,4.685889871299267
1758278592015844400,348.3778442382812,1.345312784948945,8.409134734126924,4.862816171739995
1758278592025928200,348.3879282226562,1.3835193276159463,8.302568210330605,5.032255915817618
1758278592036012300,348.39801220703123,1.418445971829444,8.196223804852366,5.194257911109924
1758278592046096400,348.4080964355469,1.450917916367203,8.09006060115993,5.349404633679986
1758278592056181500,348.4181813964844,1.482559547560662,7.983480633360147,5.498766927629709
1758278592066265300,348.4282653808594,1.5152046567082404,7.876552290514111,5.64220333866179
1758278592076349200,348.4383491210937,1.54889679069072,7.770180997028946,5.778892028999328
1758278592086434300,348.4484343261719,1.5829554198980331,7.666824082928896,5.906304941469431
1758278592096518400,348.4585183105469,1.6170453210264444,7.568990900686383,6.022120939648151
1758278592106602500,348.4686025390625,1.6499286228440702,7.478477686068415,6.125397189727425
1758278592116687400,348.47868725585937,1.676989209857583,7.397357738217711,6.215882347294688
1758278592126771200,348.4887712402344,1.6939768772765993,7.329265614244341,6.291476809722185
1758278592136855300,348.4988552246094,1.7026140649795531,7.277581604236364,6.348881535464525
1758278592146940200,348.50894018554686,1.7092887204378842,7.245703533938527,6.383454836195707
1758278592157024300,348.51902416992186,1.7190752243064342,7.2382748452425,6.389252708819508
1758278592167108400,348.5291083984375,1.7268007039919495,7.259891633766889,6.362586235690117
1758278592177193500,348.539193359375,1.722879438894987,7.310037182161212,6.305985227546096
1758278592187277300,348.54927734375,1.703578526097536,7.382211607012152,6.226649825024604
1758278592197361200,348.5593610839844,1.669719511115551,7.466978971454501,6.134058050566911
1758278592207446300,348.5694462890625,1.6245914986222982,7.556737568312883,6.035463236302137
1758278592217530400,348.5795302734375,1.5723782040432095,7.648036380350589,5.933427341672778
1758278592227614500,348.5896145019531,1.5154004715412854,7.741318475160003,5.82631545895338
1758278592237698300,348.5996982421875,1.4559998958066105,7.839190235847234,5.709426863107085
1758278592247783400,348.6097834472656,1.3968553406596182,7.944373196330666,5.577286922115087
1758278592257867300,348.6198671875,1.343406366805732,8.057616713672877,5.425907443124055
1758278592267951400,348.6299514160156,1.3022168628051876,8.176739936703443,5.255049941202998
1758278592278036500,348.6400363769531,1.278468176818639,8.29780552597344,5.067773803922534
1758278592288120300,348.6501203613281,1.273263740043342,8.415480303761363,4.871227441732585
1758278592298204400,348.6602043457031,1.2841292713202537,8.526286949345469,4.671598018835485
1758278592308289300,348.6702893066406,1.3056268173791468,8.628582371693849,4.473621331581473
1758278592318373000,348.680373046875,1.3324176475405691,8.721480435621737,4.281451284779608
1758278592328457500,348.69045751953126,1.360033384218812,8.804795847690105,4.098324668394029
1758278592338542300,348.70054223632815,1.3857308661855756,8.878876982945203,3.926279710254073
1758278592348626400,348.71062646484376,1.407467920088768,8.944695316767692,3.7658769668519496
1758278592358710300,348.7207102050781,1.4241545587345956,9.003527444964647,3.61644306897074
1758278592368794000,348.73079418945315,1.4357029577091336,9.057461279726027,3.474409218212962
1758278592378879200,348.74087915039064,1.4410487026512622,9.109035399618744,3.334548912101984
1758278592388963300,348.75096337890625,1.4394783845946193,9.160068252241611,3.1924040021851656
1758278592399047400,348.76104736328125,1.4300681666925548,9.211683873188496,3.0446976587489245
1758278592409132300,348.77113232421874,1.4130465970039368,9.264326499095558,2.888934850107133
1758278592419216400,348.78121630859374,1.3892106711253522,9.31783304835558,2.723687004761397
1758278592429300200,348.79130029296874,1.360002550689131,9.371609062206744,2.5482792921900748
