time,seconds_elapsed,z,y,x
1758278447961309400,204.32330932617188,-2.1984756744384764,9.163806854248046,2.006640266418457
1758278447971393300,204.33339331054688,-2.089539498901367,9.417592230224608,2.2354361625671384
1758278447981477400,204.34347729492188,-1.9473837753295895,9.764152920532226,2.5016414596557617
1758278447991561500,204.3535615234375,-1.8320131828308104,10.162637859344482,2.7904420349121093
1758278448001646300,204.3636462402344,-1.6615759521484377,10.59149923171997,3.076399495697021
1758278448011730400,204.37373046875,-1.2656348526000976,10.920552322387694,3.35831674118042
1758278448021814300,204.3838142089844,-0.7830535804748535,10.99372511062622,3.718494453430176
1758278448031898400,204.3938984375,-0.1382651458740234,10.73814408340454,4.016871835327148
1758278448041982500,204.403982421875,0.8301894256591796,10.370035578155518,4.22007970123291
1758278448052066300,204.41406640625,2.238279277038574,10.07450131072998,4.585045816802978
1758278448062150100,204.4241501464844,3.7466263229370114,9.96556513519287,5.13960277633667
1758278448072235300,204.4342353515625,4.836885903930664,9.89538509902954,5.319467176055908
1758278448082319400,204.4443193359375,5.778405706787109,9.534608836364743,4.597615375518799
1758278448092403500,204.45440356445312,6.552630668640137,8.84223564376831,3.5371336776733395
1758278448102487300,204.4644873046875,6.962188790130615,7.950994075775146,2.0958242782592773
1758278448112571100,204.47457104492187,6.83769030380249,7.461679111480713,0.2051531547546386
1758278448122655500,204.4846555175781,6.183773975372314,7.669076830291748,-1.5643115097045897
1758278448132739300,204.4947392578125,5.002235456085205,8.347384088134765,-2.8290485366821287
1758278448142824400,204.50482446289064,3.709815472412109,9.250596664428713,-3.471143494415283
1758278448152908300,204.514908203125,2.7301380805969235,10.212317543792723,-3.2787095359802243
1758278448162992000,204.5249921875,2.0904373245239256,10.852467212677002,-2.717119609069824
1758278448173076500,204.5350764160156,1.735945841217041,10.89855559463501,-2.2691046234130856
1758278448183160300,204.5451604003906,1.626710390472412,10.615740523529052,-2.020706201171875
1758278448193244200,204.555244140625,1.861641428375244,10.397718534851071,-1.870918959808349
1758278448203328300,204.56532836914064,2.1027076080322264,10.389638104248046,-1.6361375595092773
1758278448213413000,204.5754130859375,2.109890213012695,10.498574279785156,-1.400757608795166
1758278448223497500,204.58549755859372,1.9904794052124024,10.471789148712158,-1.2409446479797364
1758278448233581300,204.5955812988281,1.8043302261352536,10.250924045562744,-0.9015665626525878
1758278448243665200,204.6056650390625,1.6491560310363769,9.88910031967163,-0.2997241203308105
1758278448253749200,204.6157492675781,1.5949872184753418,9.453056342315673,0.5448305152893066
1758278448263833300,204.6258332519531,1.5876549758911132,9.044246408843994,1.399560507965088
1758278448273917200,204.6359172363281,1.673247685241699,8.809315370941162,2.045695680999756
1758278448284002300,204.64600219726563,1.7995418228149411,8.883834897613525,2.392705284118652
1758278448294086100,204.65608618164063,1.879597940826416,9.35908392715454,2.4211364288330075
1758278448304170500,204.66617041015624,1.8715175102233883,10.13734910430908,2.287360411071777
1758278448314254300,204.67625439453124,1.697638614654541,11.065551160430909,2.101211231994629
1758278448324338200,204.68633813476563,1.4318822303771972,11.971307575988767,2.0542250244140625
1758278448334422300,204.69642236328124,1.0386346076965332,12.74852528991699,2.099714855957031
1758278448344506400,204.70650634765624,0.479438882446289,13.393014449310302,2.144306861877441
1758278448354591500,204.7165915527344,-0.0745195266723632,13.926322869110107,2.255188326263428
1758278448364674600,204.72667456054688,-0.4758475799560546,14.35234112701416,2.4343045379638677
1758278448374758400,204.73675830078125,-0.8406640579223632,14.545822548675536,2.606537419891357
1758278448384842800,204.7468427734375,-1.0459668502807618,14.309993685150143,2.775777549743652
1758278448394926600,204.75692651367189,-0.9573813888549804,13.616124116516112,2.8284499862670898
1758278448405010400,204.7670104980469,-0.8761281700134277,12.690166624450685,2.587084531402588
1758278448415094500,204.7770944824219,-0.8545803550720215,11.706449017333984,2.1396680961608885
1758278448425179400,204.78717944335935,-0.8451531860351562,10.82852519607544,1.717989328765869
1758278448435263700,204.797263671875,-0.9235632904052734,10.065223779296874,1.3350667007446289
1758278448445347600,204.80734765625,-0.7230489013671875,9.49256066970825,1.2342109558105467
1758278448455431400,204.8174313964844,-0.5635352157592773,8.89386061706543,1.1194389137268066
1758278448465515500,204.827515625,-0.4560954162597656,8.239645013427733,1.1821370697021485
1758278448475599600,204.837599609375,-0.321122297668457,7.676857985687255,1.33446815032959
1758278448485683500,204.84768334960935,-0.201112939453125,7.21417851486206,1.505354293823242
1758278448495768600,204.8577685546875,-0.1649006393432617,6.877643544006348,1.6653168922424315
1758278448505852400,204.86785229492187,-0.1786672988891601,6.655132427215576,1.835454847717285
1758278448515936500,204.8779365234375,-0.2299929969787597,6.60156216506958,2.094776815032959
1758278448526020600,204.8880205078125,-0.4929062667846679,6.738181297302246,2.4239795433044438
1758278448536104400,204.8981044921875,-0.8463502868652343,6.914903307342529,2.6529250770568846
1758278448546188500,204.9081884765625,-0.8875006278991698,7.055413017272949,2.6792612953186032
1758278448556272400,204.9182724609375,-0.6798036338806152,7.27777449645996,2.8188731796264648
1758278448566357500,204.928357421875,-0.6968623207092285,7.693467759704589,3.4867058052062987
1758278448576441600,204.93844165039064,-1.3184569267272948,8.309376136779784,4.709843578338623
1758278448586525400,204.948525390625,-2.1534347557067868,8.539818046569824,6.029347968292236
1758278448596609500,204.95860961914065,-2.619555891418457,8.447940557861328,7.071573878479003
1758278448606693600,204.9686936035156,-3.2392052085876464,8.49762024230957,7.607126862335204
1758278448616777500,204.97877758789065,-3.5571851165771484,8.821136741638183,7.63570764465332
1758278448626861600,204.9888615722656,-3.3910873764038083,8.825476232147217,6.970418858337402
1758278448636946400,204.99894653320317,-2.520944710540771,8.335861992645263,5.6586956237792965
1758278448647030500,205.0090305175781,-0.9470563941955564,7.605929761505126,4.181323561859131
1758278448657114600,205.0191145019531,1.5634136840820312,6.681917558288574,3.755903854370117
1758278448667198500,205.0291984863281,4.359841223144531,5.633706143951415,4.602553416442871
1758278448677282600,205.0392824707031,6.357652870941162,4.444386469268799,5.021837982177734
1758278448687366400,205.0493664550781,6.6531871383666985,3.6174890708923337,5.010615161895752
1758278448697450800,205.05945068359372,5.496638098907471,3.988440690612793,5.6298155662536615
1758278448707535600,205.06953564453124,4.260481854248047,5.5641246582031245,6.592134996032715
1758278448717619500,205.07961938476564,3.576638005065918,7.764395983886718,7.2517375534057615
1758278448727703600,205.08970361328124,3.2276831130981445,10.07450131072998,7.602338459014892
1758278448737787400,205.09978735351564,2.9988872169494627,12.035352470397948,7.841309712219238
1758278448747871700,205.10987182617188,2.84086990737915,13.15254682006836,7.8733321594238275
1758278448757955600,205.11995556640625,2.816778253173828,13.283778998565673,7.732523174285888
1758278448768039400,205.1300393066406,2.829796724700928,12.935123381805418,7.565527608489989
1758278448778124500,205.14012451171877,2.9505542709350583,12.74942311553955,7.499836700439452
1758278448788208400,205.1502084960937,3.0437784980773923,12.850877410888671,7.565527608489989
1758278448798292700,205.16029272460935,2.9204771125793454,12.90265202178955,7.556250077056884
1758278448808376600,205.1703764648437,2.589628370666504,12.451195371246335,7.258770520782471
1758278448818460400,205.18046044921877,2.5378537597656248,11.187206532287597,6.451176373291015
1758278448828544500,205.19054443359371,2.7166706962585447,9.706841718292235,5.168333196258545
1758278448838628600,205.20062866210935,2.823511945343017,8.628253870391845,3.70263286743164
1758278448848713700,205.21071362304687,2.7442040153503418,8.064269741821288,2.3487118286132813
1758278448858797600,205.22079760742187,2.486528061676025,7.98032304611206,1.2018892333984377
1758278448868881400,205.23088134765624,2.075473564147949,8.298901504516602,0.4110544975280761
1758278448878965500,205.24096557617187,1.6916531105041503,8.914660243988036,0.0538695373535156
1758278448889049600,205.25104956054687,1.434575707244873,9.70369932861328,0.3003226707458496
1758278448899133400,205.26113354492188,1.1596914291381837,10.45817212677002,0.9998784683227538
1758278448909217500,205.27121752929688,0.8758288948059082,10.87251865158081,1.906981622314453
1758278448919302400,205.2813024902344,0.4867711250305175,10.87910270614624,2.755277198028564
1758278448929386500,205.29138647460937,0.0612017799377441,10.634894136810304,3.402010921478271
1758278448939470600,205.301470703125,-0.2893991256713867,10.31721350402832,3.735852415466309
1758278448949554400,205.31155444335937,-0.6488286499023437,10.04217958831787,3.756053491973877
1758278448959638500,205.3216384277344,-0.9935936889648436,9.83882208480835,3.5582325798034664
1758278448969722600,205.33172265625,-1.269824705505371,9.637409870147703,3.1962592163085937
1758278448979806500,205.3418063964844,-1.3863923988342284,9.392453112792968,2.7807155906677243
1758278448989891600,205.3518916015625,-1.4885948822021484,9.038111267089842,2.4115596221923825
1758278448999975400,205.3619753417969,-1.4009072463989256,8.615385036468505,2.1534347557067868
1758278449010059500,205.3720595703125,-1.1978490180969237,8.15899034500122,2.086397109222412
1758278449020143600,205.3821435546875,-0.9434650917053222,7.731774986267089,2.2477064460754392
1758278449030227500,205.3922275390625,-0.9121908325195311,7.409006674957275,2.5178023208618163
1758278449040311600,205.4023115234375,-1.0664672019958497,7.155520574188232,2.6581623931884764
1758278449050395400,205.4123955078125,-1.1127052215576172,7.020846730804443,2.8247090461730955
1758278449060480500,205.42248046875,-1.1285668075561524,7.00318949356079,3.054253130340576
1758278449070564600,205.43256469726563,-1.039831708526611,7.123797402191162,3.3029508277893065
1758278449080648400,205.4426484375,-0.8283937744140625,7.389853061676025,3.4873043556213377
1758278449090732500,205.45273266601563,-0.586729044342041,7.71187318496704,3.6138977684020994
1758278449100816400,205.46281640625,-0.3962403747558593,8.290821073913573,3.957615344238281
1758278449110900700,205.47290063476564,-0.2910451393127441,8.983493541717529,4.214842385101318
1758278449120984600,205.48298461914064,-0.1924339584350586,9.726893157196043,4.542997650146484
1758278449131069400,205.4930693359375,-0.1279401512145996,10.660332529449462,4.882375735473633
1758278449141153500,205.50315356445316,0.07018003616333,11.488427028656004,4.86471849822998
1758278449151237400,205.5132373046875,0.5382464607238769,11.79817686843872,4.862473934173583
1758278449161321700,205.5233217773437,1.0922048698425293,11.55516539993286,4.884321024322509
1758278449171405600,205.53340551757813,1.6856676063537597,11.21728369064331,4.7487493553161615
1758278449181489400,205.54348950195316,2.2267571815490723,10.931026954650878,4.420594090270996
1758278449191573500,205.55357348632813,2.4384943908691405,10.821641866302487,4.04171167755127
1758278449201658400,205.5636584472656,2.5520693321228025,10.888380237579344,3.6004303840637206
1758278449211742700,205.5737426757813,2.734028658294678,10.844536419677734,2.994847001647949
1758278449221826600,205.58382666015623,2.909852842712402,10.638934352111816,2.217330012512207
1758278449231910400,205.59391040039063,3.0259716232299803,10.34250225906372,1.375169578552246
1758278449241994500,205.60399438476563,3.225438549041748,10.152612139892575,0.3699041564941406
1758278449252078600,205.61407861328124,3.3247979179382323,10.122684619140625,-0.7273883918762206
1758278449262162400,205.62416235351563,3.283348301696777,10.204536388397216,-1.7449240974426268
1758278449272247600,205.63424755859376,3.0047230834960934,10.364050074005126,-2.5757120735168457
1758278449282331400,205.6443312988281,2.6014497413635254,10.56022497253418,-3.107973030090332
1758278449292415700,205.6544157714844,2.1625626495361328,10.764330664062498,-3.42221199798584
1758278449302499600,205.6644995117188,1.658732837677002,11.051036312866213,-3.421164534759521
1758278449312583400,205.67458349609376,1.290923607635498,11.378443389892578,-3.30025735092163
1758278449322667500,205.6846674804688,0.9919476753234864,11.586888571929933,-3.131017221069336
1758278449332751600,205.6947517089844,0.9331400970458984,11.565789669799804,-2.85388837890625
1758278449342835500,205.7048354492188,0.9175777862548828,11.349563332366944,-2.601749016571045
1758278449352920600,205.7149206542969,0.900818374633789,10.985644680023192,-2.3388357467651364
1758278449363005000,205.7250048828125,0.9558850128173828,10.48226378097534,-2.0241478660583496
1758278449373089000,205.7350891113281,1.0420762725830075,9.948207173156735,-1.5861585998535157
1758278449383172900,205.7451728515625,1.1243769546508788,9.520842176818848,-1.132158110046387
1758278449393257200,205.75525732421875,1.0845733520507812,9.171438372039797,-0.6718728408813476
1758278449403341000,205.76534106445317,0.988206735229492,8.891616053009033,-0.1511339797973632
1758278449413425000,205.7754248046875,0.877175633239746,8.604461491394042,0.3384802597045898
1758278449423510000,205.78551000976563,0.8062474090576172,8.424896366882324,0.7015010864257812
1758278449433594000,205.79559399414063,0.7700351089477538,8.423399990844725,0.8508394149780273
1758278449443678200,205.80567822265624,0.7972691528320313,8.56151549911499,0.7767688011169434
1758278449453762000,205.81576196289063,0.7719803977966309,8.824728044128417,0.5603928260803223
1758278449463846000,205.82584594726563,0.6741174049377441,9.17951880264282,0.2341828498840331
1758278449473930200,205.83593017578124,0.4780921440124511,9.645939213562013,-0.1149216796875
1758278449484014000,205.84601416015624,0.1777694732666015,10.20782841567993,-0.4736030158996582
1758278449494099200,205.85609912109376,-0.2272995201110839,10.797849487304688,-0.8020575561523438
1758278449504183000,205.8661831054688,-0.6685808135986328,11.29404778137207,-1.0353425804138183
1758278449514267000,205.87626684570316,-1.071405242919922,11.629385651397705,-1.1783961296081542
1758278449524351200,205.88635131835937,-1.3208511283874511,11.68415301437378,-1.221342121887207
1758278449534435000,205.8964350585937,-1.3949217422485352,11.488576666259766,-1.2542623947143554
1758278449544519000,205.90651879882813,-1.3093290328979492,11.148450392913816,-1.248725803375244
1758278449554603000,205.9166030273437,-1.2056301734924315,10.638784714508056,-1.3271359077453613
1758278449564688000,205.9266879882813,-1.1052233413696289,10.046519078826904,-1.3688847991943358
1758278449574772200,205.93677221679687,-1.0492588775634766,9.415048390960694,-1.408987677001953
1758278449584856000,205.9468559570313,-1.0567407577514647,8.754996920776367,-1.426944189453125
1758278449594940000,205.95693994140623,-1.120187101745605,8.128763549041748,-1.3385083656311034
1758278449605024000,205.9670239257813,-1.138891802215576,7.594407666015624,-1.1522095489501951
1758278449615108000,205.97710815429687,-1.164479832458496,7.175123100280762,-0.9311948081970214
1758278449625192000,205.98719189453124,-1.023371572113037,6.891559841156005,-0.651821401977539
1758278449635277000,205.99727709960936,-0.8161234909057616,6.770054106903076,-0.2657563842773437
1758278449645361000,206.00736083984376,-0.8237550086975097,6.827365309143066,0.2186205390930175
1758278449655445000,206.01744506835936,-0.8304887008666991,7.085490175628662,0.6298246742248534
1758278449665529000,206.0275290527344,-0.7164648468017578,7.457638896179199,1.0746972702026367
1758278449675613000,206.03761303710937,-0.6350619903564453,7.983465435791015,1.5456068092346191
1758278449685697000,206.0476970214844,-0.831236888885498,8.56106658630371,1.948580876159668
1758278449695781000,206.05778100585937,-0.8684966522216796,9.101856886291504,2.3198317710876464
1758278449705866000,206.0678659667969,-0.7591115638732909,9.604938510131836,2.8541876541137694
1758278449715950000,206.0779501953125,-0.6787561706542968,9.890297420501708,3.470395306396484
1758278449726034000,206.0880339355469,-0.2009633018493652,10.162787496948242,4.042609503173828
1758278449736118000,206.09811791992183,0.3796306007385254,10.512191301727292,4.389918381500244
1758278449746202000,206.1082021484375,0.630123949432373,10.945092889404297,4.323329647827149
1758278449756286000,206.11828588867183,0.6431424209594726,11.361384703063964,4.204966303253173
1758278449766370000,206.1283701171875,0.7064391273498535,11.598111392211914,4.3555017326354974
1758278449776455000,206.1384548339844,0.3447650390625,11.2991354598999,4.597914650726318
1758278449786539000,206.1485390625,0.1892915687561035,10.427496417999269,4.809502222442626
1758278449796623000,206.158623046875,0.8373720306396484,9.606883798980713,4.610633847045898
1758278449806707000,206.16870703125,1.847874768829345,9.006537732696533,4.210502894592285
1758278449816791000,206.178791015625,2.637362766265869,8.507047411346434,3.927687823486328
1758278449826875000,206.188875,3.0500632774353025,8.378957622528075,3.760841895294189
1758278449836959200,206.19895922851563,3.1962592163085937,8.678981018066406,3.833266495513916
1758278449847044000,206.20904418945312,3.003226707458496,9.261669847106932,4.0222587890625
1758278449857128000,206.2191279296875,2.539050860595703,10.218303047943117,4.191349281311035
1758278449867212000,206.2292119140625,1.9928736068725583,11.340884351348876,4.582801252746582
1758278449877295900,206.2392958984375,1.5070003074645997,12.341660645294189,5.188983185577392
1758278449887380200,206.24938012695316,1.2189479202270508,13.044358832550047,5.680093801116943
1758278449897464000,206.25946411132813,1.0869675537109371,13.374010473632811,5.909637885284424
1758278449907548000,206.2695478515625,1.274313833618164,13.315053257751464,5.87372486038208
1758278449917632000,206.27963208007813,1.8381483245849608,12.732065153503417,5.408651187896728
1758278449927716900,206.289716796875,2.663549346923828,11.816133380889893,4.42433503036499
1758278449937801200,206.2998012695313,3.413682654571533,10.83989765396118,3.274370045471191
1758278449947885000,206.3098850097656,3.819799111175537,10.114604188537598,2.186654303741455
1758278449957969000,206.31996899414065,3.818452372741699,9.83807389678955,1.2611457244873046
1758278449968053000,206.3300529785156,3.4316391670227047,10.034996983337402,0.7248445526123046
1758278449978137000,206.3401372070313,2.8384757057189938,10.519673181915282,0.734870272064209
1758278449988221000,206.35022094726563,2.2972364929199216,11.164162341308591,1.0787374855041505
1758278449998306000,206.36030615234372,1.8191443489074703,11.79114390106201,1.4413093994140624
1758278450008390000,206.3703898925781,1.4366706336975097,12.336722604370117,1.9467852249145507
1758278450018474000,206.38047387695312,1.13006318359375,12.721590521240234,2.597708801269531
1758278450028558000,206.3905581054688,0.89378540725708,12.746580001068114,3.1699229980468746
1758278450038642000,206.40064184570312,0.6913257293701172,12.247239317321776,3.540126429748535
1758278450048726000,206.4107260742188,0.6769605194091797,11.328614067840576,3.7089176467895504
1758278450058810000,206.42081005859376,0.7906850982666015,10.248978756713866,3.6022260353088376
1758278450068895000,206.43089501953125,0.9151835845947264,9.2190231300354,3.386897523498535
1758278450078979000,206.44097900390625,0.9352350234985352,8.188768228149414,3.042880672454834
1758278450089063000,206.45106298828125,0.9317933586120604,7.238569444274902,2.726546778106689
1758278450099147000,206.46114697265625,0.654365241241455,6.452523111724853,2.4993968955993653
1758278450109231000,206.47123120117183,0.052971711730957,5.853224508666992,2.4070704940795897
1758278450119315000,206.48131494140625,-0.5110124168395995,5.4239142234802245,2.366817978668213
1758278450129399000,206.49139892578123,-0.9156324974060058,5.014505739593505,2.2595278167724606
1758278450139484000,206.50148388671877,-0.9952397026062012,4.661809907531738,2.1471499763488766
1758278450149568000,206.5115681152344,-0.8444049980163574,4.477306742095947,2.0783166786193847
1758278450159652000,206.52165209960935,-0.6453869850158691,4.491522314453125,2.0774188529968263
1758278450169736000,206.53173583984372,-0.4335001380920409,4.75638087310791,2.089539498901367
1758278450179820000,206.54182006835936,-0.2703951499938964,5.272181693267822,2.0860978340148923
1758278450189904000,206.55190380859372,-0.0549170005798339,6.0048074012756345,2.0272902557373045
1758278450199988200,206.56198828125,0.1381155082702636,6.841730519104003,1.8854338073730468
1758278450210072000,206.5720720214844,0.3420715621948242,7.772476414489746,1.7399860565185543
1758278450220157000,206.58215698242188,0.6784568954467773,8.710105639648438,1.6494553062438964
1758278450230241000,206.59224096679688,0.9193734375,9.508571893310547,1.5797241828918456
1758278450240324900,206.60232495117188,1.1161468864440918,10.133308889007568,1.6271593032836913
1758278450250409200,206.6124091796875,1.3301286598205566,10.67484737701416,1.7814356727600096
1758278450260493000,206.6224931640625,1.61533793258667,11.206210507965087,1.9621978981018064
1758278450270577000,206.63257690429688,1.8689736709594729,11.646145063018798,1.9623475357055664
1758278450280661000,206.64266088867188,2.104652896881104,11.883619940185548,1.7679682884216308
1758278450290745900,206.65274584960935,2.383278115081787,12.048819854736328,1.552041226196289
1758278450300830200,206.6628303222656,2.485480598449707,11.998990532684326,1.3178583763122558
1758278450310914000,206.6729140625,2.4377462028503416,11.83738192062378,1.301248602294922
1758278450320998000,206.6829978027344,2.3786393493652342,11.581800893402098,1.383399646759033
1758278450331082000,206.69308203125,2.259827091979981,11.141417425537108,1.445349614715576
1758278450341166000,206.703166015625,2.1245546981811523,10.50815108642578,1.297358024597168
1758278450351250000,206.71325,2.1314380279541014,9.85109236831665,0.9886556480407714
1758278450361335000,206.7233349609375,2.1357775184631347,9.364021968078612,0.4816834465026855
1758278450371418000,206.73341821289063,2.048838070678711,9.137171360778808,-0.1797147621154785
1758278450381502500,206.74350244140624,1.8326117332458496,9.146149617004394,-0.7285854927062988
1758278450391586300,206.75358642578124,1.541716231536865,9.341127414703369,-1.1182418128967284
1758278450401670100,206.76367016601563,1.286434479522705,9.606135610961914,-1.5083470458984374
1758278450411754500,206.77375439453124,1.122431665802002,9.89523546142578,-1.7712603157043456
1758278450421838300,206.78383837890624,1.0705074172973632,10.08048681488037,-1.9488801513671876
1758278450431923500,206.79392333984376,1.356015965270996,10.005817650604248,-2.0820576187133786
1758278450442007300,206.8040073242188,1.979705497741699,9.809792389678954,-2.1446061370849607
1758278450452091100,206.81409106445312,2.690783390808105,9.471611405181884,-2.186504666137695
1758278450462175500,206.82417553710937,3.248333102416992,8.921842848968506,-2.2391771026611327
1758278450472259300,206.83425927734376,3.610156828308105,8.310124324798583,-2.231994497680664
1758278450482343200,206.8443432617188,3.760093707275391,7.806294512939453,-2.204012265777588
1758278450492427300,206.85442724609376,3.699490477752685,7.480683087158202,-2.08145906829834
1758278450502512000,206.86451220703125,3.3928830276489257,7.422174784088134,-1.813757395172119
1758278450512596500,206.8745964355469,2.970007159423828,7.64827720336914,-1.458816999053955
1758278450522680300,206.88468041992184,2.480991470336914,8.145223685455322,-1.0696095916748043
1758278450532764200,206.89476416015623,1.9825486122131344,9.010428310394287,-0.7477391059875488
1758278450542848300,206.9048481445313,1.5159785636901857,10.191966829681396,-0.5518634826660156
1758278450552932400,206.91493237304687,1.1358990501403807,11.579705966949462,-0.3631704643249511
1758278450563016200,206.9250161132813,0.8363245674133301,13.032836737060546,-0.196623811340332
1758278450573100300,206.93510034179687,0.6479308242797851,14.384812487030027,-0.0058358665466308
1758278450583185200,206.94518505859372,0.5087678527832031,15.29041926498413,0.2410661796569824
1758278450593269200,206.9552692871094,0.4453215087890624,15.465195986175535,0.5035305366516113
1758278450603353300,206.9653532714844,0.5301660301208496,15.00281579055786,0.8179191421508789
1758278450613437200,206.97543725585936,0.6408978569030761,14.20494808731079,1.0603320602416992
1758278450623521300,206.9855212402344,1.0531494552612304,13.3562035987854,1.1956044540405273
1758278450633605000,206.99560522460936,1.3678373359680176,12.548010900878904,1.1475707832336426
1758278450643689200,207.0056892089844,1.5081974082946776,11.755081238555908,0.9596259529113768
1758278450653774300,207.0157744140625,1.619677423095703,10.953771870422363,0.7719803977966309
1758278450663858200,207.02585815429688,1.4516343940734862,10.033949520111085,0.6771101570129394
1758278450673942300,207.0359423828125,1.1068693550109865,9.069086251068114,0.6670844375610351
1758278450684026400,207.0460263671875,0.7351695472717285,8.160486721038819,0.6341641647338867
1758278450694110200,207.0561101074219,0.4216787673950195,7.368754159545898,0.6775590698242188
1758278450704194300,207.0661943359375,0.1354220314025878,6.748955204772948,0.849791951751709
1758278450714278100,207.0762780761719,-0.2427121932983398,6.2401873519897455,1.025316860961914
1758278450724363300,207.08636328125,-0.3027168724060058,5.982511398315429,1.304390991973877
1758278450734447400,207.096447265625,-0.1584662223815917,5.918915416717529,1.6054618507385252
1758278450744531200,207.10653125,-0.240018716430664,5.946299098205566,1.8628385292053224
1758278450754615300,207.116615234375,-0.5442319648742675,5.988197627258301,2.050633721923828
1758278450764699100,207.12669921875,-0.7161655715942382,6.079326927947998,2.21538472366333
1758278450774783500,207.13678344726563,-0.6838438491821288,6.117185241699218,2.2993314193725585
1758278450784867300,207.14686743164063,-0.3589806114196777,6.30168840713501,2.4109610717773435
1758278450794951200,207.156951171875,-0.2424129180908203,6.668749449157715,2.563441790008545
1758278450805036300,207.16703637695312,-0.3823240776062011,7.184250994110107,2.8663083000183103
1758278450815120100,207.1771201171875,-0.2953846298217773,7.948001323699951,3.437325395965576
1758278450825204500,207.18720458984376,-0.1463455764770507,8.959102612304687,4.31629668045044
1758278450835288300,207.19728833007807,-0.1047463226318359,10.211718993377684,5.3405660781860345
1758278450845372200,207.2073720703125,0.0456394691467285,11.496657096862792,6.226271054840088
1758278450855456300,207.21745629882813,0.232387198638916,12.263549816131592,6.632686786651611
1758278450865540400,207.22754028320315,0.3381809844970703,12.070367669677731,6.306327172851562
1758278450875625500,207.23762548828125,0.2483984222412109,10.897807406616211,5.580435157012939
1758278450885709300,207.2477092285156,0.6881833396911621,9.673173257446289,4.819527941894531
1758278450895793200,207.25779321289065,1.2167033561706542,9.26331586074829,4.056675437927246
1758278450905877200,207.2678771972656,1.905185971069336,9.266308612823488,3.4626141510009765
1758278450915961300,207.27796142578129,2.518251233673096,9.541791441345216,3.149721921539306
1758278450926045200,207.2880451660156,2.310554239654541,9.96601404800415,3.1495722839355467
1758278450936129300,207.2981293945313,1.5295955856323242,10.351330877685546,3.018938655853271
1758278450946214100,207.3082141113281,1.0085574493408205,10.85441250152588,2.742258726501465
1758278450956298200,207.31829833984372,1.1608885299682616,11.324124939727785,2.422782442474365
1758278450966382300,207.32838232421875,1.6723498596191406,11.57551611404419,2.3367408203125
1758278450976466200,207.33846606445312,2.0675427711486813,11.717073287200927,2.638559867095947
1758278450986550300,207.34855029296875,2.086546746826172,11.978939093780516,3.267486715698242
1758278450996634400,207.35863427734373,1.9693805030822755,12.413486695098875,4.021211325836181
1758278451006718200,207.36871826171875,1.9798551353454588,12.789974906158449,4.483142608642578
1758278451016803300,207.37880322265624,2.3032219970703123,12.65350541152954,4.328267688751221
1758278451026887200,207.38888720703125,2.857928594207764,12.026523851776124,3.635295945739746
1758278451036971300,207.39897119140625,3.3797149185180664,11.283573149108886,2.863465185546875
1758278451047055400,207.40905541992188,3.49852717590332,10.819546939849852,2.4129063606262204
1758278451057139200,207.41913916015625,3.30070626373291,10.70642091140747,2.4157494750976563
1758278451067223300,207.4292233886719,2.840420994567871,10.849923373413086,2.7651532798767087
1758278451077307100,207.43930712890625,2.2954408416748047,11.086201149749757,3.254767519378662
1758278451087391500,207.4493916015625,1.767818650817871,11.344176378631593,3.67719447479248
1758278451097476400,207.45947631835935,1.3307272102355956,11.543493666839598,3.991732717895508
1758278451107560200,207.4695603027344,0.9513958847045898,11.608735662078857,4.299836544036865
1758278451117644300,207.47964428710935,0.7143699203491211,11.367220569610597,4.630086735534667
1758278451127728000,207.48972802734372,0.5717652839660644,10.82657990722656,4.945971717071533
1758278451137812500,207.4998125,0.4396352798461914,9.956437241363524,5.090072729492187
1758278451147896300,207.5098962402344,0.4691138877868652,9.049783000183105,5.060743759155273
1758278451157980200,207.51998022460936,0.4807856208801269,8.195651557922362,4.770147532653809
1758278451168065300,207.53006518554687,0.4830301849365234,7.434893980407715,4.272303224945068
1758278451178149000,207.54014916992188,0.4710591766357421,6.875398979949951,3.756053491973877
1758278451188233500,207.5502333984375,0.2102408332824707,6.491728163909912,3.1865327720642087
1758278451198317300,207.5603173828125,-0.3054103492736816,6.275202551269531,2.558653386688232
1758278451208401200,207.57040112304688,-0.7679401824951172,6.292560513305664,1.951723265838623
1758278451218485200,207.5804853515625,-1.1143512351989746,6.392817707824706,1.2114660400390624
1758278451228569300,207.5905693359375,-1.2734160079956054,6.488136861419678,0.2675520355224609
1758278451238653200,207.60065307617188,-1.1059715293884276,6.68461103515625,-0.7435492530822754
1758278451248738300,207.61073828125,-0.7594108390808105,7.038803243255615,-1.7657237243652342
1758278451258822100,207.620822265625,-0.3615244506835937,7.439083833312988,-2.712031930541992
1758278451268906200,207.63090625,-0.0074818801879882,8.044816853332518,-3.389291725158692
1758278451278990300,207.640990234375,0.3965396499633788,8.831162461090088,-3.697694826507568
1758278451289074200,207.65107421875,0.7191583236694336,9.565134907531736,-3.556436928558349
1758278451299158300,207.661158203125,1.0019733947753906,10.108768321990969,-3.0871734031677245
1758278451309242400,207.67124243164065,1.101183126068115,10.486303996276854,-2.440439679718017
1758278451319327200,207.6813271484375,0.9983820922851562,10.884938572692873,-1.579873820495605
1758278451329411300,207.6914113769531,0.8339303657531738,11.331606819915772,-0.5448305152893066
1758278451339495200,207.7014951171875,0.7058405769348144,11.781118181610108,0.6453869850158691
1758278451349579300,207.71157934570311,0.5989993278503417,12.23212591934204,1.977760208892822
1758278451359663400,207.7216633300781,0.5466261665344238,12.681637281036377,3.418770333099365
1758278451369748500,207.73174853515624,0.6289268486022949,13.072939614868163,5.137358212280273
1758278451379832300,207.74183227539064,0.8827122245788573,13.13174719314575,6.709001964569091
1758278451389917400,207.7519174804688,1.3078326568603516,12.817208950042724,7.704540942382812
1758278451400001300,207.76200122070316,2.0120272201538083,12.224943314361573,8.053645471954345
1758278451410085000,207.77208520507813,2.7653029174804686,11.381136866760253,7.739406504058837
1758278451420169500,207.7821694335937,3.388693174743652,10.314520027160643,6.906972514343261
1758278451430253300,207.79225341796877,3.7988498466491696,9.151237295532226,5.631910492706298
1758278451440337200,207.80233715820316,3.819948748779297,8.085817556762695,4.121767795562744
1758278451450421200,207.81242114257813,3.47922392501831,7.397783854675293,2.650979788208008
1758278451460505300,207.8225053710937,3.0098107620239256,7.096862633514404,1.303642803955078
1758278451470590500,207.83259057617187,2.4628853202819823,6.993762324523925,0.0315735343933105
1758278451480674300,207.84267431640623,2.101809782409668,7.100902848815918,-0.9534908111572266
1758278451490758100,207.85275805664065,1.8818425048828125,7.502979090118408,-1.5761328804016113
1758278451500842200,207.86284228515623,1.7411831573486327,8.198045759582518,-1.952920366668701
1758278451510926300,207.8729262695313,1.6958429634094236,8.938452622985839,-2.331802779388428
1758278451521010200,207.88301025390624,1.82602767868042,9.387365434265137,-2.874239093017578
1758278451531094300,207.89309423828124,2.31130242767334,9.43016178894043,-3.4557308212280278
1758278451541179100,207.9031791992188,3.081038261413574,9.131784407043456,-4.004601551818848
1758278451551263200,207.91326318359376,3.7961563697814937,8.64501328201294,-4.444835382080078
1758278451561347300,207.92334741210936,4.252850336456299,8.062324452972412,-4.597914650726318
1758278451571431200,207.93343115234376,4.454412188720703,7.519888139343261,-4.401590114593506
1758278451581515300,207.94351538085937,4.451269799041747,7.246500237274169,-3.994426194763183
1758278451591599000,207.95359912109376,4.230105420684814,7.216273441314697,-3.3898902755737303
1758278451601683500,207.96368334960937,3.907935659790039,7.48861388015747,-2.762459803009033
1758278451611767300,207.9737673339844,3.5353380264282226,8.06965669555664,-2.168099240875244
1758278451621852200,207.98385205078125,3.0322564025878904,8.974964198303223,-1.748665037536621
1758278451631936300,207.9939362792969,2.427870121002197,10.121038605499267,-1.4600140998840332
1758278451642020400,208.00402026367183,1.7868226264953613,11.276839456939696,-1.26398883895874
1758278451652104400,208.0141044921875,1.2075754623413084,12.306944721221925,-1.1608885299682616
1758278451662188300,208.02418823242184,0.6823474731445313,13.121721473693848,-1.2174515441894531
1758278451672272100,208.0342722167969,0.2434603813171386,13.584251306915284,-1.260247898864746
1758278451682356500,208.0443564453125,-0.0769137283325195,13.607445135498049,-1.1954548164367675
1758278451692441300,208.05444140625,-0.2341828498840331,13.263727559661865,-0.9903016616821289
1758278451702525400,208.064525390625,-0.2796726814270019,12.675202864074706,-0.706738402557373
1758278451712609300,208.074609375,-0.0457891067504882,12.030414429473876,-0.430956298828125
1758278451722693000,208.0846931152344,0.412401235961914,11.462390085601806,-0.0951695159912109
1758278451732777500,208.09477758789063,0.7478887435913085,10.87880343093872,0.2084451820373535
1758278451742861300,208.104861328125,0.9783306533813476,10.313322926330564,0.5289689292907714
1758278451752945200,208.11494506835936,1.1565490394592284,9.692775783538815,0.9644143562316894
1758278451763030300,208.1250302734375,1.3379098152160644,8.958653699493407,1.4573206230163571
1758278451773114000,208.13511401367188,1.3260884445190428,8.19759684677124,1.8146552207946776
1758278451783198500,208.14519848632813,1.34060329208374,7.596053679656982,2.1710919929504398
1758278451793282300,208.1552822265625,0.9695020347595216,7.0004960166931145,2.4660277099609376
1758278451803366100,208.1653662109375,0.2911947769165039,6.351667366790771,2.5891794578552245
1758278451813450200,208.1754501953125,-0.0900818374633789,5.994183131408691,2.8425159210205075
1758278451823534300,208.18553442382813,-0.3073556381225585,5.84215132598877,3.224690361022949
1758278451833618200,208.1956181640625,-0.5463268913269043,5.922955632019042,3.6343981201171873
1758278451843703300,208.20570336914065,-0.7767688011169434,6.139032331848144,4.004302276611328
1758278451853787100,208.215787109375,-0.7273883918762206,6.442796667480469,4.313004653167725
1758278451863871200,208.22587133789065,-0.6669347999572753,6.8402341430664055,4.59656791229248
1758278451873955300,208.2359553222656,-0.7018003616333007,7.2246531471252435,4.806509470367431
1758278451884039200,208.2460390625,-0.4638765716552734,7.639897497558593,5.014356101989746
1758278451894123300,208.25612329101563,-0.1022024833679199,8.041375188446045,5.24180525970459
1758278451904207000,208.26620703125,0.1876455551147461,8.525003923797607,5.506663818359375
1758278451914292200,208.2762922363281,0.1502361541748046,9.101557611083985,5.785737949371337
1758278451924376300,208.28637622070312,0.4029740669250488,10.128071572875976,6.15504355545044
1758278451934460200,208.2964602050781,0.9599252281188964,11.62504616088867,6.915651495361328
1758278451944544300,208.30654418945312,1.1379939765930176,12.939462872314452,7.89772308883667
1758278451954628400,208.3166284179688,1.51942022857666,13.280486971282958,8.629301333618164
1758278451964712400,208.32671240234376,1.3211504035949706,12.261903802490234,8.896853369140624
1758278451974796300,208.3367963867188,0.0523731613159179,10.395025057983398,8.58096838760376
1758278451984880000,208.34688012695312,-0.5695207199096679,8.780435313415527,7.864802816009521
1758278451994965200,208.35696533203125,-0.2888005752563476,8.399757249450683,6.792350109863281
1758278452005049300,208.36704931640625,0.2744353652954101,9.07192936553955,5.2265422241210935
1758278452015133400,208.37713354492183,0.7203554244995117,9.840767373657226,3.801543323516845
1758278452025217300,208.38721728515625,1.0558429321289062,10.216058483886718,2.782810517120361
1758278452035301000,208.39730102539065,1.4015057968139648,10.160842208099364,2.075623201751709
1758278452045385500,208.4073854980469,1.721879906463623,10.031555318450929,1.67264913482666
1758278452055469300,208.41746923828129,1.7657237243652342,10.034248795318604,1.4671967048645018
1758278452065554400,208.42755444335936,1.5499462997436522,10.272920773315429,1.361103643798828
1758278452075638300,208.43763818359372,1.2198457458496093,10.800991876983645,1.4220061485290527
1758278452085722000,208.44772216796875,1.0435726486206054,11.360337239837646,1.657386099243164
1758278452095806500,208.4578063964844,1.146074407196045,11.6316302154541,1.829020430755615
1758278452105890300,208.4678903808594,1.4939818359375,11.400140842437745,1.7031752059936522
1758278452115974100,208.47797412109372,2.050932997131348,11.053580152130126,1.336862351989746
1758278452126058200,208.4880583496094,2.5267805770874023,10.845733520507812,0.974888988494873
1758278452136142300,208.4981423339844,2.6978163581848142,10.846631346130373,0.838868406677246
1758278452146227500,208.5082275390625,2.457348728942871,11.047295372772217,1.0874164665222168
1758278452156311300,208.51831127929688,2.0374656127929685,11.426776335906982,1.7616835090637206
1758278452166395100,208.52839501953125,1.5084966835021971,11.91983224029541,2.6499323249816893
1758278452176479200,208.53847924804688,0.9687538467407226,12.382810986328124,3.6043209617614735
1758278452186563300,208.54856323242188,0.6075286712646484,12.606519203948974,4.4193969894409175
1758278452196647200,208.55864721679689,0.4926069915771484,12.48231999282837,4.865765961456298
1758278452206731300,208.5687312011719,0.5467758041381836,12.057498835754394,5.061791222381592
1758278452216816000,208.57881616210935,0.7537246101379395,11.27399634246826,5.067627088928222
1758278452226900200,208.5889001464844,0.9519944351196288,10.409090992736816,4.886864863586426
1758278452236984300,208.598984375,1.0446201118469238,9.624541036224365,4.463689720153808
1758278452247068200,208.6090681152344,1.031003089904785,8.92543415145874,3.896563201904297
1758278452257152300,208.61915234375,1.143231292724609,8.37057791671753,3.3731308639526367
1758278452267236400,208.629236328125,1.096095447540283,7.864204265594482,2.836081504058838
1758278452277320400,208.63932055664063,0.8928875816345214,7.425317173767089,2.3130980789184568
1758278452287404300,208.649404296875,0.509516040802002,7.17617056350708,1.818396160888672
1758278452297489200,208.6594892578125,-0.2084451820373535,7.015310139465331,1.3512275619506835
1758278452307573200,208.6695732421875,-0.7589619262695312,6.938097135925292,0.9558850128173828
1758278452317657300,208.6796572265625,-1.0139444030761715,6.916100408172607,0.4472667976379394
1758278452327741400,208.6897414550781,-1.0506056159973145,7.002740580749511,-0.0368108505249023
1758278452337825300,208.6998251953125,-1.0663175643920897,7.136965511322021,-0.410455947113037
1758278452347909000,208.7099091796875,-0.9651625442504882,7.385663208770752,-0.5823895538330078
1758278452357993500,208.71999340820312,-0.7721300354003906,7.859864775085449,-0.4912602531433105
1758278452368077600,208.7300776367188,-0.5793968017578125,8.553734343719482,-0.1388636962890625
1758278452378161400,208.74016137695315,-0.412401235961914,9.37838717803955,0.4032733421325683
1758278452388245500,208.7502456054688,-0.1922843208312988,10.1383965675354,0.966658920288086
1758278452398329600,208.76032958984376,0.1553238327026367,10.685022734069824,1.5650596977233886
1758278452408413400,208.77041333007813,0.5370493598937988,10.975768598175048,2.1121347770690915
1758278452418497500,208.7804975585937,0.9733926124572754,11.033977626037595,2.5923218475341794
1758278452428581400,208.79058129882813,1.3648445838928225,11.014075824737548,3.002628157043457
1758278452438665700,208.8006657714844,1.5049053810119628,10.95481933364868,3.5022681159973144
1758278452448750600,208.8107504882813,1.5485995613098145,10.914117905426023,3.8212954872131344
1758278452458834400,208.82083447265623,1.64077632522583,10.844536419677734,4.078223252868652
1758278452468918500,208.8309184570313,1.7993921852111816,10.645518406677246,4.317044868469238
1758278452479002400,208.84100244140623,2.041056915283203,10.360608409118653,4.454112913513184
1758278452489086700,208.85108666992187,2.4105121589660645,10.0985929649353,4.434510387420654
1758278452499170600,208.86117065429687,2.647238848114013,9.82460651245117,4.187309066009521
1758278452509254400,208.8712543945313,2.8393735313415527,9.542240354156494,3.7879263015747062
1758278452519339500,208.88133959960936,3.038092269134521,9.23234087677002,3.144334967803955
1758278452529423400,208.89142333984373,3.123385703277588,8.93755479736328,2.3249194496154786
1758278452539507700,208.9015078125,3.0732571060180662,8.709806364440917,1.3002011390686037
1758278452549591600,208.9115915527344,3.001131781005859,8.540566234588622,0.1283890640258789
1758278452559675400,208.9216752929688,2.7961282638549805,8.539668408966063,-1.087865379333496
1758278452569759500,208.9317595214844,2.6569652923583984,8.818892177581787,-2.124105785369873
1758278452579843600,208.94184350585937,2.5522189697265625,9.375992976379392,-2.939630725860596
1758278452589927400,208.9519274902344,2.461837857055664,10.011952792358398,-3.582773146820068
1758278452600012500,208.9620124511719,2.41380418624878,10.289829822540282,-4.121169245147705
1758278452610096400,208.9720964355469,2.526331664276123,9.911994873046874,-4.481496595001221
1758278452620180500,208.9821804199219,2.794482250213623,9.102156161499025,-4.591031320953369
1758278452630264600,208.9922646484375,3.074753482055664,8.208071479034423,-4.534617944335937
1758278452640348400,209.00234838867183,3.1720179244995115,7.477241422271728,-4.186860153198242
1758278452650432500,209.0124326171875,3.129520845031738,6.897844620513916,-3.674949910736084
1758278452660516600,209.0225166015625,2.9932009880065915,6.477063678741454,-3.113659259033203
1758278452670601700,209.03260180664063,2.8612206214904785,6.273406900024414,-2.586785256195068
1758278452680685600,209.042685546875,2.7870003700256345,6.361842723846436,-2.0783166786193847
1758278452690769400,209.05276928710936,2.7615619773864744,6.837091753387451,-1.6093524284362792
1758278452700853500,209.062853515625,2.7023054862976075,7.710526446533203,-1.2346598686218262
1758278452710937600,209.0729375,2.496553781127929,8.940397911834717,-0.971596961212158
1758278452721021400,209.083021484375,2.2020669769287107,10.348188488006592,-0.81073653717041
1758278452731105500,209.09310546875,1.839943975830078,11.663203749847412,-0.678007982635498
1758278452741189400,209.103189453125,1.4266449142456057,12.780098824310302,-0.4586392555236816
1758278452751274500,209.1132744140625,1.0396820709228516,13.59771869125366,-0.0773626411437988
1758278452761358600,209.12335864257813,0.6919242797851562,14.03256556777954,0.3917512466430664
1758278452771442400,209.1334423828125,0.5811924530029297,14.126089070129394,0.975487538909912
1758278452781526500,209.14352661132813,0.5186439346313476,13.951461986541748,1.5141829124450683
1758278452791610400,209.1536103515625,0.3663128540039062,13.563601317596437,1.9780594841003416
1758278452801694700,209.16369482421877,0.3841197288513183,13.07518417892456,2.379836450195312
1758278452811778600,209.17377856445316,0.4583399803161621,12.47379064941406,2.677166368865967
1758278452821863400,209.18386352539065,0.4854243865966796,11.722310603332518,2.762459803009033
1758278452831947500,209.1939475097656,0.4857236618041992,10.935216807556152,2.861669534301757
1758278452842031400,209.20403125,0.5385457359313964,10.16997010192871,3.0430303100585934
1758278452852115700,209.21411572265623,0.6081272216796875,9.491812481689452,3.125630267333984
1758278452862199600,209.22419946289065,0.4566939666748046,8.845378033447265,3.0437784980773923
1758278452872283400,209.2342834472656,0.3899555953979492,8.290521798706054,2.9722517234802246
1758278452882367500,209.24436743164063,0.3585316986083984,7.88440534210205,2.928407905578613
1758278452892451600,209.25445166015623,0.1119289276123046,7.544877619171142,2.8208184684753417
1758278452902536700,209.26453662109373,-0.3378817092895507,7.340622290039062,2.6868928131103518
1758278452912620500,209.27462060546875,-0.8789712844848633,7.233930678558349,2.454355976867676
1758278452922704400,209.28470434570312,-0.7956231391906737,7.448211727142334,2.412756723022461
1758278452932788700,209.29478881835936,-0.6138134506225585,7.679252187347411,2.3211785095214843
1758278452942872600,209.30487255859376,-0.732924983215332,7.982567610168457,2.235735437774658
