time,seconds_elapsed,z,y,x
1758278415580969000,171.9429689941406,3.8317701194763183,7.561487393188476,4.180874649047851
1758278415591053000,171.9530529785156,4.279785105133056,7.263259648895263,3.538929328918457
1758278415601138000,171.96313793945313,4.567687854766845,6.963236253356933,2.5932196731567383
1758278415611222000,171.9732219238281,4.853046765136718,6.726659201812744,1.4450503395080565
1758278415621305900,171.98330590820314,5.03695138015747,6.635230625915527,0.2193687271118164
1758278415631390000,171.99338989257814,5.102343013000488,6.753294695281982,-0.8747814315795898
1758278415641475000,172.00347509765626,4.9437271530151365,7.017255428314209,-1.5128361740112304
1758278415651559000,172.01355883789063,4.735880521392822,7.352294023132324,-1.7217302688598632
1758278415661643000,172.02364306640624,4.516212519073486,7.892934685516357,-1.7413327949523925
1758278415671726800,172.03372680664063,4.381538675689697,8.627356044769286,-1.843834553527832
1758278415681812000,172.04381201171876,4.20706122970581,9.253439778900146,-1.9901801300048827
1758278415691896000,172.05389599609376,3.978265333557129,9.593266777038574,-2.079962692260742
1758278415701980000,172.06397998046876,3.800046947479248,9.74859060974121,-1.910423287200928
1758278415712064000,172.07406396484376,3.623624212646485,9.823409411621093,-1.4419079498291014
1758278415722148900,172.08414892578125,3.4434605377197265,9.749189160156249,-0.914884309387207
1758278415732233000,172.09423291015625,3.3041479286193844,9.388712172698972,-0.3808277015686035
1758278415742317000,172.1043171386719,3.168426622009277,8.761730612945556,0.1020528457641601
1758278415752401000,172.11440087890625,3.0783447845458984,8.112602687835693,0.5312134933471679
1758278415762486000,172.12448608398438,2.992303162384033,7.677306898498535,0.9202712631225586
1758278415772569900,172.13456982421874,2.8080992721557614,7.528118207550048,1.2562076835632323
1758278415782654000,172.14465405273438,2.643647545623779,7.758410479736328,1.511190160369873
1758278415792738000,172.15473803710938,2.523638187408447,8.365789513397216,1.6531962463378904
1758278415802822000,172.16482177734375,2.348861466217041,9.335441185760498,1.6763900749206542
1758278415812907000,172.17490698242187,2.0302830078125,10.554538743591309,1.65349552154541
1758278415822990800,172.18499096679687,1.53857384185791,11.876138059997558,1.6949451377868652
1758278415833075000,172.19507495117188,0.9427169036865234,13.142670738220216,1.8376994117736816
1758278415843159000,172.20515893554688,0.3423708374023437,14.137461528015136,2.006789904022217
1758278415853244000,172.21524389648437,-0.2382230651855468,14.781352136993409,2.360832474517822
1758278415863328000,172.22532788085937,-0.3911526962280273,15.163227301788329,2.860921346282959
1758278415873411800,172.23541186523437,-0.5346551582336425,15.243732332611083,3.2507273040771483
1758278415883496000,172.24549584960937,-0.5217863243103027,15.011794046783448,3.4522891563415525
1758278415893580800,172.2555808105469,-0.1358709442138671,14.585626151275632,3.5200749908447264
1758278415903665000,172.26566479492186,0.1722328819274902,13.909114544677731,3.2760160591125485
1758278415913749000,172.2757490234375,0.4863222122192382,13.192500060272216,2.9248166030883787
1758278415923832800,172.28583276367186,0.7603086647033691,12.494739913940428,2.6824036849975585
1758278415933918000,172.29591796875,0.8575731071472168,11.72724864425659,2.5781062751770016
1758278415944001800,172.30600170898438,1.0082581741333008,11.016170751190185,2.601599378967285
1758278415954086000,172.3160859375,0.9964368034362792,10.34205334625244,2.73268191986084
1758278415964170000,172.326169921875,0.8354267417907715,9.708188456726074,2.89219560546875
1758278415974254800,172.3362548828125,0.7215525253295898,9.238924931335449,3.1292215698242187
1758278415984339000,172.3463388671875,0.6878840644836426,8.89311242904663,3.2858921409606934
1758278415994423000,172.35642309570312,0.2766799293518066,8.631994810485839,3.24982947845459
1758278416004507000,172.3665068359375,-0.0317231719970703,8.386888415527343,3.0743045692443847
1758278416014592000,172.3765920410156,0.0576104774475097,8.201936337280273,2.9351415977478026
1758278416024675800,172.38667578125,0.2000654762268066,8.058284237670899,2.814234413909912
1758278416034760000,172.3967600097656,0.1628057128906249,7.931840462493896,2.75797067489624
1758278416044844000,172.40684399414062,0.2446574821472167,7.904456781005859,2.8363807792663573
1758278416054928000,172.41692797851562,0.3507505432128906,7.907449533081055,3.0588918960571285
1758278416065013000,172.42701293945314,0.2708440628051757,7.903259680175781,3.273921132659912
1758278416075096800,172.43709692382814,0.1277905136108398,7.913734312438964,3.440318148040771
1758278416085181000,172.44718090820314,-0.0028431144714355,7.967154936981201,3.611503566741943
1758278416095265000,172.45726513671875,-0.1761234596252441,8.043470114898682,3.7092169219970703
1758278416105350100,172.46735009765624,-0.4408323806762695,8.055740398406982,3.902249430847168
1758278416115434000,172.47743408203124,-0.6886322525024413,8.047809605407714,4.060266740417481
1758278416125517800,172.48751782226563,-0.7710825721740722,8.086715382385254,4.206013766479492
1758278416135602000,172.49760180664063,-0.6489782875061034,8.091952698516845,4.285172058868408
1758278416145686800,172.50768676757812,-0.4896142395019531,8.097788565063476,4.191050006103516
1758278416155771100,172.51777124023437,-0.2850596351623535,8.033743670654296,4.033331971740722
1758278416165855000,172.52785498046876,0.0345662864685058,7.92331111907959,3.916764278411865
1758278416175938800,172.53793872070312,0.2503437110900878,7.775469166564941,3.88189871673584
1758278416186024000,172.54802392578125,0.2196680023193359,7.537695014190674,4.090194261169433
1758278416196107800,172.55810766601562,0.4472667976379394,7.13112964477539,4.349815503692627
1758278416206192000,172.56819213867186,1.0568903953552244,6.828712047576904,4.387075267028808
1758278416216276000,172.57827587890625,1.87061968460083,6.785915692901611,4.326472037506103
1758278416226361000,172.58836108398438,2.654421453094482,7.034613390350342,4.185962327575683
1758278416236445000,172.59844482421877,3.167678433990478,7.626280475616455,4.132092790222168
1758278416246528800,172.60852880859375,3.4097920768737797,8.499565531158447,4.051288484191894
1758278416256613000,172.61861303710938,3.4515409683227536,9.508571893310547,3.8935704498291015
1758278416266698000,172.62869799804687,3.252672592926025,10.600477487945556,3.810371942138672
1758278416276782000,172.63878198242188,2.872293804168701,11.8361848197937,3.944297597503662
1758278416286866000,172.64886596679688,2.514360655975341,13.07593236694336,4.417302062988281
1758278416296949800,172.65894970703124,2.303521272277832,13.932308373260495,5.162946242523193
1758278416307034000,172.6690341796875,2.320879234313965,13.869610217285157,5.818358946990967
1758278416317119000,172.67911889648437,2.712031930541992,12.968342929840087,5.915024839019775
1758278416327203000,172.689203125,3.377919267272949,11.97804126815796,5.3576247650146485
1758278416337287200,172.699287109375,3.938611368560791,11.342081452178954,4.573523721313476
1758278416347371300,172.70937133789062,4.0800189041137696,10.977115336608886,3.863792566680908
1758278416357456100,172.7194560546875,3.649361880493164,10.957063897705078,3.373280501556396
1758278416367540500,172.72954052734374,2.899078935241699,11.107748964691162,3.310731983184814
1758278416377624300,172.73962426757814,2.2686557106018066,11.49830311050415,3.384204046630859
1758278416387708200,172.74970825195314,1.8519149841308595,12.23197628173828,3.528305059051513
1758278416397793300,172.75979321289063,1.656787548828125,12.601281887817382,3.5131916610717773
1758278416407877000,172.76987719726563,1.062426986694336,12.739247758483886,3.5673604736328124
1758278416417961500,172.77996142578124,0.6202478675842285,12.659191640472413,3.8046857131958007
1758278416428045300,172.79004541015624,0.345363589477539,12.337470792388917,4.00310517578125
1758278416438130400,172.80013037109376,0.1554734703063964,11.728894657897948,4.015375459289551
1758278416448214300,172.81021435546876,-0.0589572158813476,10.860846918487548,3.858854525756836
1758278416458298000,172.82029809570312,-0.2171241630554199,9.910049584197996,3.63903688583374
1758278416468382500,172.83038256835937,-0.3971382003784179,9.013121787261962,3.378517817687988
1758278416478467300,172.84046728515625,-0.5532102210998535,8.102576968383788,3.1420904037475585
1758278416488551400,172.8505515136719,-0.6642413230895996,7.297077747344971,3.100341512298584
1758278416498635300,172.86063525390625,-0.931494083404541,6.539911472320556,3.1616929298400875
1758278416508719000,172.87071899414062,-1.281945351409912,5.870133557891846,3.310731983184814
1758278416518803500,172.88080346679686,-1.6180314094543455,5.224896210479736,3.303399740600586
1758278416528888300,172.89088842773438,-1.7362451164245605,4.775085573577881,3.153013948822021
1758278416538972400,172.90097241210938,-1.633743357849121,4.59671754989624,2.870049240112305
1758278416549056300,172.91105615234375,-1.3072341064453123,4.735730883789063,2.567631642913818
1758278416559140000,172.92114013671875,-0.7830535804748535,5.210231725311279,2.170044529724121
1758278416569225200,172.93122509765624,-0.3461117774963378,6.031143619537353,1.7157447647094726
1758278416579309300,172.94130932617188,0.0447416435241699,7.106589077758788,1.2975076622009276
1758278416589393400,172.95139331054688,0.63206923828125,8.328829025268554,1.0170867927551268
1758278416599477200,172.96147729492188,1.1641805572509765,9.556156651306152,0.8759785324096679
1758278416609562000,172.97156201171876,1.5376760162353516,10.605415528869628,0.884208600616455
1758278416619646200,172.98164624023437,1.8920178619384764,11.228057598114011,0.9917980377197264
1758278416629730300,172.99173022460937,2.053776111602783,11.405378158569336,1.219995383453369
1758278416639814400,173.001814453125,2.2405238410949706,11.263671347808836,1.650951682281494
1758278416649899300,173.01189916992186,2.34272632446289,10.958111360931396,2.098966667938232
1758278416659983000,173.02198315429686,2.3210288719177243,10.896161392974854,2.6014497413635254
1758278416670067200,173.03206713867186,2.4054244804382323,11.162067414855956,3.2555157073974605
1758278416680151300,173.0421513671875,2.493112116241455,11.469871965789794,3.9086838478088377
1758278416690236400,173.052236328125,2.619406253814697,11.585691471099851,4.722413137054443
1758278416700320300,173.0623203125,2.74540111618042,11.253944903564452,5.314379497528076
1758278416710404000,173.07240405273438,2.968211508178711,10.68128179397583,5.721244142150878
1758278416720488200,173.08248828125,3.252074042510986,9.859322436523437,5.551255824279785
1758278416730572300,173.092572265625,3.7216368431091302,8.98259571609497,4.971859022521972
1758278416740657400,173.10265747070312,4.285172058868408,8.379556172943115,4.295796328735351
1758278416750741200,173.1127412109375,4.70535445022583,8.220790675354003,3.7250785079956055
1758278416760825000,173.1228251953125,4.789450783538818,8.45272896118164,3.072209642791748
1758278416770909200,173.1329091796875,4.507533538055419,8.876353017425537,2.287360411071777
1758278416780994300,173.1429943847656,4.04141240234375,9.213336901092529,1.5499462997436522
1758278416791078400,173.15307836914062,3.4587235733032227,9.284115487670896,0.8183680549621581
1758278416801162200,173.16316235351562,3.0033763450622555,9.2305452255249,0.2267009696960449
1758278416811246000,173.17324609375,2.6213515426635743,9.168744895172118,-0.1960252609252929
1758278416821331200,173.18333129882814,2.3329998802185057,9.216030377960204,-0.4134486991882324
1758278416831415300,173.19341528320314,2.031929021453857,9.351153134155274,-0.3509001808166503
1758278416841499400,173.20349951171875,1.7311574378967285,9.467720827484133,-0.082300682067871
1758278416851583200,173.21358325195314,1.4586673614501953,9.439588957977294,0.1623568000793457
1758278416861668400,173.22366845703124,1.3480851722717284,9.26930136489868,0.3739443717956542
1758278416871752200,173.23375219726563,1.3144167114257812,8.914510606384276,0.5837362922668456
1758278416881836300,173.24383618164063,1.37906015625,8.383446750640868,0.8723872299194335
1758278416891920400,173.25392041015624,1.6499042190551756,7.717858689117431,1.158045415496826
1758278416902004200,173.26400415039063,1.9922750564575196,6.928370691680907,1.1858780097961426
1758278416912089300,173.27408935546876,2.366219428253174,6.260538066101073,0.9967360786437988
1758278416922173200,173.28417309570312,2.7207109115600585,5.977274082183838,0.7425017898559569
1758278416932257300,173.29425732421876,2.954744123840332,6.134992116546631,0.4668693237304687
1758278416942341400,173.30434130859376,3.109768681335449,6.742520787811279,0.2677016731262207
1758278416952426200,173.31442626953125,3.0578444328308105,7.631966704559326,0.1464952140808105
1758278416962510300,173.32451025390623,2.815730789947509,8.648305309295655,0.0234931037902832
1758278416972594200,173.33459423828126,2.4072201316833493,9.764003282928469,-0.0891840118408203
1758278416982678300,173.34467822265626,1.9125182136535643,10.856956340789797,-0.1948281600952148
1758278416992763400,173.35476342773438,1.4555249717712402,11.968015548706054,-0.1840542526245117
1758278417002847200,173.36484716796875,1.0046668716430665,13.009942183685302,-0.1101332763671874
1758278417012931300,173.3749313964844,0.5493196434020996,13.7775830909729,-0.0375590385437011
1758278417023015200,173.38501513671875,0.2690484115600586,14.022539848327636,0.151283617401123
1758278417033100300,173.39510034179688,0.2310404602050781,13.628244762420652,0.3555389465332031
1758278417043184400,173.40518432617188,0.3770867614746093,12.75525898208618,0.4578910675048828
1758278417053268200,173.41526831054688,0.5689221694946289,11.672630918884275,0.5496189186096191
1758278417063352300,173.42535229492188,0.6299743118286133,10.602273139190672,0.7104793426513671
1758278417073436200,173.43543627929688,0.8795698348999023,9.794978266906735,1.0519523544311522
1758278417083521300,173.44552124023437,1.2508207298278808,9.251494490051268,1.4960767623901363
1758278417093605400,173.45560546875,1.496525675201416,8.780734588623046,1.9539678298950196
1758278417103689200,173.46568920898437,1.6603788513183593,8.398560148620605,2.562543964385986
1758278417113773300,173.47577319335937,1.8611925155639648,8.154052304077148,3.1980548675537106
1758278417123858200,173.48585815429686,1.87720373916626,7.908796271514892,3.5428199066162107
1758278417133942300,173.4959423828125,1.5168763893127442,7.666532991027831,3.6605847007751455
1758278417144026400,173.5060263671875,1.0199299072265624,7.43818600769043,3.706673082733154
1758278417154110200,173.51611010742187,0.3880103065490722,7.169137596130371,3.548356497955322
1758278417164195300,173.5261953125,-0.4210802169799804,6.967725381469726,3.2691327293395998
1758278417174279200,173.5362790527344,-1.1757026527404784,7.018751804351807,3.055450231170654
1758278417184363300,173.54636328125,-1.8140566703796384,7.410503050994873,2.9791350532531737
1758278417194447400,173.556447265625,-2.261323468017578,8.067861044311522,3.0328549530029294
1758278417204532500,173.56653247070312,-2.6014497413635254,8.874707003784179,3.1037831771850586
1758278417214616300,173.5766162109375,-2.7916391357421872,9.926210445404053,3.045723786926269
1758278417224700200,173.5867001953125,-2.842216645812988,11.2362876663208,2.9568390502929685
1758278417234784300,173.5967841796875,-2.7602152389526364,12.546215249633788,2.938882537841797
1758278417244868400,173.60686840820313,-2.7465982170104977,13.552378497314452,3.123086428070068
1758278417254953500,173.61695336914062,-2.6301801612854003,13.782221856689452,3.4223616355896
1758278417265037300,173.62703735351562,-1.9840449882507325,13.142970013427734,3.384952234649658
1758278417275121200,173.63712109375,-1.1960533668518063,11.88047755050659,2.986616933441162
1758278417285205200,173.64720532226562,-0.661398208618164,10.863091482543943,2.591124746704101
1758278417295290000,173.6572900390625,-0.4029740669250488,10.209025516510009,2.244264781188965
1758278417305374500,173.66737451171875,-0.2006640266418456,9.637858782958984,2.2656629585266117
1758278417315458300,173.6774582519531,0.3606266250610351,9.572167874908446,2.5540146209716794
1758278417325542100,173.6875422363281,1.2446855880737304,10.121786793518066,2.7679963943481445
1758278417335626500,173.69762646484375,1.823483839416504,11.029937410736084,2.72609786529541
1758278417345710800,173.7077109375,1.6965911514282226,11.914295648956298,2.71951381072998
1758278417355794700,173.7177946777344,1.113004496765137,12.356175492858886,2.7678467567443845
1758278417365878500,173.72787841796875,0.5741594856262207,12.320711380767822,2.723703663635254
1758278417375963600,173.73796362304688,0.4565443290710449,12.388347577667236,2.6966192573547363
1758278417386047500,173.74804760742188,0.729034405517578,12.76797817840576,2.760065601348877
1758278417396131800,173.7581318359375,1.1140519599914551,13.236643153381348,3.024924160003662
1758278417406215700,173.76821557617188,1.4212579605102538,13.306823189544676,3.478475736999512
1758278417416299500,173.77829956054688,1.650353131866455,12.67984162979126,3.764582835388184
1758278417426384600,173.78838452148435,2.028487356567383,11.629684926605224,3.4980782630920406
1758278417436468500,173.79846850585938,2.586934893798828,10.844536419677734,2.833986577606201
1758278417446552800,173.808552734375,3.122637515258789,10.512640214538571,2.079364141845703
1758278417456636700,173.81863671875,3.3545758010864257,10.499621743011474,1.3938742790222167
1758278417466721500,173.82872143554687,3.0807389862060544,10.694749178314208,1.0422259101867677
1758278417476805600,173.8388056640625,2.4992472579956053,11.131990256500243,1.1495160720825195
1758278417486889700,173.8488896484375,1.8179472480773924,11.758822178649902,1.504007555389404
1758278417496973800,173.85897387695312,1.1323077476501464,12.383858449554443,1.9569605819702147
1758278417507058700,173.86905859375,0.5591957252502441,12.737901020050048,2.4616882194519043
1758278417517142500,173.879142578125,0.2249053184509277,12.65350541152954,2.9785365028381348
1758278417527226600,173.8892265625,0.1485901405334472,12.191873403930664,3.351134136199951
1758278417537310700,173.89931079101564,0.1822586013793945,11.495908908843994,3.437325395965576
1758278417547395600,173.9093955078125,0.2310404602050781,10.665120932769774,3.287388516998291
1758278417557479700,173.91947973632813,0.3577835105895995,9.862464826202393,3.0729578308105467
1758278417567563500,173.9295634765625,0.3592798866271972,9.144204328155515,2.8507459892272946
1758278417577647600,173.93964770507813,0.3431190254211425,8.450484397125244,2.664297534942627
1758278417587731700,173.94973168945313,0.2120364845275879,7.804648499298096,2.587982357025146
1758278417597816800,173.95981689453126,-0.1402104347229003,7.210886487579345,2.614168937683105
1758278417607900700,173.96990063476562,-0.5776011505126952,6.644807432556152,2.666093186187744
1758278417617984500,173.97998461914062,-0.9255085792541504,6.110451549530029,2.588580907440185
1758278417628068600,173.99006860351562,-1.1561001266479491,5.568464148712158,2.402431728363037
1758278417638153500,174.00015356445311,-1.1598410667419432,5.151124871826172,2.131138752746582
1758278417648237800,174.01023779296875,-1.0160393295288086,4.867262337493896,1.8632874420166012
1758278417658321700,174.02032177734375,-0.7691372833251953,4.791096797180176,1.652896971130371
1758278417668405500,174.03040551757812,-0.522833787536621,4.957044899749755,1.4362217208862305
1758278417678490600,174.04049072265624,-0.2367266891479492,5.374683451843262,1.2993033134460448
1758278417688574500,174.05057446289064,0.0852934341430664,6.078279464721679,1.2538134819030762
1758278417698658800,174.06065893554688,0.3125929542541503,6.8964978820800775,1.357961254119873
1758278417708742700,174.07074267578125,0.5933130989074706,7.8067434257507315,1.6208745239257811
1758278417718826500,174.0808264160156,0.8001122673034667,8.706364699554443,1.8448820167541504
1758278417728911600,174.09091162109374,0.9964368034362792,9.39724151611328,2.045546043395996
1758278417738995500,174.10099536132813,1.2578536972045895,9.969455712890625,2.354098782348633
1758278417749079800,174.11107983398438,1.3922282653808593,10.449343508148193,2.596362062835693
1758278417759163600,174.12116357421874,1.6268600280761718,10.977863524627685,2.775178999328613
1758278417769248800,174.13124877929687,2.025045691680908,11.481693336486815,3.038092269134521
1758278417779332600,174.14133251953126,2.4142530990600584,11.808950775909423,3.2823008384704586
1758278417789416400,174.15141650390626,2.691381941223145,11.80476092300415,3.594744155120849
1758278417799500800,174.16150073242187,3.1275755561828613,11.61965920715332,3.958812445068359
1758278417809585700,174.17158569335936,3.535188388824462,11.270554677581789,4.225017742156982
1758278417819669800,174.18166967773436,3.917961379241943,10.825532444000244,4.236240562438964
1758278417829753600,174.19175366210936,4.221875352478027,10.199149434661864,3.8830958175659176
1758278417839837400,174.20183740234376,4.356100283050536,9.46128641052246,3.214515003967285
1758278417849922600,174.21192260742188,4.359093035125732,8.779687125396729,2.37489840927124
1758278417860006700,174.22200659179688,4.182670300292968,8.322693883514404,1.5273510215759276
1758278417870090800,174.2320908203125,3.827879541778564,8.230367481994628,0.6540659660339355
1758278417880174600,174.24217456054689,3.5576340293884274,8.528295951080322,-0.1198597206115722
1758278417890258400,174.2522585449219,3.2570120834350584,9.149740919494628,-0.824203921508789
1758278417900343600,174.26234350585938,2.879925321960449,9.96586441040039,-1.533486163330078
1758278417910427600,174.272427734375,2.679859845733642,10.868328798675536,-2.17707749710083
1758278417920511700,174.28251171875,2.492663203430176,11.654225493621826,-2.678812382507324
1758278417930595600,174.292595703125,2.2508488357543945,11.97085866317749,-2.9679122329711918
1758278417940680700,174.3026806640625,2.129343101501465,11.733084510803222,-3.1015386131286617
1758278417950764500,174.3127646484375,2.1881506797790524,11.08290912246704,-3.087622315979004
1758278417960848600,174.3228486328125,2.363825226593017,10.30374611968994,-2.9822774429321286
1758278417970932700,174.3329326171875,2.4173954887390137,9.592668226623534,-2.730437355804443
1758278417981017600,174.343017578125,2.356492984008789,8.982446078491211,-2.199074224853516
1758278417991101700,174.35310180664064,2.256834339904785,8.499266255950927,-1.4809633644104003
1758278418001185500,174.363185546875,2.174533657836914,8.213907345581054,-0.6935702934265137
1758278418011269600,174.37326953125,2.0875942100524902,8.128164998626708,0.0273836814880371
1758278418021353700,174.3833537597656,1.97910694732666,8.33152250213623,0.556053335571289
1758278418031438600,174.3934384765625,1.873163523864746,8.818892177581787,0.9163806854248048
1758278418041522700,174.40352270507813,1.697638614654541,9.446621925354004,1.0503063407897948
1758278418051606500,174.4136064453125,1.4606126502990722,10.133907439422607,1.0332476539611817
1758278418061690600,174.42369067382813,1.207276187133789,10.765677402496337,0.8809165733337402
1758278418071775700,174.43377563476562,0.9178770614624024,11.188403633117677,0.7320271575927734
1758278418081859600,174.44385961914062,0.6455366226196289,11.3757499130249,0.6682815383911133
1758278418091943700,174.45394360351565,0.4429273071289062,11.380538316345216,0.6783072578430175
1758278418102027800,174.46402783203126,0.3440168510437011,11.303474950408935,0.728435855102539
1758278418112112600,174.47411254882812,0.2738368148803711,11.097872882843015,0.8212111694335937
1758278418122196700,174.48419677734375,0.153827456665039,10.854711776733398,0.9159317726135252
1758278418132280600,174.49428051757812,-0.0282815071105957,10.609006831359862,0.9361328491210936
1758278418142364700,174.50436474609376,-0.1882441055297851,10.290278735351562,1.020827732849121
1758278418152448800,174.51444873046876,-0.2941875289916992,9.872340908050536,1.1475707832336426
1758278418162534000,174.52453393554688,-0.3655646659851074,9.336638286590576,1.196502279663086
1758278418172617700,174.53461767578125,-0.4014776908874511,8.755445833587647,1.2407950103759764
1758278418182701600,174.54470166015625,-0.4227262306213378,8.150610639190674,1.283890640258789
1758278418192785700,174.55478564453125,-0.3960907371520996,7.604283747863769,1.3829507339477538
1758278418202870500,174.56487060546874,-0.3215712104797363,7.15716658782959,1.5114894355773925
1758278418212955000,174.57495483398438,-0.4680664245605468,6.777535987091064,1.5189713157653808
1758278418223038700,174.58503881835938,-0.5345055206298828,6.489184324645996,1.5722423027038572
1758278418233122600,174.59512255859374,-0.6027402679443359,6.375310108184814,1.664119791412353
1758278418243207700,174.60520776367187,-0.5633855781555176,6.412869146728515,1.7817349479675293
1758278418253291500,174.61529150390626,-0.5668272430419922,6.6331356994628905,1.9071312599182129
1758278418263376000,174.6253759765625,-0.6519710395812988,6.966528280639648,1.976563108062744
1758278418273459700,174.63545971679687,-0.5702689079284667,7.478737798309326,2.028487356567383
1758278418283543600,174.64554345703124,-0.4343979637145996,8.200888874053955,2.1148282539367678
1758278418293628700,174.65562866210936,-0.6432920585632323,8.946084140777588,2.283320195770264
1758278418303712500,174.66571240234376,-0.8848071510314941,9.86441011505127,2.6746225296020505
1758278418313796900,174.675796875,-1.025167223358154,10.951527306365966,3.248482740020752
1758278418323880700,174.68588061523437,-1.0045172340393065,11.81119533996582,3.948786725616455
1758278418333966300,174.69596630859374,-0.8783727340698242,12.158803493499756,4.400093738555908
1758278418344050200,174.70605029296874,-0.6857891380310058,12.04178688735962,4.074332675170898
1758278418354134000,174.71613403320313,-0.7487865692138671,11.8239145362854,3.2116718894958494
1758278418364218000,174.72621801757813,-0.8583212951660156,11.81748011932373,2.4392425788879395
1758278418374303000,174.73630297851562,-0.9466074813842772,11.928660858917237,1.8857330825805665
1758278418384387300,174.74638720703126,-0.5856815811157227,11.744307331085205,1.474379309844971
1758278418394471200,174.75647119140626,0.137217682647705,11.250802513885498,1.3013982398986816
1758278418404555000,174.76655493164063,0.8255506599426269,10.71285532836914,1.2183493698120116
1758278418414639400,174.77663940429687,1.35990654296875,10.383652600097657,1.1339537612915038
1758278418424724200,174.78672412109376,1.7579425689697266,10.223091451263429,1.0489596023559569
1758278418434808300,174.79680834960936,2.0669442207336424,10.243741440582276,0.969202759552002
1758278418444892200,174.80689208984376,2.1484967147827145,10.551097078704831,0.9689034843444824
1758278418454976000,174.81697607421876,1.959205146026611,11.353902822875977,1.3576619789123534
1758278418465061000,174.82706103515625,1.828421880340576,12.580332623291016,2.147299613952637
1758278418475145200,174.83714526367189,1.75569800491333,13.928567433166505,3.13460852355957
1758278418485229300,174.8472292480469,1.6716016716003417,15.13704072113037,4.068796083831787
1758278418495313200,174.8573132324219,1.7758990814208984,16.087089867401122,4.848258361816406
1758278418505398000,174.86739794921874,2.3546973327636715,16.2162271194458,5.19077883682251
1758278418515482000,174.87748217773438,3.273172944641113,14.985607466125488,4.758924712371826
1758278418525566200,174.88756616210938,4.31629668045044,13.034033837890624,3.7578491432189938
1758278418535650300,174.897650390625,5.218312155914306,11.505784990692138,2.6415526191711423
1758278418545734100,174.90773413085938,5.52207649154663,10.478522840881348,1.428739840698242
1758278418555819000,174.91781909179687,5.211728101348877,9.810540577697754,0.5597942756652832
1758278418565903000,174.92790307617187,4.629787460327148,9.460687860107422,-0.0366612129211425
1758278418575987200,174.9379873046875,3.925742534637451,9.28980171661377,-0.3916016090393066
1758278418586071300,174.9480712890625,3.061435735321045,9.131485131835936,-0.4707599014282226
1758278418596156200,174.95815625,2.316090830993652,9.12370397644043,-0.3573345977783203
1758278418606240000,174.96823999023437,1.7853262504577636,9.472958143615722,0.0421978042602539
1758278418616324000,174.97832397460937,1.1885714866638184,9.911396322631836,0.6277297477722168
1758278418626408200,174.988408203125,0.4590881683349609,10.191517916870117,1.2214917594909669
1758278418636493300,174.99849340820313,0.0668880088806152,10.15156467666626,1.6885107208251953
1758278418646577200,175.0085771484375,-0.0591068534851074,9.852588744354248,1.9313725517272948
1758278418656661000,175.0186608886719,0.0778115539550781,9.310900618743895,1.8951602516174315
1758278418666745000,175.0287451171875,0.3369838836669921,8.72821178970337,1.7145476638793944
1758278418676829200,175.0388291015625,0.5023334358215332,8.118438554382324,1.4921861846923827
1758278418686914300,175.04891430664065,0.4938040924072265,7.497442498779296,1.2728174575805664
1758278418696998100,175.058998046875,0.3289034530639648,6.973112335205077,1.1430816551208496
1758278418707082000,175.06908203125,0.1282394264221191,6.496965480041504,1.088463929748535
1758278418717166000,175.079166015625,-0.0016460136413574,6.0707975845336914,1.0717045181274414
1758278418727251000,175.0892509765625,-0.0219967277526855,5.766434698486328,1.0914566818237303
1758278418737335300,175.09933520507812,-0.0234931037902832,5.552004012298584,1.0699088668823242
1758278418747419100,175.10941918945312,0.0412999786376953,5.45848050994873,1.0467150382995605
1758278418757503000,175.1195029296875,0.1340752929687499,5.522675041961669,0.9220669143676756
1758278418767588000,175.1295881347656,0.1735796203613281,5.7207952293396,0.7537246101379395
1758278418777672000,175.139671875,0.2050035171508789,6.073191786193847,0.5325602317810059
1758278418787756300,175.14975634765625,0.2326864738464355,6.701370446777343,0.3567360473632812
1758278418797840100,175.1598400878906,0.2099415580749511,7.484872940063476,0.1843535278320312
1758278418807924000,175.16992407226562,0.2139817733764648,8.28049607925415,0.0532709869384765
1758278418818009000,175.1800090332031,0.2787748558044433,9.034519964599609,-0.0130184715270996
1758278418828093000,175.19009301757814,0.2986766571044921,9.600748657226562,-0.0309749839782714
1758278418838177300,175.20017724609374,0.328155265045166,10.001178884887697,-0.0125695587158203
1758278418848261000,175.21026123046877,0.4987421333312988,10.339958419799803,0.1080383499145507
1758278418858346200,175.22034619140624,0.7176619476318359,10.669759698486327,0.2605190681457519
1758278418868430000,175.23043017578124,0.8970774345397948,10.908581314086913,0.3728969085693359
1758278418878514200,175.24051416015624,1.1818377944946288,11.040262405395508,0.5744587608337401
1758278418888598300,175.25059838867188,1.5509937629699706,11.023802268981932,0.8945335952758788
1758278418898682000,175.26068212890624,1.9508254402160643,10.82657990722656,1.3000515014648435
1758278418908767200,175.27076733398437,2.397792962646484,10.56636011428833,1.874360624694824
1758278418918851000,175.28085107421876,2.754828285217285,10.301501555633545,2.5176526832580564
1758278418928935200,175.29093505859376,2.996193740081787,10.097545501708984,3.060537909698486
1758278418939019300,175.30101928710937,3.118746937561035,9.862464826202393,3.412635191345214
1758278418949104000,175.3111042480469,3.1200936759948728,9.530718258666992,3.536086214447021
1758278418959188200,175.3211882324219,3.103932814788818,9.04005655593872,3.237259919738769
1758278418969272000,175.33127197265625,3.161094379425049,8.626308581542968,2.653673265075684
1758278418979356200,175.34135620117186,3.1673791587829587,8.504802847290039,1.9003975677490232
1758278418989441300,175.35144116210938,2.956689412689209,8.711302740478516,1.0568903953552244
1758278418999525000,175.36152514648438,2.5260323890686034,9.189245246887207,0.2120364845275879
1758278419009609200,175.37160913085938,2.054374662017822,9.864709390258788,-0.4906617027282715
1758278419019693000,175.38169311523438,1.5933412048339843,10.6356423248291,-1.0357914932250976
1758278419029777200,175.3917770996094,1.1840823585510254,11.356147386932372,-1.428889478302002
1758278419039862300,175.4018623046875,0.841412245941162,11.88721124267578,-1.6457143661499023
1758278419049946000,175.41194604492188,0.6609492958068848,12.122890468597411,-1.690156734466553
1758278419060030200,175.4220302734375,0.6317699630737305,12.05989303741455,-1.5949872184753418
1758278419070114000,175.43211401367188,0.8176198669433593,11.68340482635498,-1.364994221496582
1758278419080199200,175.44219921875,1.1315595596313477,11.061211669921876,-1.0619780738830569
1758278419090283300,175.452283203125,1.4360720832824707,10.315417852783202,-0.6992565223693847
1758278419100367000,175.4623671875,1.765274811553955,9.685742816162108,-0.2997241203308105
1758278419110451200,175.472451171875,2.0588637901306157,9.395146589660644,0.0851437965393066
1758278419120536000,175.4825361328125,2.189347780609131,9.497349073028564,0.4375403533935547
1758278419130620200,175.4926201171875,2.1971289360046384,10.04173067550659,0.7589619262695312
1758278419140704300,175.50270434570314,2.066644945526123,10.918457395935055,0.9910498497009276
1758278419150788000,175.5127880859375,1.7616835090637206,11.917737313842771,1.179293955230713
1758278419160872200,175.5228720703125,1.3346177879333496,12.848782484436034,1.2791022369384766
1758278419170957000,175.53295703125,0.8689455650329589,13.570634284973144,1.2765583976745605
1758278419181041200,175.54304125976563,0.4391863670349121,13.95625038986206,1.169717148590088
1758278419191125200,175.55312524414063,0.172981069946289,13.927519969940183,0.982520506286621
1758278419201209000,175.563208984375,-0.0137666595458984,13.826215312194824,0.9186252494812012
1758278419211294200,175.57329418945312,-0.1215057342529296,13.686004877471923,0.7610568527221679
1758278419221378000,175.5833779296875,-0.232387198638916,13.34273621444702,0.5716156463623047
1758278419231462100,175.59346215820312,-0.3289034530639648,12.681637281036377,0.4700117134094238
1758278419241546200,175.60354614257812,-0.3507505432128906,11.901875727844237,0.476895043182373
1758278419251630000,175.61363012695313,-0.309001651763916,11.072135214996337,0.4869207626342773
1758278419261715200,175.62371508789062,-0.3214215728759765,10.25945338897705,0.5048772750854492
1758278419271799000,175.63379907226562,-0.3351882324218749,9.415796578979492,0.4697124382019043
1758278419281883100,175.64388305664062,-0.4064157318115234,8.58620570373535,0.4982932205200195
1758278419291967200,175.65396728515626,-0.5039794494628906,7.816020957183837,0.6193500419616699
1758278419302052400,175.66405224609375,-0.560542463684082,7.181707154846191,0.8164227661132812
1758278419312136200,175.67413623046875,-0.5765536872863769,6.737732384490967,0.9660603698730468
1758278419322220000,175.6842199707031,-0.5415384880065918,6.4356140625,1.122431665802002
1758278419332304100,175.69430419921875,-0.5497685562133788,6.235099673461914,1.3213000411987303
1758278419342389000,175.70438891601563,-0.4785410568237304,6.141127258300781,1.5185224029541016
1758278419352473000,175.71447314453124,-0.374094009399414,6.203825414276123,1.732803451538086
1758278419362557000,175.72455688476563,-0.3763385734558105,6.350470265960693,1.9402011703491209
1758278419372641000,175.73464111328124,-0.3872621185302734,6.553528494262695,2.177376772308349
1758278419382725000,175.74472509765624,-0.3345896820068359,6.796091049957275,2.39405202255249
1758278419392810000,175.75481005859376,-0.3570353225708008,7.0652890991210935,2.6165631393432616
1758278419402894000,175.76489404296876,-0.4700117134094238,7.389703424072265,2.8631659103393554
1758278419412978000,175.77497802734376,-0.5659294174194336,7.804199586486816,3.10303498916626
1758278419423062000,175.78506201171874,-0.586729044342041,8.400505437469482,3.3515830490112304
1758278419433147000,175.79514697265626,-0.6802525466918945,9.23189196395874,3.4956840614318847
1758278419443231200,175.80523120117186,-0.7658452560424804,10.06821653137207,3.6324528312683104
1758278419453315000,175.81531518554686,-0.8397662322998046,10.869076986694337,3.84314257736206
1758278419463399000,175.82539892578126,-0.7838017684936524,11.489474491882325,4.189852905273438
1758278419473483000,175.83548291015626,-0.3401262733459472,11.819874320983883,4.579808500671386
1758278419483567900,175.84556787109375,0.3688566932678222,11.774833402252195,4.776581949615478
1758278419493652200,175.85565234375,0.8167220413208007,11.1842137802124,4.580407051086426
1758278419503736000,175.8657360839844,1.2728174575805664,10.165331336212155,3.95851316986084
1758278419513820000,175.87581982421875,1.6735469604492186,9.170540546417236,3.199102330780029
1758278419523905000,175.88590502929688,1.3786112434387203,8.337059093475341,2.7103859169006346
1758278419533988900,175.89598876953124,1.149815347290039,7.732972087097168,2.587084531402588
1758278419544073200,175.9060732421875,1.6261118400573729,7.7130702857971185,2.5302222419738767
1758278419554157000,175.91615698242188,2.538452310180664,8.210465680694579,2.264765132904053
1758278419564241000,175.92624096679688,3.374477602386474,8.988132307434082,2.009184105682373
1758278419574326000,175.93632592773437,3.691410047149658,9.76160908126831,2.010231568908692
1758278419584409900,175.94640991210937,3.721337567901611,10.544662661743164,2.2029648025512696
1758278419594494200,175.956494140625,3.6354455833435058,11.303325312805176,2.5960627876281737
1758278419604578000,175.966578125,3.5057097808837887,12.118850253295898,3.240103034210205
1758278419614663200,175.9766630859375,3.429843515777588,13.038522966003416,4.144662348937988
1758278419624747000,175.9867470703125,3.4467525650024413,13.77698454055786,5.0382981185913085
1758278419634830800,175.99683081054687,3.583371697235107,13.813496115875244,5.6824880027771
1758278419644915200,176.0069152832031,3.991732717895508,12.713659728240966,5.661838013458252
1758278419655000000,176.017,4.493766878509521,11.058967105865475,4.889408702850342
1758278419665084200,176.02708422851563,5.06867455215454,9.817872820281982,3.716249889373779
1758278419675168000,176.03716796875,5.288641829681396,9.166949243927002,2.4875755249023435
1758278419685251800,176.047251953125,4.986523507690429,9.095572106933592,1.5764321556091307
1758278419695336200,176.05733618164064,4.358793759918212,9.446023374938964,1.0634744499206543
1758278419705421000,176.06742114257813,3.805882814025879,10.129867224121092,0.9344868354797364
1758278419715505200,176.07750512695313,3.412186278533935,10.919654496765135,1.2005424949645995
1758278419725589000,176.08758911132813,3.046771250152588,11.48498536376953,1.71095636138916
1758278419735672800,176.0976728515625,2.733280470275879,11.781716732025146,2.4028806411743164
1758278419745758000,176.10775805664062,2.471564301300049,11.905167755126952,3.175609226989746
1758278419755842000,176.11784204101562,2.034772135925293,11.84905365371704,3.8513726455688473
1758278419765926100,176.12792602539062,1.762132421875,11.545139680480956,4.262277505493164
1758278419776010000,176.13801000976562,1.5387234794616698,10.99327619781494,4.265569532775879
1758278419786093800,176.14809375,1.389834063720703,10.239401950073242,3.98365228729248
1758278419796179000,176.1581789550781,1.1655272956848144,9.407416873168945,3.4491467666625977
1758278419806263000,176.16826293945311,1.1001356628417969,8.551938692474364,2.871844891357421
1758278419816347100,176.17834716796875,1.0975918235778808,7.685536966705322,2.315641918182373
1758278419826431000,176.18843090820312,0.853532891845703,6.956652198791503,1.911021837615967
1758278419836515800,176.19851586914064,0.2219125663757324,6.316951442718506,1.5273510215759276
1758278419846600000,176.20859985351564,-0.3295020034790039,5.782595559692383,1.0959458099365234
1758278419856684000,176.21868408203125,-0.6385036552429199,5.435137043762206,0.6872855140686035
1758278419866768100,176.22876806640625,-0.680551821899414,5.233275916290283,0.2554313896179199
1758278419876853000,176.23885302734374,-0.5910685348510741,5.15187305984497,-0.3182791831970215
1758278419886936800,176.24893676757813,-0.4044704429626464,5.285499440002441,-0.7279869422912597
1758278419897021000,176.25902099609374,-0.1584662223815917,5.6477720787048336,-0.9834183319091796
1758278419907105000,176.26910498046874,0.000598550415039,6.251410172271728,-0.9460089309692382
1758278419917189000,176.27918920898438,0.1173158813476562,7.003039855957031,-0.639700756072998
1758278419927274000,176.28927392578126,0.2702455123901367,7.842057900238037,-0.199167650604248
1758278419937358000,176.29935815429687,0.3761889358520507,8.617629600524902,0.2044049667358398
1758278419947442200,176.30944213867187,0.3908534210205078,9.303867651367186,0.5638344909667968
1758278419957526000,176.31952612304687,0.4550479530334472,9.868749605560302,0.89378540725708
1758278419967611100,176.3296110839844,0.589272883605957,10.350133776855468,1.2478279777526855
1758278419977695000,176.33969506835936,0.7656956184387207,10.795604923248291,1.6335937202453612
1758278419987779000,176.34977905273436,1.022024833679199,11.12795004119873,2.0705355232238767
1758278419997863200,176.35986328125,1.4704887321472166,11.27489416809082,2.5010429092407227
1758278420007947000,176.36994702148436,1.960551884460449,11.244966647338869,2.916436897277832
1758278420018032000,176.3800322265625,2.354098782348633,11.046846459960936,3.3816602073669437
1758278420028116000,176.39011596679688,2.580500476837158,10.748768353271483,3.7280712600708
1758278420038200000,176.40019995117189,2.7289409797668456,10.534936217498778,3.746027772521973
1758278420048284200,176.4102841796875,2.645143921661377,10.382006586456296,3.557933304595947
1758278420058369000,176.420369140625,2.4576480041503905,10.127473022460936,3.1618425674438475
1758278420068453000,176.430453125,2.2973861305236816,9.606285248565673,2.5516204193115235
1758278420078537000,176.44053686523438,2.2945430160522458,8.939350448608398,1.7393875061035156
1758278420088621000,176.45062109375,2.3970447746276853,8.478616266632079,0.7791630027770996
1758278420098705200,176.460705078125,2.476203067016601,8.43402426071167,-0.1744774459838867
1758278420108790000,176.4707900390625,2.331503504180908,8.724171574401854,-0.9594763153076172
1758278420118874000,176.4808740234375,1.99212541885376,9.195978939056396,-1.5646107849121094
1758278420128958000,176.4909580078125,1.6738462356567383,9.74185691757202,-1.960551884460449
1758278420139042000,176.5010419921875,1.4514847564697264,10.37467434387207,-2.190544881439209
1758278420149127000,176.511126953125,1.2580033348083497,11.04520044631958,-2.2067057426452634
1758278420159211000,176.5212109375,1.1252747802734375,11.603199070739745,-2.088192760467529
1758278420169295000,176.53129516601564,1.0595838722229003,11.990461189270018,-1.8733131614685057
1758278420179379000,176.54137890625,1.2852373786926268,12.039841598510742,-1.5101426971435543
1758278420189463000,176.5514631347656,1.6244658264160154,11.745354794311522,-1.1067197174072263
1758278420199548000,176.5615478515625,1.9189526306152345,11.150844594573972,-0.7242460021972655
1758278420209632000,176.57163208007813,2.1691467041015624,10.345794286346434,-0.4032733421325683
1758278420219716000,176.58171606445313,2.4247277313232423,9.53086789627075,-0.0495300468444824
1758278420229800000,176.59180004882813,2.6755203552246094,8.863783458709717,0.3719990829467773
1758278420239885000,176.60188500976562,2.911947769165039,8.457068451690674,0.8360252922058105
1758278420249969000,176.61196899414062,3.0729578308105467,8.413374271392822,1.240495735168457
1758278420260053000,176.62205297851563,3.068618340301513,8.802432041168212,1.5261539207458494
1758278420270137000,176.63213720703126,2.830844187927246,9.54478419342041,1.6608277641296385
1758278420280221000,176.64222094726563,2.385373041534424,10.471639511108398,1.6102502540588377
1758278420290306000,176.65230615234375,1.785026975250244,11.291803217315673,1.4414590370178222
1758278420300390000,176.66238989257812,1.2123638656616211,12.001085459136965,1.1743559143066409
1758278420310474000,176.67247387695312,0.6212953308105469,12.610559419250489,0.8722375923156738
1758278420320558000,176.68255810546876,0.1031003089904785,13.089848664093015,0.6109703361511231
1758278420330643000,176.6926428222656,-0.2397194412231445,13.33136375656128,0.4951508308410644
1758278420340726500,176.7027265625,-0.3893570449829101,13.3937626373291,0.5621884773254394
1758278420350811000,176.7128107910156,-0.402824429321289,13.460800283813477,0.7179612228393554
1758278420360894700,176.7228947753906,-0.3742436470031738,13.366229318237304,0.7267898414611816
1758278420370978600,176.732978515625,-0.385616104888916,12.956521559143066,0.7791630027770996
1758278420381063700,176.74306372070313,-0.3244143249511718,12.300510304260252,0.8854057014465332
1758278420391147500,176.7531474609375,-0.2371756019592285,11.573121912384032,0.9760860893249512
1758278420401232000,176.76323193359374,-0.2096422828674316,10.826130994415282,0.9986813674926758
1758278420411315700,176.77331567382814,-0.1713350563049316,10.071059645843505,1.0266635993957518
1758278420421400600,176.78340063476563,-0.2660556594848632,9.356689725494384,1.0045172340393065
1758278420431484700,176.79348461914063,-0.4911106155395507,8.607603881072997,0.9427169036865234
1758278420441568500,176.80356860351563,-0.4857236618041992,8.01877991027832,1.0003273811340332
1758278420451652900,176.81365283203124,-0.410455947113037,7.578994992828369,1.2057798110961913
1758278420461736700,176.82373681640624,-0.337732071685791,7.275380294799804,1.419761584472656
1758278420471821600,176.83382153320312,-0.3250128753662109,7.149684707641601,1.7028759307861328
1758278420481905700,176.84390576171876,-0.3751414726257324,7.15701695022583,1.9660884757995605
1758278420491989500,176.85398950195312,-0.39579146194458,7.210287937164306,2.184110464477539
1758278420502073900,176.86407397460937,-0.2361281387329101,7.3457099685668945,2.450315761566162
1758278420512158700,176.87415869140625,-0.2029085906982421,7.569118910980224,2.7418098136901854
1758278420522242600,176.88424267578125,-0.2475005966186523,7.908945909118652,2.9255647911071776
1758278420532326700,176.89432666015625,-0.131531453704834,8.356212706756592,3.0699650787353514
1758278420542410500,176.90441040039062,-0.0603039543151855,8.627056769561767,3.2794577239990232
1758278420552494800,176.91449487304686,0.0041898529052734,8.844929120635985,3.646518766021728
1758278420562579700,176.92457983398438,0.1518821678161621,9.012672874450685,4.059668190002441
