time,seconds_elapsed,z,y,x
1759654465228923100,0.022923095703125,5.846041903686523,7.678354361724853,-2.3535002319335936
1759654465239006000,0.033005859375,5.750722750091552,7.670573206329346,-2.390161444854736
1759654465249089000,0.043089111328125,5.652859757232665,7.588871074676513,-2.361431024932861
1759654465259172000,0.053172119140625,5.588066674804687,7.530961322021484,-2.3132477165222167
1759654465269255200,0.063255126953125,5.609464852142334,7.473350844573974,-2.177676047515869
1759654465279338200,0.073338134765625,5.6434325881958,7.394791102600097,-2.062604730224609
1759654465289421000,0.083421142578125,5.623830062103271,7.139060437774658,-2.054374662017822
1759654465299504000,0.093504150390625,5.6952071990966795,7.134421672058105,-2.0932804389953614
1759654465309587000,0.1035869140625,5.732167687225341,7.156568037414551,-2.3876176055908203
1759654465319670300,0.113670166015625,5.589862326049804,7.272986093139648,-2.675819630432129
1759654465329753000,0.123753173828125,5.436783057403564,7.57839644241333,-2.704998963165283
1759654465339836200,0.133836181640625,5.336825138092041,7.650372129821777,-2.63661457824707
1759654465349919000,0.1439189453125,5.347150132751464,7.560290292358398,-2.5005939964294432
1759654465360002000,0.154001953125,5.424512773895263,7.502530177307128,-2.287958961486816
1759654465370085000,0.164085205078125,5.570259799957275,7.558345003509521,-2.2034137153625486
1759654465380168200,0.174168212890625,5.6377463592529296,7.668777555084228,-2.2002713256835937
1759654465390251300,0.184251220703125,5.547365246582031,7.726537670135498,-2.3331495178222657
1759654465400334000,0.194333984375,5.524620330810547,7.7513775123596185,-2.4543559768676757
1759654465410417200,0.204417236328125,5.6115597785949705,7.760655043792724,-2.5993548149108885
1759654465420500000,0.2145,5.565022483825683,7.810783641052246,-2.757372124481201
1759654465430583000,0.2245830078125,5.591358702087402,7.767388735961914,-2.849997801208496
1759654465440666000,0.234666015625,5.60542463684082,7.6867340675354,-2.8247090461730955
1759654465450749200,0.244749267578125,5.666327141571045,7.656656909179687,-2.7020062110900875
1759654465460832000,0.25483203125,5.700294877624511,7.669675380706787,-2.5962124252319336
1759654465470915000,0.2649150390625,5.705382556152343,7.699902176666259,-2.5694272941589356
1759654465480998100,0.274998046875,5.745036521148681,7.653963432312011,-2.586934893798828
1759654465491081000,0.2850810546875,5.715557913208007,7.584980496978759,-2.637961316680908
1759654465501164300,0.295164306640625,5.718550665283203,7.541884867095947,-2.6964696197509763
1759654465511247000,0.3052470703125,5.716755014038085,7.517493937683105,-2.696768894958496
1759654465521330200,0.315330078125,5.724685807037353,7.5156982864379875,-2.708739903259277
1759654465531413000,0.3254130859375,5.685031842041015,7.538892115020752,-2.7021558486938475
1759654465541496000,0.33549609375,5.615300718688965,7.556250077056884,-2.695571794128418
1759654465551579000,0.345578857421875,5.645976427459717,7.544727981567382,-2.6786627449035643
1759654465561662200,0.355662109375,5.635501795196533,7.503727278137206,-2.626588858795166
1759654465571745300,0.365745361328125,5.621286222839355,7.453000130462646,-2.6343700141906736
1759654465581828000,0.375828125,5.607220288085937,7.431901228332519,-2.673874341583252
1759654465591911200,0.3859111328125,5.610512315368652,7.41214906463623,-2.736273222351074
1759654465601995000,0.3959951171875,5.542427205657959,7.445817525482178,-2.779668127441406
1759654465612078000,0.406078125,5.49035331954956,7.494449746704101,-2.7789199394226074
1759654465622161200,0.4161611328125,5.493196434020995,7.510909883117676,-2.7226562004089354
1759654465632244200,0.426244140625,5.4884080307006835,7.519139951324463,-2.683301510620117
1759654465642327000,0.4363271484375,5.492148970794678,7.536497913360595,-2.7084406280517577
1759654465652410000,0.44641015625,5.457881959533691,7.552958049774169,-2.7076924400329587
1759654465662493000,0.456492919921875,5.416133068084717,7.502979090118408,-2.737470323181152
1759654465672576300,0.466576171875,5.412392127990723,7.4579381713867186,-2.666691736602783
1759654465682659000,0.4766591796875,5.431246466064453,7.4676646156311035,-2.550572956085205
1759654465692742100,0.4867421875,5.386055909729004,7.475894683837891,-2.4135049110412594
1759654465702825000,0.496824951171875,5.390245762634277,7.501183438873291,-2.306514024353027
1759654465712908000,0.506907958984375,5.45204609298706,7.558345003509521,-2.3090578636169434
1759654465722991000,0.5169912109375,5.440523997497558,7.633014167785644,-2.4919150154113767
1759654465733074000,0.527073974609375,5.309740731811523,7.689277906799316,-2.699163096618652
1759654465743157200,0.5371572265625,5.223250196838379,7.657255459594726,-2.8452093978881834
1759654465753240000,0.547239990234375,5.265597638702392,7.5813891944885246,-2.789544209289551
1759654465763323100,0.5573232421875,5.26709401473999,7.5465236328125,-2.6753707176208494
1759654465773406000,0.567406005859375,5.350292522430419,7.588871074676513,-2.5068787757873534
1759654465783489000,0.577489013671875,5.403413871765136,7.661744587707519,-2.4238299057006834
1759654465793571800,0.58757177734375,5.333832386016845,7.765144171905517,-2.460640756225586
1759654465803655200,0.5976552734375,5.317821162414551,7.866598467254638,-2.579752288818359
1759654465813738000,0.607738037109375,5.326799418640136,7.876175273895263,-2.696170344543457
1759654465823821000,0.617821044921875,5.2822074127197265,7.886500268554687,-2.680757671356201
1759654465833904000,0.627904052734375,5.339518614959717,7.91672706451416,-2.664297534942627
1759654465843987000,0.637987060546875,5.443217474365234,7.972392253112792,-2.713977219390869
1759654465854070000,0.648070068359375,5.435885231781006,8.031050193786621,-2.7959786262512205
1759654465864153000,0.658153076171875,5.382913520050049,8.058733150482178,-2.8989292976379395
1759654465874236200,0.668236083984375,5.357475127410888,8.060229526519775,-3.003077069854736
1759654465884320000,0.678320068359375,5.369446135711669,8.051700183105469,-3.081038261413574
1759654465894403000,0.688403076171875,5.4041620597839355,8.034042945861817,-3.112911071014404
1759654465904486000,0.69848583984375,5.417479806518554,7.963264359283447,-3.12847338180542
1759654465914569200,0.7085693359375,5.415684155273437,7.895179249572753,-3.0889690544128414
1759654465924652000,0.718652099609375,5.436334144592285,7.855974197387694,-3.0119056884765625
1759654465934735000,0.728735107421875,5.45877978515625,7.830685442352294,-2.932298483276367
1759654465944818000,0.73881787109375,5.470002605438232,7.827991965484618,-2.8377275177001953
1759654465954901000,0.74890087890625,5.460276161193847,7.775768441772461,-2.724152576446533
1759654465964984000,0.758984130859375,5.45219573059082,7.669675380706787,-2.658461668395996
1759654465975067100,0.769067138671875,5.452644643402099,7.593210565185546,-2.5917232971191404
1759654465985150200,0.779150146484375,5.444264937591552,7.570016736602783,-2.5547628089904784
1759654465995233000,0.78923291015625,5.401767858123779,7.594856578826904,-2.571073307800293
1759654466005316000,0.799316162109375,5.322908840942382,7.620743884277343,-2.611924373626709
1759654466015399000,0.80939892578125,5.300463200378418,7.621342434692382,-2.613720024871826
1759654466025482000,0.81948193359375,5.2916345817565915,7.591414913940429,-2.616862414550781
1759654466035565000,0.82956494140625,5.277718284606934,7.576301515960693,-2.593369310760498
1759654466045648100,0.839648193359375,5.259612134552001,7.623287723541259,-2.554313896179199
1759654466055731000,0.84973095703125,5.230283164215088,7.681197476196289,-2.555211721801758
1759654466065814000,0.85981396484375,5.179256741333008,7.76978293762207,-2.558653386688232
1759654466075897000,0.86989697265625,5.1690813842773435,7.860164050292968,-2.61132582321167
1759654466085980000,0.87997998046875,5.116857860565185,7.941417269134521,-2.694973243713379
1759654466096063200,0.890063232421875,5.06283868560791,7.966855661773681,-2.741510538482666
1759654466106147000,0.90014697265625,5.071368029022216,7.933935388946533,-2.7096377288818356
1759654466116230000,0.91022998046875,5.090521642303466,7.901763304138183,-2.5980080764770506
1759654466126313000,0.92031298828125,5.109974530792236,7.941117993927001,-2.5297733291625977
1759654466136396000,0.93039599609375,5.1410991523742675,7.953687552642822,-2.5501240432739256
1759654466146479000,0.94047900390625,5.16474189376831,8.007407452392577,-2.6138696624755857
1759654466156562200,0.950562255859375,5.164292980957031,8.052298733520507,-2.6879402763366698
1759654466166645000,0.96064501953125,5.143044441223144,8.092102336120606,-2.7727847976684568
1759654466176728000,0.97072802734375,5.113266558074951,8.10242733078003,-2.771587696838379
1759654466186811000,0.980810791015625,5.113266558074951,8.060977714538573,-2.7055975135803223
1759654466196894000,0.99089404296875,5.19661470336914,8.003965787506104,-2.5846903297424313
1759654466206977000,1.00097705078125,5.224148022460938,8.012644768524169,-2.4733599525451657
1759654466217060000,1.01106005859375,5.253626630401611,8.022969763183593,-2.447771922302246
1759654466227143200,1.02114306640625,5.270236404418945,8.017433171844482,-2.4474726470947266
1759654466237226000,1.03122607421875,5.269488216400146,8.0062103515625,-2.436848377227783
1759654466247309000,1.04130908203125,5.285649077606201,7.935132489776611,-2.4446295326232907
1759654466257391900,1.051391845703125,5.31183565826416,7.849240505218505,-2.433705987548828
1759654466267475200,1.06147509765625,5.343858105468749,7.798363719940185,-2.437446927642822
1759654466277558000,1.07155810546875,5.317821162414551,7.751078237152099,-2.4733599525451657
1759654466287641000,1.08164111328125,5.248838227081299,7.7416510681152335,-2.5374048469543458
1759654466297724000,1.091723876953125,5.196465065765381,7.747935847473144,-2.605938869476318
1759654466307808300,1.101808349609375,5.162646967315673,7.754519902038574,-2.640056243133545
1759654466317891000,1.11189111328125,5.156661463165283,7.768436199188232,-2.626588858795166
1759654466327974100,1.12197412109375,5.144241542053222,7.824251025390624,-2.614168937683105
1759654466338057000,1.132056884765625,5.111321269226074,7.909544459533691,-2.620154441833496
1759654466348140000,1.14214013671875,5.051316590118408,7.952490451812744,-2.624344294738769
1759654466358222800,1.152222900390625,5.020491243743896,7.926303871154785,-2.5576059234619137
1759654466368306200,1.16230615234375,5.020790518951416,7.922263655853271,-2.431162148284912
1759654466378389200,1.17238916015625,5.048174200439453,7.924957132720947,-2.347065814971924
1759654466388472000,1.18247216796875,5.080346285247803,7.957278855133056,-2.2849662094116208
1759654466398555100,1.19255517578125,5.081543386077881,7.97403826675415,-2.273593751525879
1759654466408638000,1.202637939453125,5.046977099609375,7.914332862854003,-2.290203525543213
1759654466418721000,1.212720947265625,5.0391959442138665,7.857919486236572,-2.307860762786865
1759654466428804000,1.22280419921875,5.013907189178466,7.852233257293701,-2.320131046295166
1759654466438887200,1.23288720703125,5.035903916931152,7.857620211029052,-2.3138462669372557
1759654466448970000,1.242969970703125,5.025728559875488,7.86510209121704,-2.293345915222168
1759654466459054000,1.25305419921875,5.026776023101807,7.88440534210205,-2.316090830993652
1759654466469137000,1.263136962890625,5.039345581817627,7.906402069854736,-2.3300071281433103
1759654466479220200,1.27322021484375,5.055207167816162,7.895029611968994,-2.318185757446289
1759654466489303000,1.283302978515625,5.040093769836425,7.87198542098999,-2.2937948280334473
1759654466499386000,1.29338623046875,5.049371301269531,7.830685442352294,-2.3048680107116697
1759654466509469000,1.303468994140625,5.053112241363525,7.802104660034179,-2.2909517135620114
1759654466519552000,1.313552001953125,5.0766053451538085,7.7781626434326165,-2.23438869934082
1759654466529635000,1.323635009765625,5.11386510848999,7.804798136901855,-2.1990742248535153
1759654466539718100,1.33371826171875,5.092616568756103,7.793126403808594,-2.2135890724182126
1759654466549801200,1.34380126953125,5.089174903869629,7.808539076995849,-2.250399922943115
1759654466559884000,1.353884033203125,5.169380659484863,7.834576020050048,-2.306065111541748
1759654466569967000,1.363967041015625,5.34370846786499,7.891737584686279,-2.333299155426025
1759654466580050000,1.3740498046875,5.411045389556884,7.899668377685546,-2.305765836334228
1759654466590133000,1.384133056640625,5.3585225906372065,7.861211513519287,-2.2885575119018555
1759654466600216000,1.394216064453125,5.2350715675354005,7.812878567504883,-2.274042664337158
1759654466610300200,1.404300048828125,5.0860325141906735,7.726836945343017,-2.297535768127441
1759654466620383000,1.414383056640625,4.982483292388916,7.66758045425415,-2.354398057556152
1759654466630466000,1.424466064453125,4.914547820281983,7.576600791168213,-2.378788986968994
1759654466640548900,1.434548828125,4.828206922912598,7.504176190948486,-2.346167989349365
1759654466650632200,1.444632080078125,4.814290625762939,7.42516753616333,-2.287360411071777
1759654466660715000,1.454715087890625,4.779873976898193,7.363516843414306,-2.240224565887451
1759654466670798000,1.464798095703125,4.71762473373413,7.304110714721679,-2.155080769348144
1759654466680881000,1.474880859375,4.668842874908447,7.17617056350708,-2.0796634170532227
1759654466690964000,1.4849638671875,4.634276588439941,7.040149981689453,-2.026990980529785
1759654466701047000,1.495047119140625,4.561851988220215,6.950367419433594,-1.8994997421264648
1759654466711129900,1.5051298828125,4.477606017303467,6.831854437255859,-1.769165389251709
1759654466721213000,1.515212890625,4.385429253387451,6.712742904663085,-1.626710390472412
1759654466731296000,1.5252958984375,4.237288025665283,6.62041650314331,-1.5521908638000488
1759654466741380000,1.535380126953125,4.049343195343018,6.537068357849121,-1.4814122772216796
1759654466751463000,1.545462890625,3.8967128395080564,6.453570574951171,-1.4507365684509277
1759654466761546000,1.5555458984375,3.7237317695617675,6.360645623016357,-1.40464818649292
1759654466771628800,1.56562890625,3.51768078918457,6.25006343383789,-1.3702315376281737
1759654466781712100,1.575712158203125,3.3253964683532713,6.130203713226318,-1.2707225311279295
1759654466791795000,1.585794921875,3.1561563385009763,5.919065054321289,-1.1420341918945311
1759654466801878000,1.5958779296875,2.9659669441223144,5.679495250701904,-1.036838956451416
1759654466811960800,1.6059609375,2.805854708099365,5.449352616119384,-0.9015665626525878
1759654466822044000,1.6160439453125,2.6378116790771484,5.256469744873047,-0.757166275024414
1759654466832127000,1.626126953125,2.498199794769287,5.100098448944092,-0.6274304725646972
1759654466842210000,1.6362099609375,2.3127988037109373,4.971709384918213,-0.5479729049682617
1759654466852293000,1.646293212890625,2.0823568939208985,4.903773912811279,-0.5346551582336425
1759654466862377000,1.656376953125,1.8040309509277344,4.926219553375244,-0.5873275947570801
1759654466872459800,1.666459716796875,1.5055039314270018,5.012710088348388,-0.6815992851257324
1759654466882542800,1.67654296875,1.1870751106262207,5.137657487487792,-0.8185176925659179
1759654466892626000,1.6866259765625,0.9265560424804687,5.276820458984375,-0.9310451705932616
1759654466902709000,1.696708984375,0.6500257507324219,5.47808303604126,-0.992097312927246
1759654466912792000,1.7067919921875,0.366462491607666,5.750722750091552,-1.0558429321289062
1759654466922875000,1.716875,0.12389993591308593,6.09069938583374,-1.0678139404296874
1759654466932958000,1.7269580078125,-0.09262567672729492,6.4846951965332025,-1.098788924407959
1759654466943040800,1.737040771484375,-0.27892449340820313,6.9156514953613275,-1.0766425590515136
1759654466953124000,1.7471240234375,-0.5547065971374512,7.359925540924072,-0.972943699645996
1759654466963207000,1.75720703125,-0.7838017684936524,7.894730336761474,-0.8613140472412109
1759654466973290000,1.7672900390625,-0.8506897773742675,8.47233148727417,-0.7498340324401855
1759654466983373800,1.777373779296875,-0.8704419410705566,9.087940589141844,-0.6196493171691894
1759654466993457200,1.78745703125,-0.9475053070068359,9.798419931793212,-0.6147112762451171
1759654467003540000,1.7975400390625,-1.0461164878845215,10.509797100067138,-0.7624035911560059
1759654467013623000,1.807623046875,-1.1878232986450195,11.063306596374511,-0.9835679695129393
1759654467023705900,1.817705810546875,-1.2592004356384277,11.343877103424072,-1.285835929107666
1759654467033789000,1.827788818359375,-1.268029054260254,11.302427487182616,-1.4903905334472656
1759654467043872000,1.8378720703125,-1.1474211456298828,11.141567063140869,-1.4246996253967283
1759654467053955000,1.847955078125,-0.8770259956359863,11.111789179992675,-1.2146084297180175
1759654467064038100,1.8580380859375,-0.6091746849060058,11.19887826538086,-0.9331400970458984
1759654467074121000,1.868120849609375,-0.4236240562438965,11.347468405914306,-0.642244595336914
1759654467084204800,1.878204833984375,-0.3247136001586914,11.467477764129638,-0.33399113159179683
1759654467094288000,1.888287841796875,-0.26231471939086914,11.505186440277098,-0.12180500946044921
1759654467104371000,1.898370849609375,-0.28924948806762696,11.464784287261962,-0.13781623306274413
1759654467114454000,1.9084541015625,-0.381126976776123,11.40896946105957,-0.3865139305114746
1759654467124537000,1.918537109375,-0.4445733207702636,11.388169834136962,-0.6325181510925293
1759654467134620000,1.928619873046875,-0.5297171173095703,11.413907501983642,-0.8245031967163086
1759654467144703000,1.938702880859375,-0.5793968017578125,11.44114154586792,-0.8852560638427733
1759654467154785800,1.948785888671875,-0.6691793640136718,11.349862607574462,-0.9106944564819336
1759654467164869000,1.958869140625,-0.7683890953063964,11.147702204895019,-0.8806172981262207
1759654467174952000,1.968951904296875,-0.8173205917358398,10.86069728088379,-0.7404068634033203
1759654467185035000,1.979034912109375,-0.8132803764343262,10.601674588775634,-0.4595370811462402
1759654467195118800,1.989118896484375,-0.7644985176086425,10.45772321395874,-0.1541267318725586
1759654467205202000,1.999201904296875,-0.7299322311401367,10.494833339691162,0.14649521408081054
1759654467215285000,2.009284912109375,-0.7918821990966797,10.599430024719238,0.37125089492797847
1759654467225368000,2.0193681640625,-0.9407716148376464,10.724227786254882,0.5104138664245605
1759654467235451000,2.029450927734375,-1.1531073745727538,10.826130994415282,0.570119270324707
1759654467245534000,2.039533935546875,-1.3673884231567381,10.893467916107177,0.613514175415039
1759654467255617000,2.049616943359375,-1.5316905120849609,10.926088913726806,0.6893804405212401
1759654467265699800,2.059699951171875,-1.6295535049438477,10.931625505065917,0.8262988479614257
1759654467275783200,2.069783203125,-1.6702549331665038,10.963647952270508,0.9533411735534667
1759654467285866000,2.079865966796875,-1.6268600280761718,10.87925234375,1.1345523117065428
1759654467295949800,2.08994970703125,-1.5180734901428221,10.711658227539061,1.3524246627807617
1759654467306033000,2.100032958984375,-1.4567220726013184,10.592995607757567,1.5055039314270018
1759654467316116000,2.110115966796875,-1.4688427185058592,10.600327850341797,1.5716437522888183
1759654467326199000,2.120198974609375,-1.5369278282165526,10.812214697265624,1.4088380393981932
1759654467336282000,2.1302822265625,-1.6980875274658203,11.171494583892821,1.0492588775634766
1759654467346365000,2.140364990234375,-1.975366007232666,11.51012448120117,0.6325181510925293
1759654467356448000,2.150447998046875,-2.26641114654541,11.728894657897948,0.309001651763916
1759654467366530800,2.16053076171875,-2.3802853630065917,11.831097141265868,0.1479915901184082
1759654467376614000,2.17061376953125,-2.3623288505554196,11.832892792510986,0.09935936889648436
1759654467386697000,2.180697021484375,-2.461987494659424,11.803114909362792,0.1444002876281738
1759654467396781000,2.190781005859375,-2.551770056915283,11.795782666778564,0.213233585357666
1759654467406864000,2.20086376953125,-2.616862414550781,11.8231663482666,0.26740239791870113
1759654467416947000,2.210947021484375,-2.6259903083801266,11.841871048736571,0.27398645248413084
1759654467427029800,2.22102978515625,-2.5707740325927735,11.914894199371338,0.25438392639160157
1759654467437113000,2.231113037109375,-2.411409984588623,12.039991236114501,0.32486323776245113
1759654467447196000,2.24119580078125,-2.160617360687256,12.147580673217773,0.5018845230102539
1759654467457279000,2.251279052734375,-1.8912696739196777,12.22599077758789,0.7318775199890136
1759654467467362000,2.261362060546875,-1.6744447860717773,12.23811142349243,0.9106944564819336
1759654467477444900,2.27144482421875,-1.556380716705322,12.220603823852539,1.0453682998657226
1759654467487529000,2.281529052734375,-1.5652093353271483,12.202348036193847,1.0699088668823242
1759654467497612000,2.291612060546875,-1.6683096443176268,12.159701319122314,1.0350433052062988
1759654467507694800,2.30169482421875,-1.8270751419067381,12.154912915802,0.9765350021362305
1759654467517778000,2.31177783203125,-1.9470845001220702,12.07919628829956,0.9566332008361815
1759654467527861000,2.321861083984375,-2.0000562118530274,11.988216625213623,0.9187748870849609
1759654467537944000,2.331944091796875,-2.0274398933410644,11.896339136505127,0.900818374633789
1759654467548027100,2.342027099609375,-2.0266917053222655,11.79922433166504,0.8450035484313965
1759654467558110000,2.35210986328125,-1.9816507865905761,11.648090351867674,0.7965209648132324
1759654467568193000,2.362193115234375,-1.910872200012207,11.432761840057372,0.7134720947265625
1759654467578276900,2.37227685546875,-1.7937059562683104,11.207108333587646,0.6827963859558105
1759654467588360200,2.382360107421875,-1.58331548538208,11.034426538848876,0.6766612442016601
1759654467598443000,2.392443115234375,-1.355417414855957,10.922347973632812,0.7389104873657226
1759654467608526000,2.402526123046875,-1.1483189712524413,10.896610305786131,0.856824919128418
1759654467618609000,2.41260888671875,-0.8644564369201659,10.99357547302246,1.0251672233581541
1759654467628692000,2.42269189453125,-0.462829108428955,11.189900009155274,1.2485761657714842
1759654467638774800,2.43277490234375,0.04234744186401367,11.257985118865966,1.4622586639404296
1759654467648858000,2.442858154296875,0.6022913551330566,11.154735172271728,1.5966332321166992
1759654467658941000,2.45294091796875,1.2075754623413084,10.92399398727417,1.5459060844421386
1759654467669025000,2.46302490234375,1.6989853530883787,10.762684650421141,1.3572130661010742
1759654467679107800,2.47310791015625,2.0458453186035155,10.754454582214354,0.9934440513610839
1759654467689191000,2.48319091796875,2.198176399230957,10.835857438659668,0.5409399375915527
1759654467699274000,2.49327392578125,2.263268756866455,10.970232006835937,-0.0013467384338378906
1759654467709357800,2.50335791015625,2.3389853843688964,10.997914963531494,-0.7166144844055176
1759654467719440600,2.513440673828125,2.5002947212219238,10.784232465362548,-1.4902408958435058
1759654467729523700,2.523523681640625,2.691681216430664,10.308833798217773,-2.1722890937805173
1759654467739606500,2.5336064453125,2.8968343711853026,9.579949030303954,-2.7033529495239255
1759654467749689600,2.543689697265625,3.143586779785156,8.872761714935303,-3.0270190864562987
1759654467759773700,2.553773681640625,3.3270424819946287,8.366986614227294,-3.1399954772949217
1759654467769856800,2.563856689453125,3.4543840827941894,8.070554521179199,-3.076399495697021
1759654467779939600,2.573939697265625,3.5556887405395505,8.035988234710693,-2.8941408943176268
1759654467790022700,2.584022705078125,3.7092169219970703,8.256853337860107,-2.6644471725463865
1759654467800105500,2.59410546875,3.9029976188659665,8.678232830047607,-2.4154501998901368
1759654467810188800,2.604188720703125,4.018966761779785,9.096469932556152,-2.290203525543213
1759654467820271600,2.614271728515625,4.036773636627197,9.202862268829346,-2.372504207611084
1759654467830354700,2.624354736328125,4.025700453948974,8.97601166152954,-2.468122636413574
1759654467840437800,2.634437744140625,4.018667486572266,8.566603177642822,-2.554313896179199
1759654467850521600,2.644521484375,4.0346787101745605,8.215403721618651,-2.577806999969482
1759654467860604700,2.654604736328125,4.011933794403076,8.002918324279785,-2.483984222412109
1759654467870687700,2.664687744140625,3.957465706634521,7.950395525360107,-2.3273136512756345
1759654467880770600,2.6747705078125,3.937563905334472,7.98032304611206,-2.1670517776489255
1759654467890853600,2.684853515625,3.959560633087158,8.029553817749022,-1.9645920997619628
1759654467900936700,2.694936767578125,4.008641767120361,8.115296164703368,-1.754351266479492
1759654467911019500,2.70501953125,4.070891010284424,8.227374729919433,-1.5915455535888672
1759654467921102800,2.715102783203125,4.115034103393555,8.225429441070556,-1.4842553916931152
1759654467931186700,2.725186767578125,4.167706539916992,8.070554521179199,-1.4553753341674804
1759654467941269800,2.735269775390625,4.238185851287842,7.819013709259033,-1.4065934753417968
1759654467951352600,2.7453525390625,4.305522772979736,7.503577640533447,-1.3195043899536132
1759654467961435600,2.755435546875,4.415506411743164,7.25263537902832,-1.1858780097961426
1759654467971518700,2.765518798828125,4.582651615142822,7.022193469238281,-1.0446201118469238
1759654467981601800,2.775601806640625,4.862324296569824,6.917147871398925,-1.0333972915649414
1759654467991684600,2.7856845703125,5.0297687751770015,7.096264083099364,-1.3441945945739746
1759654468001767700,2.795767578125,5.037998843383789,7.602787371826172,-2.00454533996582
1759654468011850500,2.8058505859375,4.9251720901489255,8.069955970764159,-2.8898014038085935
1759654468021934800,2.815934814453125,4.8521489395141595,8.211064231109619,-3.6750995483398436
1759654468032017700,2.826017578125,4.96108511505127,7.945307846832275,-4.0538323234558105
1759654468042100700,2.836100830078125,5.282955600738525,7.413944715881347,-3.920505218505859
1759654468052183600,2.84618359375,5.711368060302734,6.893505130004883,-3.514538399505615
1759654468062266600,2.8562666015625,6.1644707244873045,6.592583908843994,-3.1815947311401365
1759654468072349700,2.866349609375,6.442048479461669,6.437110438537597,-2.9855694702148434
1759654468082432800,2.876432861328125,6.3700727920532225,6.350769541168212,-3.025073797607422
1759654468092515600,2.886515625,6.1839236129760735,6.2490159706115715,-3.247884189605713
1759654468102599700,2.896599609375,6.114641402435303,6.130802263641357,-3.4862568923950192
1759654468112682500,2.9066826171875,6.182576874542236,6.082170042419433,-3.6031238609313965
1759654468122765800,2.916765869140625,6.385485465240478,6.066308456420898,-3.5564369285583495
1759654468132848600,2.9268486328125,6.47362201385498,6.137087042999267,-3.3789667304992674
1759654468142931700,2.936931640625,6.477662229156493,6.276848564910888,-3.112162882995605
1759654468153014800,2.947014892578125,6.4225955909729,6.409128206634521,-2.8622680847167965
1759654468163097600,2.95709765625,6.343886211395263,6.631340048217773,-2.6440964584350586
1759654468173180700,2.9671806640625,6.320692382812499,6.836942115783691,-2.4603414810180664
1759654468183263700,2.977263671875,6.368127503204345,7.043292371368408,-2.3261165504455565
1759654468193347600,2.98734765625,6.348973889923095,7.190535773468017,-2.3081600379943845
1759654468203430700,2.9974306640625,6.2216322891235345,7.2717889923095695,-2.3587375480651853
1759654468213513700,3.007513671875,6.213102945709228,7.37354256286621,-2.440738954925537
1759654468223596500,3.017596435546875,6.23090982055664,7.43100340270996,-2.506579500579834
1759654468233680000,3.027679931640625,6.21848989944458,7.538592839813232,-2.468122636413574
1759654468243762700,3.0377626953125,6.255899300384521,7.599794619750976,-2.42592483215332
1759654468253845800,3.047845703125,6.23090982055664,7.6467808273315425,-2.34302559967041
1759654468263928600,3.057928466796875,6.233902572631836,7.6182000450134275,-2.3000796073913574
1759654468274012700,3.0680126953125,6.220584825897216,7.528118207550048,-2.261473105621338
1759654468284095700,3.078095703125,6.142623634338379,7.5254247306823725,-2.2303484840393066
1759654468294178800,3.0881787109375,6.174795719146728,7.513004809570312,-2.241421666717529
1759654468304261600,3.09826171875,6.2015808502197265,7.462876212310791,-2.3415292236328122
1759654468314344700,3.1083447265625,6.164620362091064,7.449259190368652,-2.4166473007202147
1759654468324427500,3.118427490234375,6.164321086883545,7.388356685638428,-2.543539988708496
1759654468334510600,3.128510498046875,6.200084474182129,7.230638651275634,-2.6412533439636228
1759654468344593700,3.13859375,6.23779315032959,7.119457911682129,-2.6759692680358884
1759654468354677800,3.148677734375,6.275352188873291,6.987926457977294,-2.6918308540344236
1759654468364760600,3.158760498046875,6.270563785552978,6.876895355987548,-2.7144261322021483
1759654468374843600,3.16884375,6.289268486022949,6.791153009033203,-2.7035025871276854
1759654468384926500,3.178926513671875,6.307224998474121,6.69733023147583,-2.6843489738464354
1759654468395009800,3.189009765625,6.363788012695312,6.641216130065917,-2.649034499359131
1759654468405092600,3.199092529296875,6.424391242218017,6.558466535186767,-2.6657939109802244
1759654468415175700,3.20917578125,6.424091967010497,6.517316194152832,-2.71337866897583
1759654468425258800,3.2192587890625,6.414814435577393,6.4448915939331055,-2.784157255554199
1759654468435342800,3.2293427734375,6.429778195953369,6.373215181732177,-2.7310359062194824
1759654468445425700,3.23942578125,6.471976000213623,6.321290933227539,-2.5285762283325193
1759654468455508700,3.2495087890625,6.527042638397217,6.299892755889892,-2.279878530883789
1759654468465591600,3.259591552734375,6.602908903503417,6.30737463607788,-2.161066273498535
1759654468475674600,3.269674560546875,6.672640026855468,6.398803211975097,-2.192939083099365
1759654468485757700,3.2797578125,6.694038204193115,6.487987223815917,-2.370409281158447
1759654468495840800,3.2898408203125,6.720972972869872,6.531681404113769,-2.5381530349731443
1759654468505923800,3.299923828125,6.711246528625488,6.556072333526611,-2.627187409210205
1759654468516007700,3.310007568359375,6.683563571929931,6.564152764129639,-2.684797886657715
1759654468526090500,3.320090576171875,6.698676969909668,6.566995878601074,-2.701108385467529
1759654468536173600,3.330173583984375,6.682965021514892,6.623708530426025,-2.7358243095397947
1759654468546257000,3.3402568359375,6.659621555328369,6.715137106323242,-2.7718869720458983
1759654468556339700,3.350339599609375,6.617872663879394,6.815095025634765,-2.823811220550537
1759654468566422800,3.3604228515625,6.569838993072509,6.911162367248535,-2.8981811096191405
1759654468576505600,3.370505615234375,6.52479807434082,6.996904714202881,-2.977189764404297
1759654468586589700,3.380589599609375,6.472724188232421,7.021594918823242,-3.0270190864562987
1759654468596672800,3.3906728515625,6.440851378631591,7.034014839935303,-3.0397382827758785
1759654468606755800,3.400755859375,6.368127503204345,7.044339834594727,-2.9952959144592284
1759654468616838700,3.410838623046875,6.354360843658447,7.061548159027099,-2.937984712219238
1759654468626921700,3.420921630859375,6.331765565490723,7.063643085479736,-2.9493571701049803
1759654468637004500,3.431004638671875,6.278793853759765,7.087884377288818,-3.0437784980773923
1759654468647087600,3.441087646484375,6.239139888763427,7.089081478118896,-3.159598003387451
1759654468657170700,3.451170654296875,6.1653685501098625,7.109731467437744,-3.245041075134277
1759654468667254800,3.4612548828125,6.138134506225586,7.151330721282958,-3.3016040893554686
1759654468677337600,3.471337646484375,6.072443598175049,7.190086860656738,-3.279008811187744
1759654468687420700,3.481420654296875,6.092943949890136,7.20789373550415,-3.124582804107666
1759654468697503500,3.49150341796875,6.174047531127929,7.216722354125976,-2.919579286956787
1759654468707587000,3.501587158203125,6.235398948669433,7.2626610984802245,-2.7404630752563475
1759654468717670000,3.511669921875,6.309319924926758,7.278373046874999,-2.7085902656555176
1759654468727753000,3.5217529296875,6.360346347808838,7.2158245285034175,-2.8130373130798336
1759654468737835800,3.531835693359375,6.386084015655517,7.1680901329040525,-2.910152117919922
1759654468747920100,3.541920166015625,6.417956825256347,7.132775658416747,-2.9478607940673824
1759654468758003000,3.5520029296875,6.504596997833252,7.1112278434753415,-2.950254995727539
1759654468768086000,3.5620859375,6.570587181091308,7.097610821533203,-2.972401361083984
1759654468778168800,3.5721689453125,6.618471214294433,7.087585102081299,-3.00068286819458
1759654468788252000,3.582251953125,6.568492254638672,7.056909393310547,-3.034650604248047
1759654468798334700,3.592334716796875,6.476315490722656,7.03536157836914,-3.049913639831543
1759654468808418000,3.60241796875,6.401197413635254,7.027131510162353,-3.035698067474365
1759654468818501000,3.612501220703125,6.303334420776367,7.066037287139892,-3.0258219856262207
1759654468828585000,3.6225849609375,6.252906548309326,7.111676756286621,-2.9721020858764646
1759654468838667800,3.632667724609375,6.190358029937744,7.100902848815918,-2.858676782226562
1759654468848750800,3.642750732421875,6.1756935447692864,7.064241635894775,-2.7808652282714843
1759654468858834000,3.652833984375,6.168660577392577,7.007379346466064,-2.7201123611450195
1759654468868917000,3.6629169921875,6.08411533126831,6.995557975769042,-2.6206033546447753
1759654468879000000,3.673,6.087706633758544,6.889165639495849,-2.5602994003295896
1759654468889083000,3.683082763671875,5.959018294525146,6.854748990631103,-2.4441806198120117
1759654468899166000,3.693166015625,5.910086798095703,6.860584857177734,-2.358587910461426
1759654468909250000,3.70325,5.870732108306885,6.881384484100342,-2.3319524169921872
1759654468919332900,3.713332763671875,5.800252796936035,6.927622503662109,-2.326415825653076
1759654468929416000,3.723416015625,5.740996305847168,6.987178269958496,-2.3573908096313474
1759654468939499000,3.7334990234375,5.703287629699707,7.078008295440673,-2.410661796569824
1759654468949581800,3.743581787109375,5.673659384155273,7.152078909301758,-2.4727614021301267
1759654468959665000,3.753664794921875,5.646574977874756,7.236923430633545,-2.5034371109008786
1759654468969748000,3.763748046875,5.677101049041748,7.318924837493896,-2.533813544464111
1759654468979831000,3.7738310546875,5.645527514648437,7.368454884338378,-2.4952070426940915
1759654468989915000,3.783914794921875,5.723339068603515,7.377882053375243,-2.431012510681152
1759654468999998000,3.793998046875,5.77122310180664,7.382371181488037,-2.3006781578063964
1759654469010080800,3.804080810546875,5.884947680664062,7.446715351104736,-2.1945850967407226
1759654469020164000,3.8141640625,6.025307752990722,7.4494088279724116,-2.090886237335205
1759654469030247000,3.824246826171875,6.0434139030456535,7.466916427612304,-2.0323779342651367
1759654469040330000,3.834330078125,6.05867693862915,7.460182735443115,-2.0183119995117185
1759654469050412800,3.844412841796875,6.047753393554687,7.419331669616699,-2.0509329971313477
1759654469060496000,3.854495849609375,6.03982260055542,7.426214999389648,-2.0892402236938477
1759654469070580000,3.864580078125,6.043862815856933,7.4393831085205075,-2.0783166786193847
1759654469080663000,3.8746630859375,6.063914254760742,7.439083833312988,-2.024447141265869
1759654469090745900,3.884745849609375,6.082768592834472,7.460033097839355,-1.982847887420654
1759654469100829000,3.894828857421875,6.076932726287842,7.403021170806884,-2.0522797355651856
1759654469110911700,3.904911865234375,6.066158818817138,7.2237553215026855,-2.1746832954406736
1759654469120994800,3.914994873046875,6.081721129608154,7.287201665496826,-2.07487501373291
1759654469131078000,3.925077880859375,6.050297232818603,7.383119369506836,-2.007238816833496
1759654469141161000,3.935160888671875,6.030096156311035,7.298274848175049,-2.138171720123291
1759654469151244800,3.945244873046875,6.038026949310303,7.304559627532958,-2.236633263397217
1759654469161327900,3.955327880859375,6.010643267822266,7.339425189208984,-2.2673089721679687
1759654469171411000,3.965410888671875,5.95632481765747,7.362918292999267,-2.327164013671875
1759654469181494000,3.975493896484375,5.9579708312988275,7.369352709960937,-2.3473650901794434
1759654469191576800,3.985576904296875,5.980715747070312,7.369951260375976,-2.3630770385742186
1759654469201660000,3.995659912109375,5.974131692504883,7.3663599578857415,-2.3561937088012694
1759654469211743000,4.005742919921875,5.997624796295166,7.361721192169189,-2.27927998046875
1759654469221827000,4.0158271484375,6.012438919067383,7.324162153625488,-2.2144868980407715
1759654469231910000,4.025909912109375,6.0422168022155756,7.34241794128418,-2.1848586524963376
1759654469241993000,4.035992919921875,6.014982758331299,7.408707399749756,-2.149095265197754
1759654469252076000,4.046075927734375,6.010643267822266,7.407959211730956,-2.1772271347045895
1759654469262158800,4.056158935546875,6.005256314086914,7.444620424652099,-2.2233155166625975
1759654469272242000,4.066241943359375,6.019920799255371,7.477241422271728,-2.2477064460754392
1759654469282325000,4.076324951171875,6.010493630218505,7.544727981567382,-2.1900959686279298
1759654469292408000,4.086407958984375,6.010643267822266,7.606079399108887,-2.1279963630676266
1759654469302492000,4.096491943359375,5.963357785034179,7.631517791748046,-2.064849294281006
1759654469312575000,4.106574951171875,5.909937160491943,7.576451153564452,-2.0265420677185055
1759654469322657800,4.11665771484375,5.900509991455078,7.548169646453857,-2.02384859085083
1759654469332741000,4.1267412109375,5.90559766998291,7.538143927001952,-2.0253449668884276
1759654469342824000,4.136823974609375,5.9002107162475586,7.57869571762085,-2.019958013153076
1759654469352907000,4.146906982421875,5.891232460021972,7.592612014770507,-2.0317793838500977
1759654469362989800,4.15698974609375,5.894225212097168,7.566724709320068,-2.034772135925293
1759654469373073000,4.167072998046875,5.870283195495605,7.496395035552978,-1.9970634597778318
1759654469383157000,4.177156982421875,5.8732759475708,7.443273686218261,-1.9672855766296387
1759654469393240000,4.187239990234375,5.900061078643798,7.389254511260986,-1.9711761543273925
1759654469403323000,4.197322998046875,5.902455280303955,7.360524091339111,-1.9747674568176268
1759654469413406000,4.207406005859375,5.915623389434814,7.3934443641662595,-1.9756652824401855
1759654469423488800,4.21748876953125,5.93088642501831,7.435941443634033,-1.964442462158203
1759654469433571800,4.22757177734375,5.907842234039307,7.440430571746826,-1.9702783287048338
1759654469443655000,4.237655029296875,5.941959607696533,7.420079857635498,-1.9904794052124022
1759654469453738000,4.247738037109375,5.9579708312988275,7.397185304260254,-2.021304751586914
1759654469463821800,4.25782177734375,5.966649812316894,7.402721895599365,-2.01127903213501
1759654469473905000,4.26790478515625,5.962011046600342,7.419630944824219,-2.0138228713989257
1759654469483987700,4.27798779296875,5.9771244445800775,7.425915724182128,-2.00469497756958
1759654469494071000,4.288071044921875,5.978022270202636,7.452401580047607,-1.9729718055725096
1759654469504153900,4.29815380859375,5.9868508888244625,7.457638896179199,-1.886630908203125
1759654469514237000,4.30823681640625,6.017227322387695,7.423521522521972,-1.8846856193542478
1759654469524320000,4.318320068359375,6.025756665802001,7.420678408050537,-1.9026421318054199
1759654469534402800,4.32840283203125,6.017526597595214,7.425466811370849,-1.9693805030822753
1759654469544487000,4.33848681640625,5.959616844940185,7.479635623931884,-2.0150199722290036
1759654469554570000,4.348570068359375,5.931484975433349,7.506121479797363,-2.006490628814697
1759654469564652800,4.35865283203125,5.876418337249755,7.509263869476318,-1.9876362907409666
1759654469574736000,4.36873583984375,5.843946977233887,7.534402986907959,-1.955464205932617
1759654469584819000,4.37881884765625,5.84753827972412,7.568071447753906,-1.9170073417663573
1759654469594902000,4.388902099609375,5.832275244140624,7.567023984527587,-1.8951602516174315
1759654469604985000,4.398985107421875,5.853224508666992,7.5348518997192375,-1.9047370582580565
1759654469615068000,4.40906787109375,5.9302878746032714,7.53320588607788,-1.9162591537475584
1759654469625152000,4.419152099609375,5.969941839599609,7.5080667686462395,-1.976563108062744
1759654469635234800,4.42923486328125,5.98191284790039,7.505223654174804,-2.025195329284668
1759654469645318100,4.439318115234375,5.954828441619873,7.54008921585083,-2.0796634170532227
1759654469655401000,4.44940087890625,5.936273378753662,7.527669294738769,-2.0860978340148923
1759654469665484000,4.459484130859375,5.919065054321289,7.562684494018554,-2.0292355445861814
1759654469675566800,4.46956689453125,5.960813945770263,7.545476169586181,-1.9653402877807615
1759654469685650000,4.47964990234375,5.967547637939453,7.47604432144165,-1.9662381134033202
1759654469695732700,4.489732666015625,5.93103606262207,7.4214265960693355,-2.024447141265869
1759654469705816600,4.499816650390625,5.683236190795898,7.27193862991333,-2.2897546127319335
1759654469715899400,4.5098994140625,6.113294664001464,7.45733962097168,-2.054973212432861
1759654469725982500,4.519982421875,5.6681227928161615,7.728632596588135,-1.8460791175842284
1759654469736065500,4.5300654296875,5.655104321289063,7.691372833251953,-1.8552070114135741
1759654469746148600,4.540148681640625,5.966649812316894,7.510311332702636,-1.923591396331787
1759654469756231400,4.5502314453125,6.067954470062255,7.332990772247314,-1.8285715179443358
1759654469766314500,4.560314453125,6.113593939208984,7.336432437133789,-1.6392799491882324
1759654469776397600,4.5703974609375,6.189310566711425,7.5433812431335445,-1.5509937629699706
1759654469786481700,4.580481689453125,6.293308701324462,7.69945326385498,-1.5976806953430174
1759654469796564500,4.590564453125,6.247818869781494,7.702146740722656,-1.7553987297058105
1759654469806647600,4.6006474609375,6.229263806915283,7.657554734802246,-1.8351555725097655
