time,seconds_elapsed,z,y,x
1758278532648527600,289.01052758789064,3.379864556121826,7.977180656433105,0.9081506172180176
1758278532658611500,289.02061157226564,3.095852384185791,8.49672241668701,0.7311293319702148
1758278532668695800,289.03069580078125,2.693327230072021,9.432256715393066,0.6277297477722168
1758278532678780700,289.04078076171874,2.177526409912109,10.588955392456054,0.66394204788208
1758278532688864800,289.05086474609374,1.6537947967529296,11.73517943725586,0.8301894256591796
1758278532698948600,289.06094848632813,1.0609306106567382,12.74194123535156,1.0966939979553223
1758278532709033700,289.0710336914062,0.4981435829162597,13.536217636108397,1.4380173721313476
1758278532719117600,289.08111767578123,0.0556651885986328,14.094066622924805,1.830965719604492
1758278532729201700,289.09120166015623,-0.3194762840270996,14.282610003662109,2.2129905220031736
1758278532739286800,289.1012868652344,-0.4897638771057128,13.939191703033446,2.5397990486145017
1758278532749370600,289.1113706054688,-0.3308487419128418,13.288268126678464,2.748094593048096
1758278532759454700,289.1214548339844,-0.0920271263122558,12.772916219329831,2.6493337745666503
1758278532769539600,289.13153955078127,0.033818098449707,12.15446400299072,2.307860762786865
1758278532779623700,289.1416237792969,0.1333271049499511,11.55546467514038,2.134730055236816
1758278532789708500,289.15170849609376,0.1912368576049804,10.874613578033449,2.0322282966613767
1758278532799792600,289.16179272460937,0.2651578338623047,10.198999797058104,2.068590234375
1758278532809876700,289.1718767089844,0.4326023124694824,9.671527243804931,2.0979192047119137
1758278532819961600,289.18196166992186,0.3148375183105468,9.07836378250122,2.0479402450561524
1758278532830045700,289.19204565429686,0.1523310806274413,8.51063871383667,2.015468885040283
1758278532840129500,289.20212963867186,-0.1426046363830566,8.032845845031737,2.035819599151611
1758278532850214700,289.2122145996093,-0.1599625984191894,7.813028205108642,2.197428211212158
1758278532860298800,289.222298828125,0.0327706352233886,7.767538373565674,2.4060230308532717
1758278532870382600,289.23238256835936,-0.021697452545166,7.612214540863037,2.4328081619262694
1758278532880467700,289.2424677734375,-0.2114379341125488,7.505373291778564,2.4392425788879395
1758278532890551600,289.25255151367185,-0.2977788314819335,7.42486826095581,2.450914311981201
1758278532900635600,289.2626357421875,-0.3519476440429687,7.332242584228515,2.4753052413940426
1758278532910720500,289.2727204589844,-0.3700537940979003,7.295282096099853,2.512714642333984
1758278532920804900,289.2828049316406,-0.2337339370727539,7.342866854095458,2.6044424934387207
1758278532930888700,289.292888671875,-0.1686415794372558,7.44357296142578,2.668038475036621
1758278532940973800,289.3029738769531,-0.0445920059204101,7.780257569885253,2.7647043670654297
1758278532951057700,289.3130576171875,-0.1152209548950195,8.230666757202147,2.906411177825928
1758278532961141500,289.3231416015625,-0.2460042205810546,8.731503816986084,3.178153066253662
1758278532971226600,289.3332265625,-0.3350385948181152,9.265261149597167,3.5998318336486816
1758278532981310700,289.3433107910156,-0.3118447662353515,9.797971018981931,4.021959513854981
1758278532991394800,289.3533947753906,-0.2238578552246093,10.18957262802124,4.312106827545166
1758278533001479700,289.36347973632815,-0.0706289489746093,10.378714559173584,4.290409374999999
1758278533011563500,289.3735634765625,0.069581485748291,10.352976891326904,4.039467113494873
1758278533021647600,289.38364770507815,0.1681926666259765,10.051756394958495,3.698293376922608
1758278533031732500,289.393732421875,0.289848038482666,9.520243626403808,3.3807623817443844
1758278533041816800,289.40381689453125,0.6138134506225585,8.96927796936035,2.979434328460693
1758278533051901700,289.41390161132813,0.7689876457214355,8.380154723358153,2.64289935760498
1758278533061985800,289.42398583984374,0.6394014808654784,7.838316960144042,2.7042507751464844
1758278533072069600,289.43406958007813,1.0607809730529785,7.66758045425415,2.9040169761657717
1758278533082154800,289.44415478515623,1.739088230895996,7.858368399047851,3.1352070739746094
1758278533092238600,289.4542385253906,2.167500690460205,8.169165702056885,3.471143494415283
1758278533102322700,289.46432275390623,2.272247013092041,8.581566938018799,3.8136639694213854
1758278533112407800,289.4744077148438,2.1603180854797364,9.19283654937744,4.0164229225158685
1758278533122491600,289.4844916992187,2.0437503921508786,9.833734406280517,3.988590328216553
1758278533132575700,289.4945756835937,1.9208979194641111,10.421361276245117,3.801842598724365
1758278533142660600,289.50466064453127,1.815702684020996,10.966341429138184,3.623773850250244
1758278533152744400,289.5147443847656,1.7548001792907717,11.633725141906735,3.6782419380187994
1758278533162828800,289.5248288574219,1.7721581413269043,12.503418894958497,4.0988732421875
1758278533172913700,289.5349135742188,1.837400136566162,13.110797928619384,4.658068967437744
1758278533182997800,289.5449978027344,1.9865888275146484,12.906692237091065,5.010764799499511
1758278533193081600,289.5550815429688,2.2711995498657225,12.051064418792723,4.962731128692627
1758278533203166700,289.56516674804686,2.645592834472656,11.154884809875488,4.4196962646484375
1758278533213250600,289.57525048828126,2.9608792655944822,10.570400329589845,3.703829968261719
1758278533223334700,289.58533471679686,3.0048727210998534,10.260949765014647,3.08343246307373
1758278533233419800,289.5954196777344,2.743455827331543,10.13181251296997,2.681954772186279
1758278533243503600,289.60550366210936,2.3362919075012205,10.162338584136965,2.4622867698669437
1758278533253587700,289.6155876464844,1.8773533767700197,10.371980867004394,2.359036823272705
1758278533263672600,289.62567260742185,1.3239935180664062,10.632799210357666,2.2761375907897947
1758278533273756700,289.63575659179685,0.7643488800048828,10.78902086868286,2.283020920562744
1758278533283840800,289.6458408203125,0.1957259857177734,10.714950254821776,2.4836849472045897
1758278533293926000,289.65592578125,-0.3721487205505371,10.523713397216795,2.748543505859375
1758278533304009700,289.666009765625,-0.734870272064209,10.299406629180908,3.020584669494629
1758278533314093600,289.6760935058594,-0.9964368034362792,10.07300493469238,3.1304186706542967
1758278533324178700,289.6861787109375,-1.028758525848389,9.829694190979003,3.0731074684143063
1758278533334262500,289.6962624511719,-0.8189666053771972,9.511115732574462,2.822314844512939
1758278533344347000,289.7063469238281,-0.5172971961975097,9.157222799682616,2.49625450592041
1758278533354431700,289.716431640625,-0.2436100189208984,8.844480207824706,2.2195745765686032
1758278533364515600,289.726515625,-0.2247556808471679,8.549544490814208,1.883937431335449
1758278533374599700,289.736599609375,-0.3398269981384277,8.335861992645263,1.5327379753112793
1758278533384684500,289.7466845703125,-0.5023334358215332,8.16467657394409,1.1276689819335937
1758278533394768600,289.7567685546875,-0.4969464820861816,8.020725199127197,0.5699696327209473
1758278533404852700,289.76685278320315,-0.3440168510437011,7.89757345123291,-0.1116296524047851
1758278533414937900,289.77693774414064,-0.1619078872680664,7.817966246032714,-0.7104793426513671
1758278533425021700,289.78702172851564,0.0770633659362793,8.009352741241454,-1.1634323692321775
1758278533435106800,289.79710693359374,0.3938461730957031,8.39616594696045,-1.3067851936340331
1758278533445191200,289.80719116210935,0.755220986175537,8.717737157440185,-1.056591120147705
1758278533455275000,289.81727490234374,1.0326491035461425,8.955810585021972,-0.5012859725952148
1758278533465360100,289.8273601074219,1.2822446266174317,9.159018450927734,0.1243488487243652
1758278533475444000,289.83744384765623,1.569249550628662,9.34037922668457,0.5410895751953124
1758278533485528300,289.8475283203125,1.7612345962524414,9.507075517272948,0.7909843734741211
1758278533495613200,289.85761328125,1.7910124794006346,9.770587337493897,1.0434230110168456
1758278533505697300,289.867697265625,1.7051204948425291,10.066420880126952,1.401356159210205
1758278533515781000,289.8777810058594,1.4585177238464355,10.359261670684814,2.016665985870361
1758278533525866000,289.8878659667969,1.1773486663818358,10.531644190216063,2.7653029174804686
1758278533535950000,289.8979501953125,1.1605892547607422,10.570400329589845,3.752013276672363
1758278533546034200,289.9080341796875,1.399410870361328,10.467000745391845,4.817732290649414
1758278533556119300,289.91811938476565,1.7515081520080564,10.22743094177246,5.634454331970215
1758278533566203100,289.928203125,2.1637597503662107,9.909899946594235,5.84828646774292
1758278533576287000,289.9382868652344,2.5273791275024413,9.482235675048829,5.504119979095458
1758278533586372000,289.9483720703125,2.7814637786865237,9.033472501373293,4.865167411041259
1758278533596456000,289.9584560546875,2.8854619132995603,8.52844558868408,4.067449345397949
1758278533606540300,289.96854028320314,2.7064953392028808,8.042721926879882,3.1159038230895995
1758278533616625200,289.97862524414063,2.291400626373291,7.678952912139892,2.2610241928100585
1758278533626709200,289.98870922851563,1.8508675209045409,7.429207751464843,1.5560814414978026
1758278533636793000,289.99879296875,1.6048633003234862,7.33553461151123,0.8728361427307129
1758278533646878200,290.0088781738281,1.4598644622802734,7.396287478637695,0.2477998718261718
1758278533656962000,290.0189621582031,1.366939510345459,7.543231605529785,-0.2418143676757812
1758278533667046100,290.0290461425781,1.2981062126159668,7.787589812469482,-0.5568015235900878
1758278533677131300,290.0391313476562,1.2382511711120603,8.065017929840087,-0.6929717430114746
1758278533687215000,290.0492150878906,1.1908160507202148,8.460360478973389,-0.6197989547729492
1758278533697299200,290.0592993164062,1.2045827102661133,9.013271424865724,-0.3067570877075195
1758278533707384000,290.0693840332031,1.3420996681213375,9.689633393859864,0.1865980918884277
1758278533717468200,290.0794682617188,1.6083049652099608,10.321104081726071,0.776319888305664
1758278533727552300,290.0895522460938,1.9846435386657717,10.8156563621521,1.3506290115356443
1758278533737637000,290.09963720703126,2.4521114128112798,10.98744033126831,1.8508675209045409
1758278533747721200,290.10972119140627,2.9608792655944822,10.82852519607544,2.1930887207031247
1758278533757805000,290.11980517578127,3.4668040039062498,10.345644648742676,2.407968319702148
1758278533767890200,290.1298901367188,3.878905964660644,9.63441711807251,2.4135049110412594
1758278533777974000,290.13997412109376,4.189852905273438,8.865429472351074,2.231096672058105
1758278533788058000,290.1500581054688,4.354603907012939,8.278850065612792,1.8810943168640133
1758278533798143200,290.16014331054686,4.415356774139404,7.99947665939331,1.437718096923828
1758278533808227000,290.17022705078125,4.410568370819092,8.16587367477417,0.9645639938354492
1758278533818311200,290.18031127929686,4.198980799102783,8.877400480651856,0.5159504577636719
1758278533828396000,290.19039599609374,3.7247792327880855,10.097994414520263,0.0125695587158203
1758278533838480100,290.2004802246093,3.028066549682617,11.599607768249513,-0.4997895965576172
1758278533848564200,290.21056420898435,2.2168810997009274,13.032836737060546,-1.035492218017578
1758278533858649300,290.2206494140625,1.470788007354736,14.140454280090331,-1.504755743408203
1758278533868733200,290.2307331542969,0.7998129920959473,14.77222424316406,-1.7796400215148924
1758278533878817000,290.2408171386719,0.3317465675354004,14.961515811920163,-1.6461632789611815
1758278533888902100,290.2509020996094,0.1182137069702148,14.756661932373046,-1.2675801414489745
1758278533898986000,290.2609860839844,0.1439513748168945,14.368501988220212,-0.7820061172485351
1758278533909070300,290.2710703125,0.0781108291625976,13.96852067337036,-0.3731961837768554
1758278533919155200,290.2811552734375,0.1221042846679687,13.503447000885007,0.1892915687561035
1758278533929239000,290.2912390136719,0.4254197074890136,12.917166869354247,0.9507973342895508
1758278533939323100,290.3013232421875,0.9196727127075196,12.249633518981932,1.753154165649414
1758278533949408000,290.3114079589844,1.8474258560180663,11.626991449737549,2.4808418327331543
1758278533959492000,290.3214921875,2.569277656555176,11.04609827194214,2.727294966125488
1758278533969576200,290.331576171875,2.527528765106201,10.499172830200196,2.672377965545654
1758278533979661300,290.34166137695314,2.0834043571472165,9.784503634643556,2.583343591308594
1758278533989745200,290.3517451171875,1.261444999694824,8.692747677612305,2.300229244995117
1758278533999829000,290.3618291015625,0.3736450965881347,7.527220381927489,1.9800047729492187
1758278534009914000,290.3719140625,-0.3959410995483398,6.675183866119385,1.884535981750488
1758278534019998000,290.381998046875,-1.0378864196777342,6.170156953430175,1.8148048583984373
1758278534030082300,290.39208227539064,-1.4465467155456542,5.934777002716064,1.8267758666992189
1758278534040167200,290.4021672363281,-1.617732134246826,5.953182427978516,1.946485949707031
1758278534050251300,290.4122512207031,-1.8204910873413085,6.088305184173584,2.026392430114746
1758278534060335000,290.4223352050781,-2.052579010772705,6.243329741668701,2.1089923873901366
1758278534070420200,290.4324201660156,-2.046294231414795,6.421398490142822,2.1440075866699217
1758278534080504000,290.4425041503906,-1.828721155548096,6.598719050598144,2.2029648025512696
1758278534090588200,290.4525881347656,-1.6187795974731445,6.828263134765624,2.294991928863525
1758278534100673300,290.4626733398438,-1.6285060417175292,7.226598435974121,2.456750178527832
1758278534110757000,290.4727570800781,-1.7356465660095213,7.688679356384277,2.677016731262207
1758278534120841200,290.4828413085938,-1.7649755363464354,8.244882329559326,3.012055326080322
1758278534130926000,290.4929260253906,-1.742380258178711,9.061754008483886,3.545812658691406
1758278534141010000,290.5030100097656,-1.7618331466674804,10.114155275726318,4.204816665649414
1758278534151094300,290.51309423828127,-1.806125877380371,11.047145735168456,4.90946014175415
1758278534161179100,290.5231791992188,-1.728912873840332,11.724106254577636,5.494094259643554
1758278534171263200,290.53326318359376,-1.307383744049072,11.847407640075684,5.814318731689453
1758278534181347000,290.5433471679688,-0.4088099334716796,11.187805082702637,5.72663109588623
1758278534191432200,290.55343212890625,0.6449380722045898,10.20229182434082,5.223848747253418
1758278534201516000,290.56351611328125,1.3404536544799803,9.342623790740966,4.658068967437744
1758278534211600100,290.57360009765625,1.645864003753662,8.636783213806153,4.30941335067749
1758278534221685200,290.58368530273435,1.8019360244750973,8.16557439956665,4.142717060089111
1758278534231769000,290.59376904296874,1.605012937927246,8.021623024749756,4.102165269470214
1758278534241853200,290.60385327148435,1.0564414825439452,7.994837893676757,4.313303928375244
1758278534251938000,290.61393798828124,0.8405144203186035,8.029404180145264,4.657769692230224
1758278534262022100,290.6240222167969,1.087266828918457,8.365490238189697,4.937891286468505
1758278534272106200,290.6341062011719,1.464652865600586,8.83610050201416,5.029319862365722
1758278534282191000,290.6441911621094,1.7440262718200683,9.312396994781494,4.769399344635009
1758278534292275200,290.6542751464844,1.895010614013672,9.88910031967163,4.396502436065673
1758278534302359000,290.6643591308594,1.8869301834106444,10.536432593536375,4.145260899353027
1758278534312444200,290.6744440917969,1.794603781890869,11.315146683502196,4.071938473510742
1758278534322528000,290.6845280761719,1.7206828056335448,12.203096224212644,4.276792353057861
1758278534332612000,290.6946120605469,1.6071078643798826,12.854319075775146,4.678718956756591
1758278534342697200,290.704697265625,1.5729904907226562,12.839804228210449,4.976198513031005
1758278534352781000,290.7147810058594,1.7253215713500976,12.1303723487854,4.879083708190918
1758278534362865200,290.724865234375,2.0169652610778805,11.296890895843504,4.439897341156006
1758278534372950000,290.73494995117187,2.369960368347168,10.708366200256346,3.877409588623047
1758278534383034000,290.7450341796875,2.5357588333129883,10.432733734130858,3.3545758010864257
1758278534393118200,290.7551181640625,2.5164555824279784,10.371681591796875,3.060088996887207
1758278534403203300,290.76520336914064,2.353799507141113,10.433332284545898,2.9505542709350583
1758278534413287200,290.775287109375,2.0778677658081053,10.535534767913818,2.8371289672851563
1758278534423371000,290.78537109375,1.4775216995239258,10.61708726196289,2.750488794708252
1758278534433456000,290.7954560546875,0.9029133010864258,10.659883616638185,2.815880427551269
1758278534443540200,290.8055402832032,0.3878606689453124,10.619631101226808,3.1120132453918457
1758278534453623600,290.81562353515625,-0.0269347686767578,10.42495257873535,3.58127677078247
1758278534463708700,290.82570874023435,-0.2623147193908691,10.256310999298096,4.094384114074707
1758278534473792500,290.83579248046874,-0.3634697395324707,9.969754988098144,4.468478123474121
1758278534483876400,290.84587646484374,-0.189590843963623,9.612420390319825,4.6857519241333
1758278534493961500,290.85596142578123,-0.0182557876586914,9.100809423065185,4.663306283569336
1758278534504045600,290.8660456542969,0.0923264015197753,8.500463356781005,4.333953917694092
1758278534514129700,290.8761296386719,-0.0550666381835937,7.914781775665283,3.851971195983887
1758278534524214500,290.8862145996094,-0.2801215942382812,7.448660639953613,3.375973978424072
1758278534534298400,290.8962983398437,-0.586729044342041,7.058106494140625,2.907757916259765
1758278534544382500,290.9063825683594,-0.8635586112976074,6.768707368469238,2.459294017791748
1758278534554467300,290.9164672851563,-0.9335890098571776,6.617274113464355,1.919850456237793
1758278534564551700,290.9265517578125,-0.9172785110473632,6.5758244972229,1.2000935821533203
1758278534574635500,290.9366354980469,-0.7294833183288574,6.6784758934021,0.3386298973083496
1758278534584720600,290.946720703125,-0.5838859298706054,7.004087319183349,-0.6561608924865723
1758278534594804500,290.9568044433594,-0.4101566719055176,7.441328397369384,-1.7604864082336424
1758278534604888300,290.9668884277344,0.041449616241455,8.168267876434326,-2.4000375267028806
1758278534614973400,290.97697338867187,0.1975216369628906,8.870816426086424,-2.6822540473937986
1758278534625057500,290.9870576171875,0.4770446807861327,9.561992517852785,-2.514211018371582
1758278534635141600,290.9971416015625,0.7568669998168945,10.229226593017575,-2.04285256652832
1758278534645226500,291.0072265625,0.8520365158081055,10.719888295745848,-1.5740379539489746
1758278534655310600,291.017310546875,0.7845499565124511,11.122862362670896,-1.0588356842041016
1758278534665394400,291.02739453125,0.6480804618835448,11.4668792137146,-0.445620783996582
1758278534675479300,291.03747924804685,0.4785410568237304,11.80491056060791,0.2811690574645996
1758278534685563600,291.0475637207031,0.3152864311218261,12.134861476898193,1.1213842025756835
1758278534695647500,291.0576474609375,0.2192190895080566,12.312481312561037,2.0753239265441894
1758278534705732600,291.0677326660156,0.2813186950683594,12.320711380767822,3.201646170043945
1758278534715816400,291.07781640625,0.5506663818359374,12.183044785308836,4.43032053451538
1758278534725900300,291.087900390625,0.9112930068969726,11.83513735656738,5.629067378234863
1758278534735985400,291.0979853515625,1.433827519226074,11.340136163330078,6.395960097503662
1758278534746069500,291.1080695800781,2.089389861297607,10.814010348510742,6.625504181671142
1758278534756153600,291.1181535644531,2.6259903083801266,10.321104081726071,6.54395168762207
1758278534766238500,291.1282385253906,2.9439702163696286,9.86411083984375,6.296301453399658
1758278534776322600,291.1383225097656,3.1268273681640624,9.377788627624511,5.73920065460205
1758278534786406400,291.1484064941406,2.999336129760742,8.806771531677246,5.015702840423583
1758278534796491500,291.1584914550781,2.752434083557129,8.178742508697509,4.075080863189697
1758278534806575600,291.16857568359376,2.3994389762878416,7.64827720336914,2.980781066894531
1758278534816659500,291.1786594238281,1.9506758026123048,7.321618314361571,1.8573019378662108
1758278534826744600,291.18874462890625,1.6753426116943355,7.193827800750732,0.7703343841552734
1758278534836828400,291.19882836914064,1.483058290863037,7.272836455535888,-0.1882441055297851
1758278534846912500,291.20891259765625,1.171363162231445,7.6193971458435055,-0.8640075241088867
1758278534856997400,291.21899731445313,1.0184335311889647,8.142230933380127,-1.3887866004943847
1758278534867081500,291.22908154296874,0.8635586112976074,8.79120922088623,-1.7961001579284668
1758278534877165600,291.23916552734374,0.7369651985168456,9.375693701171874,-2.061108354187012
1758278534887250400,291.24925048828123,0.7534253349304199,9.709086282348633,-2.249801372528076
1758278534897334500,291.25933447265623,0.9956886154174804,9.70414824142456,-2.497750881958008
1758278534907418400,291.26941845703124,1.4411597618103027,9.342623790740966,-2.867954313659668
1758278534917503500,291.2795034179687,1.9092261863708493,8.776694373321533,-3.27511823348999
1758278534927587600,291.2895876464844,2.182614088439941,8.142530208587646,-3.5173815139770506
1758278534937671400,291.2996713867187,2.319532495880127,7.620594246673583,-3.5576340293884274
1758278534947756500,291.3097565917969,2.341529223632812,7.258022332763671,-3.423858011627197
1758278534957840400,291.3198403320313,2.303521272277832,7.147589781188964,-3.1356559867858884
1758278534967924500,291.3299245605469,2.206406467437744,7.318775199890136,-2.824260133361816
1758278534978009300,291.34000927734377,2.019359462738037,7.757811929321289,-2.518251233673096
1758278534988093700,291.35009375,1.7124527374267575,8.431929334259033,-2.3042694602966307
1758278534998177500,291.3601774902344,1.283890640258789,9.271845204162595,-2.251148110961914
1758278535008261400,291.3702614746094,0.8613140472412109,10.383054049682617,-2.328510752105713
1758278535018346500,291.38034643554687,0.3438672134399413,11.667243965148923,-2.445826633453369
1758278535028430300,291.39043041992187,-0.2223614791870117,12.911331002807616,-2.477849080657959
1758278535038514700,291.4005146484375,-0.616058014678955,13.944129743957518,-2.248454634094238
1758278535048599600,291.410599609375,-0.8590694831848144,14.58248376159668,-1.6798317398071287
1758278535058683600,291.42068359375,-0.9223661895751952,14.927847351074218,-0.9570821136474608
1758278535068767500,291.430767578125,-0.8167220413208007,15.046509970855713,-0.1880944679260253
1758278535078852400,291.44085229492185,-0.1026513961791992,14.985757103729249,0.8057984962463378
1758278535088936400,291.4509365234375,1.250072541809082,14.831181459045409,1.8607436027526851
1758278535099020500,291.4610205078125,2.656666017150879,14.744990199279783,2.2186767509460448
1758278535109105700,291.4711057128906,3.500023551940918,14.200159683990478,2.0311808334350583
1758278535119189500,291.481189453125,3.2480338272094724,12.98555125427246,1.4776713371276855
1758278535129273300,291.4912734375,2.0822072563171385,11.183315954589844,0.7855974197387695
1758278535139358500,291.5013583984375,0.74055650100708,9.251943402862548,0.5110124168395995
1758278535149442600,291.5114426269531,-0.3757400230407715,7.710676084136963,0.5768529624938965
1758278535159526700,291.5215266113281,-0.9919476753234864,6.774992147827148,0.8271966735839843
1758278535169611500,291.5316115722656,-1.181688156890869,6.357054320526123,1.1840823585510254
1758278535179695600,291.5416955566406,-1.5352818145751952,6.331316652679443,1.5818191093444822
1758278535189779500,291.5517795410156,-1.9770120208740236,6.48649084777832,2.060809078979492
1758278535199864600,291.56186450195315,-2.444030982208252,6.702268272399902,2.5393501358032227
1758278535209948400,291.5719484863281,-2.494309217071533,6.898592808532714,2.805106520080566
1758278535220032500,291.5820324707031,-2.249801372528076,7.094169156646728,2.9146412460327147
1758278535230117600,291.59211767578125,-2.1187188316345216,7.20190823135376,3.1037831771850586
1758278535240201500,291.60220141601565,-1.9008464805603027,7.305008540344238,3.368492098236084
1758278535250285600,291.61228564453126,-1.6521487831115722,7.450157015991211,3.8453871414184566
1758278535260370400,291.62237036132814,-1.579424907684326,7.599644982147216,4.5596074241638185
1758278535270454500,291.63245458984375,-1.5670049865722655,7.856123834991455,5.515342799377441
1758278535280538600,291.64253857421875,-1.4772224243164065,8.266430144500731,6.6133835357666015
1758278535290623500,291.65262353515624,-1.609502066040039,8.879645044708251,7.551760948944091
1758278535300707600,291.66270751953124,-2.2800281684875485,9.528174419403076,8.097339652252197
1758278535310791400,291.67279150390624,-2.910002480316162,9.53760158843994,7.810185090637207
1758278535320876500,291.68287646484373,-2.9206267501831054,8.657433203124999,6.459256803894043
1758278535330960600,291.6929606933594,-2.040458364868164,7.193977438354492,4.96078583984375
1758278535341044500,291.70304443359373,-0.6133645378112793,6.057030924987792,4.209904344177246
1758278535351129600,291.7131296386719,1.1094131942749024,5.661389100646972,4.627991809082031
1758278535361213400,291.7232133789062,2.0301333702087403,5.8731263099670405,5.895721588134765
1758278535371297500,291.7332976074219,1.8403928886413572,5.965003798675537,7.205948446655273
1758278535381381600,291.7433815917969,1.2330138549804688,6.072892510986327,7.457489258575439
1758278535391466500,291.7534665527344,1.601870548248291,6.817788502502441,6.273706175231934
1758278535401550600,291.7635505371094,2.850596351623535,8.040776638031005,4.587739293670654
1758278535411634400,291.7736345214844,3.88189871673584,9.317783948516846,3.3092356071472167
1758278535421719600,291.7837194824219,4.198681523895264,10.229076955413818,2.5369559341430663
1758278535431803400,291.7938034667969,3.924994346618652,10.78946978149414,2.4257751945495603
1758278535441887700,291.8038876953125,3.283946852111816,11.270554677581789,2.8080992721557614
1758278535451972400,291.81397241210936,2.685994987487793,11.727398281860353,3.3075895935058592
1758278535462056200,291.82405615234376,2.3313538665771483,12.164340084838866,3.9035961692810055
1758278535472140000,291.8341401367188,2.178424235534668,12.714707191467284,4.602403778839111
1758278535482225200,291.84422509765625,2.071134073638916,13.154192833709716,5.291335306549072
1758278535492309000,291.85430908203125,2.0485387954711918,13.141024724578855,5.808782140350341
1758278535502393300,291.86439331054686,2.301426345825196,12.503119619750976,5.941361057281494
1758278535512478200,291.87447827148435,2.752434083557129,11.508628105163574,5.506963093566895
1758278535522562300,291.8845622558593,3.1157541854858395,10.587608654022215,4.527584976959228
1758278535532646100,291.89464624023435,3.228431301116943,10.02961002960205,3.384204046630859
1758278535542731300,291.9047312011719,3.020285394287109,9.954342314910887,2.420837153625488
1758278535552815000,291.9148151855469,2.548926942443848,10.25945338897705,1.8996493797302243
1758278535562899200,291.9248991699219,1.9852420890808105,10.820295127868652,1.9590555084228516
1758278535572984300,291.934984375,1.454926421356201,11.44682777481079,2.577806999969482
1758278535583068200,291.9450681152344,0.8839093254089355,11.939434766387938,3.5200749908447264
1758278535593152300,291.95515234375,0.3519476440429687,12.231826644134522,4.485237535095215
1758278535603237000,291.9652370605469,-0.0616506927490234,12.390442504119871,5.339668252563476
1758278535613321200,291.9753212890625,-0.5074211143493652,12.330737100219723,6.00720160293579
1758278535623405300,291.9854052734375,-0.8285434120178222,11.932850711822509,6.408828931427002
1758278535633490200,291.995490234375,-0.9798270294189452,11.080814196014405,6.231957283782958
1758278535643574300,292.00557421875,-1.044470474243164,9.986664037322996,5.46461565170288
1758278535653658000,292.015658203125,-0.9674071083068848,9.0795608833313,4.546588952636719
1758278535663742200,292.0257421875,-0.9513958847045898,8.342745322418212,3.644423839569092
1758278535673827000,292.0358271484375,-1.0896610305786132,7.734318825531005,2.913593782806396
1758278535683911200,292.0459111328125,-1.3239935180664062,7.250839727783203,2.4343045379638677
1758278535693995300,292.05599536132814,-1.4645032279968262,6.8320040748596185,1.9039888702392576
1758278535704080100,292.066080078125,-1.567304261779785,6.529586477661132,1.578227806854248
1758278535714164200,292.07616430664064,-1.8052280517578123,6.207416716766357,1.2346598686218262
1758278535724248000,292.086248046875,-1.9047370582580565,6.010942543029785,0.9612719665527344
1758278535734333200,292.0963332519531,-1.8173486976623532,6.264428643798828,0.8640075241088867
1758278535744417300,292.1064172363281,-1.823483839416504,6.859687031555176,0.5175964714050293
1758278535754501000,292.1165012207031,-1.5028104545593262,6.745812815093994,0.4357447021484374
1758278535764586200,292.1265861816406,-1.615936483001709,6.759878749847411,0.7842506813049316
1758278535774670000,292.1366701660156,-1.8906711235046385,7.732523174285888,0.4710591766357421
1758278535784754200,292.1467541503906,-2.2845172966003418,9.4986958114624,-0.4496609992980956
1758278535794839000,292.1568391113281,-2.301575983428955,11.340884351348876,-1.0347440299987791
1758278535804923400,292.1669233398438,-2.4609400314331054,12.74388652420044,-0.764199242401123
1758278535815007200,292.1770073242188,-2.77712428817749,13.145214577484133,0.4408323806762695
1758278535825092000,292.1870920410156,-2.9308021072387693,12.338817530822752,2.661454420471191
1758278535835176200,292.19717626953127,-2.818274629211426,10.969932731628417,4.827309097290039
1758278535845260000,292.2072600097656,-2.454655252075195,9.85019454269409,6.281337693023681
1758278535855345200,292.21734521484376,-1.9379566062927245,9.290100991821287,7.452102304840087
1758278535865429200,292.2274291992188,-1.1757026527404784,9.095871382141112,8.356511981964111
1758278535875513000,292.23751318359376,-0.1117792900085449,9.06594386138916,9.009979397583008
1758278535885597200,292.2475971679688,1.3121721473693846,9.083301823425291,9.36626653213501
1758278535895682000,292.25768212890625,3.181894006347656,9.063250384521483,9.21213980026245
1758278535905766100,292.26776611328125,4.821173955535889,9.049034812164306,8.4015529006958
1758278535915850200,292.27785034179686,5.729025297546387,9.213336901092529,7.208641923522949
1758278535925935400,292.28793530273435,5.896020863342285,9.468768290710448,5.96275923461914
1758278535936019200,292.2980192871093,5.515193161773682,9.796474642944336,4.476857829284668
1758278535946103000,292.30810302734375,4.918139122772216,10.242394702148436,2.680009483337402
1758278535956188200,292.3181882324219,4.200477175140381,10.83974801635742,0.6919242797851562
1758278535966272000,292.32827197265624,3.496282611846924,11.463736824035644,-1.3940239166259765
1758278535976356400,292.3383564453125,2.89219560546875,12.013206105041505,-3.309983795166016
1758278535986441200,292.3484411621094,2.511367903900146,12.285396906280518,-4.688744676208496
1758278535996525300,292.358525390625,2.185457202911377,12.243199102020265,-5.252728804779053
1758278536006609200,292.3686091308594,1.656039360809326,11.9778916305542,-4.8235681571960445
1758278536016694300,292.3786943359375,1.180341418457031,11.508927380371093,-3.84359149017334
1758278536026778000,292.3887780761719,1.1002853004455566,10.98699141845703,-2.714126856994629
1758278536036862200,292.3988623046875,1.3277344581604005,10.421959826660157,-1.818246523284912
1758278536046947300,292.408947265625,1.687912170410156,9.750236623382568,-1.2675801414489745
1758278536057031200,292.41903125,2.091335150146484,8.998756577301025,-0.9196727127075196
1758278536067115300,292.429115234375,2.418891864776611,8.18412946243286,-0.7538742477416992
1758278536077200100,292.4392001953125,2.6128221992492677,7.453598680877685,-0.6094739601135254
1758278536087284000,292.4492839355469,2.74525147857666,6.898443170928955,-0.3407248237609863
1758278536097368300,292.45936840820315,2.8471546867370603,6.566098052978515,0.0454898315429687
1758278536107452200,292.4694521484375,2.877231845092773,6.556072333526611,0.4477157104492187
1758278536117537300,292.47953735351564,2.787299645233154,6.894702230834961,0.7151181083679199
1758278536127621000,292.48962109375,2.554313896179199,7.540687766265869,0.738012661743164
1758278536137705000,292.499705078125,2.1574749710083005,8.390479718017577,0.4894646018981933
1758278536147790000,292.5097900390625,1.6003741722106932,9.347711469268798,0.0742202514648437
1758278536157874200,292.51987426757813,0.97683427734375,10.38754317779541,-0.3827729904174804
1758278536167958300,292.52995825195313,0.354940396118164,11.406874534606931,-0.7574655502319335
1758278536178043100,292.5400432128906,-0.2029085906982421,12.280309227752683,-0.9913491249084472
1758278536188127200,292.5501271972656,-0.6527192276000976,12.853720525360108,-1.0459668502807618
1758278536198211000,292.5602111816406,-0.8854057014465332,13.11962654724121,-0.9446621925354004
1758278536208296200,292.5702961425781,-0.9364321243286132,12.978368649291992,-0.8038532073974609
1758278536218380300,292.5803803710937,-0.8430582595825195,12.427552629852292,-0.6494272003173828
1758278536228464000,292.5904641113281,-0.6907271789550781,11.621754133605956,-0.5668272430419922
1758278536238549200,292.6005493164063,-0.4363432525634765,10.679785417938232,-0.5071218391418457
1758278536248633000,292.6106330566406,-0.0692822105407714,9.86919851837158,-0.4471171600341797
1758278536258717200,292.6207172851563,0.2255038688659668,9.222614432525637,-0.4694131629943847
1758278536268801300,292.6308012695313,0.4141968872070312,8.687959274291991,-0.3235164993286132
1758278536278886100,292.6408862304688,0.4215291297912597,8.186074751281739,-0.0647930824279785
1758278536288970200,292.65097021484377,0.3239654121398925,7.780407207489013,0.2599205177307129
1758278536299054000,292.6610541992188,0.4748001167297363,7.533804436492919,0.7109282554626465
1758278536309139200,292.67113916015626,0.4972457572937011,7.328501644134521,1.118541088104248
1758278536319223000,292.68122314453126,0.335786782836914,7.095964807891845,1.4199112220764158
1758278536329307100,292.69130712890626,0.1728314323425293,6.921636999511718,1.644517265319824
1758278536339392300,292.7013923339844,0.098311905670166,6.9205895362854,1.9045874206542968
1758278536349476000,292.71147607421875,-0.184503165435791,7.012766300201416,2.053027923583984
1758278536359560200,292.7215603027344,-0.5768529624938965,7.304709265136719,2.2143372604370115
1758278536369645000,292.73164501953124,-1.151610998535156,7.575702965545654,2.2246622550964354
1758278536379729200,292.74172924804685,-1.2222399475097656,8.073098360443115,2.2487539093017577
1758278536389813200,292.75181323242185,-1.089960305786133,8.698284268951415,2.2041619033813475
1758278536399898400,292.7618984375,-1.0072107109069823,9.356540087890624,2.258629991149902
1758278536409982200,292.7719821777344,-1.1150994232177731,10.173262129211423,2.552967157745361
1758278536420066000,292.7820661621094,-1.342698218536377,10.965144328308105,3.152415398406982
1758278536430150100,292.7921501464844,-1.650951682281494,11.69582474746704,4.030039944458007
1758278536440235300,292.8022353515625,-1.4667477920532226,12.060042675018307,4.662109182739258
1758278536450320100,292.8123200683594,-0.6383540176391601,12.076652449035643,4.936245272827148
1758278536460404000,292.8224040527344,-0.0390554145812988,11.451616178131102,5.034257903289794
1758278536470488800,292.83248876953127,0.6030395431518555,10.762535012817382,5.217713605499267
1758278536480573000,292.8425729980469,1.428739840698242,10.257358462524412,5.837362922668457
1758278536490656800,292.85265673828127,1.4474445411682129,9.324966553497314,6.5306339408874505
1758278536500742000,292.86274194335937,0.9279027809143066,8.443750704956054,6.83739102859497
1758278536510826000,292.8728259277344,0.5611410140991211,8.068908507537842,6.81838705291748
1758278536520909800,292.88290991210937,0.7223007133483886,8.15240629043579,6.322338396453857
1758278536530995000,292.89299487304686,1.3371616271972655,8.601319101715088,5.323507391357421
1758278536541078800,292.90307885742186,1.8792986656188964,9.243563697052002,3.973327292633056
1758278536551163000,292.91316284179686,2.14535432510376,10.05564697265625,2.685246799468994
1758278536561247700,292.92324780273435,2.178873148345947,10.918906308746337,1.8365023109436036
1758278536571332000,292.93333203125,2.142660848236084,11.895890223693849,1.6852186935424804
1758278536581416000,292.943416015625,1.9443910232543944,13.022511742401122,2.180369524383545
1758278536591501000,292.9535009765625,1.7868226264953613,13.997550368499756,2.998139028930664
1758278536601585000,292.9635849609375,1.7955016075134276,14.23697053451538,3.6303579048156736
1758278536611668700,292.9736687011719,2.1021090576171875,13.353360484313963,3.564218083953857
1758278536621753000,292.9837531738281,2.704400412750244,12.00198328475952,2.722207287597656
1758278536631838000,292.993837890625,3.376273253631592,11.145158365631104,1.504606105804443
1758278536641922000,293.0039221191406,3.650558981323242,10.958709911346435,0.299424845123291
1758278536652006000,293.014005859375,3.4199674339294432,11.160870314025878,-0.5888239707946777
1758278536662090800,293.0240908203125,2.9432220283508297,11.579257054138182,-1.1213842025756835
1758278536672174800,293.0341748046875,2.4013842651367185,12.023980012512206,-1.322796417236328
1758278536682259000,293.0442590332031,1.7679682884216308,12.363657373046877,-1.243039574432373
1758278536692344000,293.05434399414065,1.2211924842834472,12.451494646453856,-0.8502408645629882
1758278536702428000,293.06442797851565,0.8179191421508789,12.325649421691894,-0.3194762840270996
1758278536712512000,293.0745119628906,0.6248866333007812,12.14907704925537,0.1414075355529785
1758278536722596900,293.08459692382814,0.5451297904968262,11.982231121063233,0.5065232887268066
1758278536732680700,293.0946806640625,0.4644751220703125,11.81059678955078,0.8445546356201171
1758278536742765000,293.10476513671875,0.4258686203002929,11.570278797912597,1.1218331153869627
1758278536752849000,293.11484887695315,0.4578910675048828,11.144110902404783,1.322197866821289
1758278536762934000,293.12493408203125,0.4771943183898925,10.462511617279052,1.4031518104553222
1758278536773017900,293.13501782226564,0.4614823699951171,9.69756418685913,1.3733739273071288
1758278536783101700,293.14510180664064,0.4266168083190917,8.994117811584472,1.3935750038146972
1758278536793186800,293.15518676757813,0.3036146980285644,8.354716330718993,1.4034510856628415
1758278536803271000,293.16527099609374,0.2053027923583984,7.823203562164307,1.4532804077148436
1758278536813355000,293.17535498046874,0.1035492218017578,7.351246559906006,1.5527894142150878
1758278536823440000,293.18543994140623,0.0333691856384277,7.036857954406738,1.5955857688903807
1758278536833524000,293.19552392578123,-0.0061351417541503,6.839635592651367,1.6011223602294922
1758278536843607800,293.20560791015623,-0.1267430503845214,6.771400845336913,1.5346832641601562
1758278536853693000,293.2156928710937,-0.2801215942382812,6.817489227294922,1.3733739273071288
1758278536863777000,293.2257770996094,-0.379181687927246,7.050774251556396,1.1598410667419432
1758278536873860900,293.2358608398437,-0.5006874221801757,7.403170808410644,0.9651625442504882
1758278536883945000,293.2459450683594,-0.5716156463623047,7.839663698577881,0.7716811225891113
1758278536894029800,293.2560297851563,-0.706738402557373,8.362647123718261,0.678007982635498
1758278536904114000,293.2661140136719,-0.8257002975463866,8.89386061706543,0.7305307815551757
1758278536914198000,293.2761979980469,-0.8545803550720215,9.421033895111083,0.9232640151977538
1758278536924283000,293.2862829589844,-0.931494083404541,9.885060104370115,1.2071265495300292
1758278536934367000,293.2963669433594,-0.8604162216186523,10.172663578796389,1.6223708999633788
1758278536944450800,293.3064509277344,-0.6726210289001464,10.326790310668944,2.1142297035217283
1758278536954536000,293.31653588867186,-0.3414730117797851,10.36838956451416,2.5602994003295896
1758278536964619800,293.32661987304687,0.1381155082702636,10.299556266784668,3.005321633911133
1758278536974703900,293.33670385742187,0.7890390846252441,10.024821626281735,3.233668617248535
1758278536984789000,293.3467890625,1.5676035369873047,9.533411735534669,3.359813117218017
1758278536994872800,293.3568728027344,2.5076269638061524,9.00249751739502,3.481468489074707
1758278537004957000,293.36695703125,3.357568553161621,8.553435068511963,3.5996821960449217
1758278537015040800,293.3770407714844,4.017620023345947,8.222137413787841,3.682132515716552
1758278537025126000,293.3871259765625,4.450072698211669,7.951442988586425,3.610905016326904
1758278537035210000,293.3972099609375,4.719270747375488,7.599196069335937,3.225737824249268
1758278537045293800,293.4072939453125,4.981286191558838,7.204452070617675,2.66205297088623
1758278537055379000,293.41737890625,5.064634336853027,7.024737308502197,1.910872200012207
1758278537065462800,293.427462890625,4.840028293609619,7.256825231933593,1.0944494338989257
1758278537075547000,293.437546875,4.414458948516845,7.860313687896728,0.1183633445739746
1758278537085631700,293.4476318359375,3.950133464050293,8.785971904754637,-0.9071031539916992
1758278537095716000,293.4577160644531,3.5366847648620605,9.87084453201294,-1.829768618774414
1758278537105800000,293.4678000488281,3.118298024749756,10.889876613616943,-2.5761609863281247
1758278537115884800,293.477884765625,2.7105355545043945,11.596615016174315,-3.098994773864746
1758278537125969000,293.4879689941406,2.4352023635864257,11.815085917663572,-3.450792780303955
1758278537136052700,293.498052734375,2.293495552825928,11.716923649597168,-3.5990836456298827
1758278537146137000,293.50813720703127,2.286163310241699,11.44203937149048,-3.6529531829833983
1758278537156222000,293.5182219238281,2.2928970024108883,11.071686302185055,-3.5380315032958984
1758278537166305800,293.52830590820315,2.244863331604004,10.513986952972411,-3.255066794586181
1758278537176390000,293.5383898925781,2.221070952606201,9.810839852905271,-2.825008321380615
1758278537186474800,293.54847485351564,2.1645079383850097,9.12953984298706,-2.268057160186768
1758278537196558800,293.55855883789064,2.0661960327148434,8.625710031127928,-1.68551796875
1758278537206643000,293.56864282226564,1.974168906402588,8.462006492614746,-1.1311106468200682
1758278537216728000,293.57872802734374,1.8930653251647949,8.733149830627442,-0.6488286499023437
1758278537226812000,293.58881201171874,1.7277157730102537,9.42971287612915,-0.3043628860473633
1758278537236895700,293.59889575195314,1.4050970993041991,10.395025057983398,-0.0511760604858398
1758278537246980900,293.60898095703124,0.9232640151977538,11.349264057159424,0.0857423469543457
1758278537257064700,293.6190646972656,0.4234744186401367,12.152817989349364,0.1735796203613281
1758278537267149000,293.6291491699219,0.024839842224121,12.748824565124512,0.2267009696960449
1758278537277233000,293.63923291015624,-0.2153285118103027,13.149554067993163,0.3097498397827148
1758278537287318000,293.6493181152344,-0.2522889999389648,13.417405378723144,0.4867711250305175
1758278537297401900,293.6594018554688,-0.1871966423034667,13.488183965301513,0.6494272003173828
1758278537307485700,293.6694855957031,0.1469441268920898,13.476811507415771,0.8294412376403808
1758278537317570800,293.6795708007813,0.474351203918457,13.303381524658205,0.9005190994262695
1758278537327655000,293.6896550292969,0.6564601676940918,12.786233966064453,0.9617208793640136
1758278537337739000,293.6997390136719,0.6706757400512695,12.086678168487548,0.9575310264587402
1758278537347823900,293.7098239746094,0.6768108818054199,11.266514462280274,1.0102034629821777
1758278537357908000,293.7199079589844,0.4740519287109375,10.254964260864256,1.0408791717529295
1758278537367991800,293.7299916992188,0.3764882110595703,9.27124665374756,1.120336739349365
1758278537378076000,293.7400759277344,0.2916436897277832,8.427589843749999,1.2912228828430174
1758278537388161000,293.7501611328125,0.1949777976989746,7.721001078796386,1.5638625968933104
1758278537398244900,293.7602448730469,0.0998082817077636,7.241412558746338,1.8733131614685057
1758278537408329000,293.7703288574219,-0.0213981773376464,6.929118879699707,2.1785738731384274
1758278537418413800,293.78041381835936,-0.0638952568054199,6.788010619354248,2.558803024291992
1758278537428497700,293.79049755859376,-0.3181295455932617,6.768408093261718,2.8918963302612304
1758278537438582000,293.80058203125,-0.512059880065918,6.839785230255127,3.1777041534423827
1758278537448667000,293.8106669921875,-0.4378396286010741,6.960093863677978,3.4097920768737797
1758278537458750200,293.82075024414064,-0.181959326171875,7.107187628173827,3.553144901275634
1758278537468834000,293.830833984375,-0.1566705711364746,7.282712537384032,3.710563660430908
1758278537478919000,293.8409189453125,0.0570119270324707,7.46347476272583,3.839700912475586
1758278537489003300,293.85100317382813,0.5274725532531738,7.710376808929443,3.995174382781982
1758278537499087000,293.86108715820313,0.6429927833557129,7.980173408508301,4.1088989616394045
1758278537509171200,293.87117114257813,0.5149029945373534,8.28633194580078,4.179078997802734
1758278537519256000,293.8812561035156,0.5392939239501953,8.67673645401001,4.304475309753418
1758278537529340000,293.89133984375,0.5135562561035156,9.132083682250975,4.43032053451538
1758278537539424300,293.90142431640623,0.240018716430664,9.552565348815918,4.570530969238281
1758278537549509000,293.9115090332031,-0.0966658920288085,9.880720613861085,4.751143556976318
1758278537559593200,293.9215932617187,-0.278325942993164,10.076596237182615,4.961384390258789
1758278537569677000,293.9316770019531,-0.3347393196105956,10.147823736572263,5.074510418701172
1758278537579762200,293.9417622070313,-0.1628057128906249,9.988459688568115,5.007921685028076
1758278537589846000,293.9518459472656,0.0133177467346191,9.67242506942749,4.886715225982666
1758278537599930000,293.9619301757813,0.312144041442871,9.35983211517334,4.587440018463134
1758278537610014200,293.9720141601563,0.6829460235595702,9.112032243347167,4.204517390441894
1758278537620099000,293.98209912109377,0.1497872413635254,8.91914937210083,4.2131963714599605
1758278537630183200,293.9921831054688,-0.0812532188415527,8.575132521057128,4.795137012481689
