time,seconds_elapsed,z,y,x
1757942197756579600,0.05557958984375,6.273706175231934,8.01892954788208,1.5671546241760252
1757942197766664400,0.06566455078125,6.451026735687256,8.078634951782226,1.4776713371276855
1757942197776749600,0.07574951171875,6.726359926605224,8.044966490936279,1.4110826034545898
1757942197786834400,0.08583447265625,6.873004778289794,7.907898445892333,1.2831424522399901
1757942197796919600,0.09591943359375,6.718429133605957,7.7596075805664055,1.1257236930847168
1757942197807004400,0.10600439453125,6.445340506744384,7.676409072875976,1.0886135673522948
1757942197817089500,0.116089599609375,6.3244333229064935,7.6951137733459465,1.117942537689209
1757942197827174400,0.12617431640625,6.073939974212646,7.764994534301757,1.1487678840637205
1757942197837259500,0.136259521484375,5.697900675964355,7.8535799957275385,1.1477204208374023
1757942197847344600,0.1463447265625,5.3208139144897455,7.9378259666442865,1.2204442962646485
1757942197857429500,0.156429443359375,5.126285029602051,8.029553817749022,1.409137314605713
1757942197867514600,0.1665146484375,5.003582194519042,8.081478066253661,1.6083049652099608
1757942197877598500,0.176598388671875,4.868309800720215,8.064419379425049,1.7972972587585447
1757942197887683600,0.18668359375,4.8041152687072755,8.099434578704834,2.103156520843506
1757942197897768400,0.1967685546875,4.863970310211181,8.108861747741699,2.342427049255371
1757942197907853600,0.206853515625,4.969165545654296,8.000823397827148,2.4054244804382323
1757942197917938400,0.2169384765625,5.058499195098877,7.881412590026855,2.3485621910095213
1757942197928023600,0.2270234375,5.052962603759766,7.783549597167968,2.41964005279541
1757942197938108400,0.2371083984375,5.144540817260742,7.632714892578124,2.5775077247619627
1757942197948193500,0.247193603515625,5.387552285766601,7.489212430572509,2.812887675476074
1757942197958278700,0.257278564453125,5.6295162910461425,7.283760000610351,3.125779904937744
1757942197968363500,0.267363525390625,5.6778492370605465,6.910713454437255,3.353229062652588
1757942197978448600,0.27744873046875,5.805490113067626,6.5491890037536615,3.7767034812927243
1757942197988532500,0.287532470703125,6.077531276702881,6.112097563171386,3.9447465103149413
1757942197998617600,0.29761767578125,6.42888037033081,5.842300963592529,4.152593141937255
1757942198008702500,0.307702392578125,7.107187628173827,6.299892755889892,4.857386255645752
1757942198018787600,0.31778759765625,7.372345462036132,6.6524389503479,5.125985754394531
1757942198028872400,0.32787255859375,7.609221788787841,6.82512074508667,5.12044916305542
1757942198038957600,0.33795751953125,7.577797891998291,6.928370691680907,4.881477909851074
1757942198049042400,0.34804248046875,7.260566172027588,6.852504426574707,4.663156645965576
1757942198059127600,0.35812744140625,6.695235305023193,6.571933919525146,4.550180255126953
1757942198069212400,0.36821240234375,6.348225701904297,6.276549289703369,4.280982205963134
1757942198079297500,0.378297607421875,5.906495495605468,5.922207444000244,3.687519469451904
1757942198089382700,0.388382568359375,5.063287598419189,5.561880094146728,3.106775929260254
1757942198099467500,0.398467529296875,4.453215087890625,5.520430477905273,3.0048727210998534
1757942198109552600,0.408552734375,4.193893120574951,5.708524945831298,2.993051350402832
1757942198119636500,0.418636474609375,4.037521824645996,5.746233621978759,2.9290064559936524
1757942198129721600,0.4287216796875,4.141071046447753,5.877765075683594,3.2218472465515133
1757942198139806500,0.438806396484375,4.770895720672607,6.362441274261474,3.9643490364074703
1757942198149891600,0.4488916015625,5.722890155792236,7.00363840637207,5.30525160369873
1757942198159976400,0.4589765625,6.597970862579345,7.152827097320556,6.527641188812256
1757942198170061600,0.4690615234375,7.0370075920104975,7.492803733062743,9.115024995422363
1757942198180146400,0.479146484375,6.804770030975342,7.142502102661132,10.755352407836913
1757942198190231600,0.4892314453125,7.416787830352782,6.276250014495849,8.989030133056641
1757942198200316400,0.49931640625,7.75062932434082,6.561010374450683,7.604433385467529
1757942198210401500,0.509401611328125,7.717709051513672,6.83754066619873,6.482749907684326
1757942198220486700,0.519486572265625,7.666383353424072,6.899041721343994,5.859060375213622
1757942198230570500,0.529570556640625,7.529165670776367,6.410175669860839,3.0934581825256346
1757942198240655600,0.539655517578125,8.321496782684326,5.328295794677734,-0.7912836486816406
1757942198250740500,0.549740478515625,9.411157813262939,4.815487726593017,-3.799149121856689
1757942198260825600,0.55982568359375,9.94102456817627,4.623951593780517,-6.236895324707031
1757942198270910500,0.569910400390625,10.56650975189209,4.339789784240723,-8.380005085754394
1757942198280995600,0.57999560546875,11.41450605239868,4.2417771537780755,-9.604339959716796
1757942198291080400,0.59008056640625,11.681609175109863,4.548683879089356,-9.66584101486206
1757942198301165600,0.60016552734375,11.367070932006834,4.965574243164062,-9.267356076049804
1757942198311250400,0.61025048828125,11.02529864501953,5.106832141113281,-8.929025453948974
1757942198321335600,0.62033544921875,10.112509262084961,5.0203416061401365,-8.732700917816162
1757942198331420700,0.630420654296875,8.804526967620848,5.164292980957031,-8.936058421325683
1757942198341505500,0.640505615234375,7.717559413909911,5.820753148651122,-9.016862727355957
1757942198351589400,0.65058935546875,6.646752721405029,6.554127044677734,-9.258228182220458
1757942198361674500,0.660674560546875,5.2359693931579585,7.1029977752685545,-9.08479819946289
1757942198371759600,0.670759521484375,2.4856302360534666,7.750928599548339,-8.34439133605957
1757942198381844500,0.680844482421875,-0.13542203140258788,8.526201024627685,-6.710947253417968
1757942198391929600,0.6909296875,-4.081964192962646,9.30805750427246,-5.112219094848633
1757942198402014500,0.701014404296875,-7.286154202270508,10.051457119750976,-4.322581459808349
1757942198412099600,0.711099609375,-8.545953188323974,10.614842697906493,-5.507711281585693
1757942198422184400,0.721184326171875,-9.35908392715454,10.868029523468017,-7.13756406173706
1757942198432269600,0.73126953125,-9.97125136413574,10.520122094726561,-8.445247080993651
1757942198442354400,0.7413544921875,-10.390087017059326,9.900323139953613,-9.120711224365234
1757942198452439600,0.751439453125,-9.51291138381958,9.57022258605957,-8.796296899414061
1757942198462523400,0.7615234375,-7.790133651733398,9.444227723693848,-7.719803977966309
1757942198472608500,0.7716083984375,-5.850381394195557,9.488370816802979,-5.980266834259033
1757942198482693400,0.781693359375,-4.1109938880920405,9.453954167938232,-4.7554830474853516
1757942198492778500,0.791778564453125,-2.805106520080566,9.055768504333496,-4.162020310974121
1757942198502863600,0.801863525390625,-1.8073229782104492,8.642619080352782,-3.8798037902832028
1757942198512948500,0.811948486328125,-1.3015478775024414,8.393921382904052,-3.5079543449401855
1757942198523033600,0.82203369140625,-1.2401964599609374,8.11424870147705,-3.2243910858154297
1757942198533117700,0.83211767578125,-1.5982792457580566,7.802703210449218,-3.4639608894348144
1757942198543202600,0.84220263671875,-2.2363339881896973,7.630470328521728,-3.7089176467895504
1757942198553287700,0.85228759765625,-2.9290064559936524,7.547720733642578,-3.564367721557617
1757942198563372500,0.86237255859375,-4.629338547515869,7.4971432235717765,-3.504363042449951
1757942198573456600,0.87245654296875,-6.92687431564331,7.562684494018554,-3.6644752784729
1757942198583541500,0.88254150390625,-11.634024417114258,7.841908262634277,-4.624101231384277
1757942198593626600,0.892626708984375,-13.872004418945311,8.480262280273436,-5.919663604736328
1757942198603711500,0.90271142578125,-11.686696853637695,9.01386997528076,-5.495440998077393
1757942198613796600,0.912796630859375,-7.589020712280273,8.953416383361816,-4.71792400894165
1757942198623881700,0.9228818359375,-4.364928901672363,9.239673119354247,-3.755155666351318
1757942198633966600,0.932966552734375,-2.0784663162231443,9.32047742538452,-2.890100679016113
1757942198644051700,0.9430517578125,-1.169717148590088,9.136872085571289,-2.774430811309814
1757942198654136600,0.953136474609375,-0.7625532287597656,9.037512716674804,-2.4820389335632322
1757942198664221700,0.9632216796875,-0.6585550941467285,9.123404701232909,-2.0223522148132322
1757942198674306600,0.973306640625,-0.9077017044067383,9.081655809783935,-1.7727566917419433
1757942198684390700,0.983390625,-1.3296797470092772,8.960898263549804,-1.5598223815917969
1757942198694475800,0.993475830078125,-1.880196491241455,8.988132307434082,-1.2253823371887207
1757942198704560600,1.003560546875,-2.473659227752685,9.0910829788208,-0.9071031539916992
1757942198714645500,1.0136455078125,-3.010110037231445,9.151835845947264,-0.6682815383911133
1757942198724730600,1.023730712890625,-3.3291374084472656,9.089736240386962,-0.6694786392211913
1757942198734815500,1.0338154296875,-3.3903391883850094,9.019705841827392,-0.8752303443908691
1757942198744900600,1.043900634765625,-3.26224939956665,9.085546387481688,-1.1507131729125977
1757942198754985700,1.05398583984375,-3.0092122116088866,9.189544522094726,-1.426196001434326
1757942198765070600,1.064070556640625,-2.807949634552002,9.271545928955078,-1.6792331893920898
1757942198775155700,1.07415576171875,-2.6876410011291503,9.249998114013671,-1.7751508934020994
1757942198785240600,1.084240478515625,-2.61761060256958,9.220220230865477,-1.6707038459777832
1757942198795325000,1.094324951171875,-2.5781062751770016,9.33364553451538,-1.3462895210266113
1757942198805409800,1.104409912109375,-2.420837153625488,9.478195459747313,-1.0735001693725585
1757942198815494700,1.11449462890625,-2.3234230735778807,9.597905542755127,-1.0735001693725585
1757942198825579500,1.12457958984375,-2.2948422912597657,9.657311671447752,-1.310077220916748
1757942198835664600,1.13466455078125,-2.240074928283691,9.772981539154053,-1.6733973228454588
1757942198845749500,1.14474951171875,-2.236483625793457,9.86381156463623,-1.970876879119873
1757942198855834600,1.154834716796875,-2.353949144744873,9.853187294769286,-2.15163910446167
1757942198865919700,1.164919677734375,-2.453009238433838,9.701754039764404,-2.192190895080566
1757942198876004600,1.175004638671875,-2.410661796569824,9.524882392120361,-2.0220529396057128
1757942198886089700,1.18508984375,-2.343474512481689,9.395445864868163,-1.7693150268554687
1757942198896174600,1.195174560546875,-2.342277411651611,9.32152488861084,-1.554585065460205
1757942198906259000,1.205259033203125,-2.410661796569824,9.253888691711426,-1.4698901817321777
1757942198916343800,1.21534375,-2.4907179145812988,9.227402835845947,-1.445499252319336
1757942198926428700,1.2254287109375,-2.5288755035400388,9.201216255187989,-1.4493898300170898
1757942198936513500,1.235513427734375,-2.4889222633361814,9.150638745117186,-1.5059528442382812
1757942198946598700,1.2455986328125,-2.437297290039062,9.132532595062255,-1.499668064880371
1757942198956683500,1.25568359375,-2.3837270278930665,9.152284758758544,-1.5107412475585937
1757942198966768600,1.2657685546875,-2.4344541755676268,9.114276807403565,-1.553986515045166
1757942198976853500,1.275853515625,-2.439392216491699,9.058461981201171,-1.4995184272766113
1757942198986938600,1.285938720703125,-2.420238603210449,9.020753305053711,-1.3787608810424803
1757942198997023700,1.296023681640625,-2.4096143333435056,9.04604206008911,-1.3154641746520996
1757942199007108600,1.306108642578125,-2.344372338104248,9.095721744537354,-1.3766659545898436
1757942199017192700,1.316192626953125,-2.305167285919189,9.13492679672241,-1.4377180969238281
1757942199027277800,1.32627783203125,-2.2637176696777344,9.20615429611206,-1.5081974082946776
1757942199037362700,1.33636279296875,-2.228702470397949,9.304915114593506,-1.6325462570190428
1757942199047447800,1.34644775390625,-2.158672071838379,9.426720124053954,-1.8089689918518066
1757942199057532700,1.35653271484375,-2.133233679199219,9.519345800781249,-1.8689736709594726
1757942199067617500,1.366617431640625,-2.1836615516662596,9.596858079528808,-1.8070237030029295
1757942199077702700,1.37670263671875,-2.2686557106018066,9.6151138671875,-1.6915034729003906
1757942199087787500,1.38678759765625,-2.274341939544678,9.613318215942382,-1.5408184059143066
1757942199097872600,1.39687255859375,-2.2367829010009763,9.52578021774292,-1.4420575874328612
1757942199107957500,1.40695751953125,-2.2125416091918946,9.456498007202148,-1.3826514587402343
1757942199118042600,1.417042724609375,-2.194734734344482,9.46158568572998,-1.3085808448791503
1757942199128126700,1.427126708984375,-2.167500690460205,9.481936399841308,-1.2885294059753418
1757942199138211800,1.4372119140625,-2.185307565307617,9.495104508972167,-1.392377902984619
1757942199148296700,1.447296630859375,-2.1999720504760742,9.485826977539062,-1.5077484954833984
1757942199158381800,1.4573818359375,-2.178424235534668,9.464279162597656,-1.5828665725708007
1757942199168466700,1.467466796875,-2.1416133850097654,9.457096557617186,-1.5870564254760742
1757942199178551600,1.477551513671875,-2.1061492729187012,9.4741552444458,-1.5396213050842285
1757942199188636700,1.48763671875,-2.129792014312744,9.445724099731445,-1.5339350761413573
1757942199198721500,1.497721435546875,-2.1710919929504393,9.39694224090576,-1.529745223236084
1757942199208806700,1.507806640625,-2.129941651916504,9.399336442565918,-1.506102481842041
1757942199218891500,1.5178916015625,-2.07487501373291,9.414000927734374,-1.5264531959533691
1757942199228975900,1.527975830078125,-2.010381206512451,9.37853681564331,-1.502960092163086
1757942199239060700,1.538060791015625,-1.9958663589477539,9.39125601196289,-1.4992191520690916
1757942199249145900,1.548145751953125,-2.0260931549072265,9.390058911132812,-1.5171756645202636
1757942199259230700,1.558230712890625,-2.0298340950012204,9.383175581359863,-1.5023615417480467
1757942199269315800,1.56831591796875,-2.0144214218139647,9.362525592041015,-1.4815619148254393
1757942199279400700,1.578400634765625,-2.0102315689086914,9.3331966217041,-1.4463970779418944
1757942199289485600,1.588485595703125,-2.013972509002685,9.342474153137207,-1.4873977813720702
1757942199299570700,1.59857080078125,-2.0444985801696776,9.335141910552977,-1.5441104331970215
1757942199309655600,1.608655517578125,-2.0994155807495116,9.347861106872559,-1.608155327606201
1757942199319740700,1.61874072265625,-2.1697452545166014,9.37180312347412,-1.5913959159851074
1757942199329824800,1.62882470703125,-2.2296002960205077,9.396493328094483,-1.553986515045166
1757942199339910000,1.638909912109375,-2.2194249389648437,9.390058911132812,-1.523310806274414
1757942199349994800,1.648994873046875,-2.0649989318847655,9.454103805541992,-1.476623873901367
1757942199360080000,1.659079833984375,-1.7559972801208494,9.53894832687378,-1.6186299598693847
1757942199370164700,1.669164794921875,-1.5893009895324706,9.571120411682129,-1.978508396911621
1757942199380249900,1.679249755859375,-1.7003320915222166,9.585485621643066,-2.0611083541870117
1757942199390334700,1.689334716796875,-1.7902642913818358,9.573963526153564,-1.9054852462768554
1757942199400419800,1.699419921875,-1.8957588020324705,9.573065700531005,-1.8104653678894043
1757942199410504700,1.709504638671875,-1.9930232444763183,9.574562076568602,-1.6989853530883787
1757942199420589600,1.719589599609375,-2.0239982284545897,9.553762449645996,-1.6174328590393066
1757942199430674700,1.7296748046875,-2.0265420677185055,9.51904652557373,-1.578227806854248
1757942199440758800,1.7397587890625,-2.000804399871826,9.500341825103758,-1.5900491775512695
1757942199450844000,1.749843994140625,-1.9571102195739745,9.515305585479735,-1.6195277854919432
1757942199460928800,1.7599287109375,-1.9422960968017577,9.495852696990966,-1.6693571075439453
1757942199471014000,1.770013916015625,-1.9621978981018064,9.4741552444458,-1.6909049224853514
1757942199481098800,1.7800986328125,-2.01127903213501,9.488370816802979,-1.6590321128845213
1757942199491183900,1.790183837890625,-2.0260931549072265,9.485228427124023,-1.6271593032836913
1757942199501268700,1.800268798828125,-2.0498855339050293,9.496600885009766,-1.5930419296264648
1757942199511353900,1.810353759765625,-2.055122850036621,9.496750522613524,-1.567304261779785
1757942199521438700,1.820438720703125,-2.025793879699707,9.491064293670654,-1.5806220085144043
1757942199531523600,1.830523681640625,-2.015319247436523,9.489119004821777,-1.5771803436279297
1757942199541608000,1.84060791015625,-2.0088848304748534,9.488969367218017,-1.5928922920227049
1757942199551692800,1.85069287109375,-2.035221048736572,9.48044002380371,-1.5682020874023437
1757942199561778000,1.86077783203125,-2.009184105682373,9.448267938995361,-1.5319897872924804
1757942199571862800,1.87086279296875,-1.9782091217041013,9.439289682769775,-1.5084966835021971
1757942199581948000,1.880947998046875,-1.9424457344055175,9.407566510772705,-1.4927847351074217
1757942199592033000,1.891032958984375,-1.9334674781799315,9.381529567718506,-1.4544775085449217
1757942199602118000,1.901117919921875,-1.959205146026611,9.379285003662108,-1.4477438163757324
1757942199612203000,1.911203125,-1.9807529609680175,9.355642262268066,-1.4553753341674804
1757942199622288000,1.921287841796875,-2.0082862800598145,9.367912545776367,-1.4244003501892089
1757942199632372700,1.931372802734375,-2.04300220413208,9.386018695831298,-1.4284405654907226
1757942199642456800,1.941456787109375,-2.0067899040222166,9.366565807342528,-1.4700398193359374
1757942199652542000,1.9515419921875,-1.9584569580078124,9.342324515533447,-1.5355810897827147
1757942199662626800,1.961626708984375,-1.913266401672363,9.362675229644775,-1.5997756217956542
1757942199672712000,1.9717119140625,-1.9340660285949707,9.381679205322266,-1.601870548248291
1757942199682796800,1.981796875,-1.97910694732666,9.379285003662108,-1.5497966621398924
1757942199692882000,1.9918818359375,-1.9602526092529295,9.398288979339599,-1.459415549468994
1757942199702966800,2.001966796875,-1.9922750564575193,9.409362162017821,-1.4145242683410644
1757942199713052000,2.012052001953125,-1.946485949707031,9.430610701751709,-1.4787188003540037
1757942199723137000,2.022136962890625,-1.873163523864746,9.451709603881836,-1.5662567985534668
1757942199733222000,2.032221923828125,-1.901893943786621,9.45515126876831,-1.6270096656799315
1757942199743306800,2.042306640625,-1.9639935493469236,9.48687444076538,-1.648407843017578
1757942199753390800,2.052390869140625,-2.0202572883605954,9.491213931274414,-1.6698060203552245
1757942199763476000,2.06247607421875,-2.0910358749389646,9.483283138275146,-1.6418237884521483
1757942199773560800,2.072560791015625,-2.1211130332946775,9.446921200561523,-1.540519130706787
1757942199783646000,2.08264599609375,-2.0060417160034176,9.430909976959228,-1.4809633644104003
1757942199793730800,2.092730712890625,-1.8550573738098144,9.493907408142089,-1.5140332748413086
1757942199803816000,2.10281591796875,-1.805527326965332,9.522937103271484,-1.521365517425537
1757942199813900800,2.11290087890625,-1.8118121063232422,9.521590364837646,-1.5167267517089842
1757942199823986000,2.12298583984375,-1.8596961395263671,9.529521157836914,-1.502211904144287
1757942199834070800,2.13307080078125,-1.899948654937744,9.51276174621582,-1.5306430488586424
1757942199844156000,2.143156005859375,-1.9234417587280273,9.449465039825439,-1.5620669456481933
1757942199854239700,2.15323974609375,-1.989431941986084,9.426271211242675,-1.537975291442871
1757942199864324900,2.163324951171875,-2.0054431655883787,9.39125601196289,-1.4897919830322264
1757942199874409700,2.17340966796875,-1.9533692794799804,9.383774131774901,-1.448641641998291
1757942199884494800,2.183494873046875,-1.919102268218994,9.399336442565918,-1.4459481651306152
1757942199894580000,2.193580078125,-1.8984522789001463,9.402179557037353,-1.4972738632202147
1757942199904664800,2.203664794921875,-1.8893243850708006,9.405920497131348,-1.5487491989135742
1757942199914750000,2.21375,-1.8806454040527343,9.43569838027954,-1.5881038887023924
1757942199924834800,2.223834716796875,-1.8522142593383788,9.423577734375,-1.6136919189453125
1757942199934920000,2.233919921875,-1.8727146110534667,9.431059614562988,-1.5720926651000975
1757942199945004800,2.2440048828125,-1.9416975463867185,9.44916576461792,-1.528398484802246
1757942199955089000,2.2540888671875,-1.9532196418762207,9.481637124633789,-1.488894157409668
1757942199965173800,2.264173828125,-1.922992845916748,9.503334577178954,-1.4894927078247069
1757942199975259000,2.2742587890625,-1.8556559242248534,9.524283841705321,-1.5708955642700195
1757942199985343700,2.28434375,-1.8326117332458496,9.559897591400146,-1.6512509574890135
1757942199995428900,2.294428955078125,-1.8332102836608886,9.563339256286621,-1.7197849800109861
1757942200005514000,2.304513916015625,-1.896806265258789,9.586682722473144,-1.6723498596191406
1757942200015598800,2.314598876953125,-1.9454384864807128,9.574262801361083,-1.565358972930908
1757942200025684000,2.32468408203125,-1.891120036315918,9.545532381439209,-1.501014803314209
1757942200035768800,2.334768798828125,-1.8088193542480469,9.490016830444336,-1.4911387214660643
1757942200045854000,2.34485400390625,-1.7758990814208984,9.475352345275878,-1.4818611900329588
1757942200055937800,2.354937744140625,-1.7887679153442382,9.479841473388671,-1.4297873039245605
1757942200066023000,2.36502294921875,-1.9020435813903807,9.482834225463867,-1.4067431129455565
1757942200076107800,2.375107666015625,-2.0076877296447755,9.494655596160888,-1.4368202713012694
1757942200086193000,2.38519287109375,-2.026392430114746,9.487173715972899,-1.5219640678405761
1757942200096277800,2.39527783203125,-1.9150620529174804,9.501838201141357,-1.6160861206054686
1757942200106363000,2.40536279296875,-1.8637363548278807,9.539546877288817,-1.6103998916625977
1757942200116447700,2.41544775390625,-1.904437783050537,9.559598316192627,-1.5315408744812011
1757942200126532900,2.425532958984375,-2.0163667106628416,9.53176572189331,-1.5236100814819336
1757942200136618000,2.435617919921875,-2.035969236755371,9.504531678009032,-1.5056535690307615
1757942200146702800,2.445702880859375,-2.1251532485961913,9.445574462127684,-1.4974235008239745
1757942200156786700,2.45578662109375,-2.207753205871582,9.34022958908081,-1.650951682281494
1757942200166871800,2.465871826171875,-2.0829554443359375,9.247454274749755,-1.7082628845214842
1757942200176957000,2.47595703125,-1.862988166809082,9.26989991531372,-1.5761328804016113
1757942200187041800,2.486041748046875,-1.6406266876220703,9.337087199401855,-1.4074913009643555
1757942200197127000,2.496126953125,-1.5893009895324706,9.296984321594238,-1.2586018852233887
1757942200207211800,2.506211669921875,-1.7226280944824217,9.28276874923706,-1.0574889457702636
1757942200217297000,2.516296875,-1.7296610618591308,9.314043008422852,-0.8251017471313477
1757942200227381800,2.5263818359375,-1.8685247581481932,9.267804988861084,-0.8907926551818847
1757942200237467000,2.536466796875,-1.9238906715393065,9.228749574279785,-1.0232219345092772
1757942200247551700,2.5465517578125,-1.6762404373168944,9.190143072509764,-1.255758770751953
1757942200257635800,2.5566357421875,-1.313967798614502,9.283816212463378,-1.4342764320373533
1757942200267720700,2.566720703125,-1.146074407196045,9.432555990600585,-1.5463549972534179
1757942200277805800,2.576805908203125,-1.1385925270080566,9.334393722534179,-1.618480322265625
1757942200287891000,2.586890869140625,-1.237203707885742,9.240570944976806,-1.633743357849121
1757942200297975800,2.596975830078125,-1.3648445838928223,9.175478587341308,-1.477372061920166
1757942200308061000,2.60706103515625,-1.3353659759521483,8.950124356079101,-1.3690344367980956
1757942200318145800,2.617145751953125,-1.1148001480102538,9.055169953918456,-1.1490671592712403
1757942200328231000,2.62723095703125,-1.397465581512451,9.355642262268066,-0.9100959060668945
1757942200338315800,2.637315673828125,-1.552041226196289,9.287557152557373,-1.0016741195678711
1757942200348401000,2.64740087890625,-1.2105682144165038,9.369109646606445,-1.268029054260254
1757942200358484700,2.657484619140625,-0.8189666053771972,9.420884257507323,-1.5855600494384765
1757942200368569900,2.66756982421875,-0.5235819755554199,8.9631428276062,-2.09402862701416
1757942200378654700,2.67765478515625,-0.5380968231201172,8.455272800445556,-2.4251766441345213
1757942200388739800,2.68773974609375,-0.43454760131835934,7.85941586227417,-2.207154655456543
1757942200398824700,2.69782470703125,-0.3667617668151855,7.3174284614562985,-1.5764321556091307
1757942200408909800,2.707909912109375,-0.2769792045593262,6.773196496582031,-0.9861118087768554
1757942200418995000,2.717994873046875,-0.201112939453125,6.2122051200866695,-0.6105214233398437
1757942200429079800,2.728079833984375,-0.33324294357299805,5.611110865783691,-0.5054758255004882
1757942200439165000,2.7381650390625,-0.1441010124206543,5.087977803039551,-0.30406361083984373
1757942200449248800,2.748248779296875,-0.21577742462158203,4.6730327278137205,0.010773907470703125
1757942200459334000,2.758333984375,-0.33758243408203126,4.262277505493164,0.25842414169311523
1757942200469418800,2.768418701171875,-0.2537853759765625,3.900154504394531,0.531812043762207
1757942200479504000,2.77850390625,0.04129997863769531,3.5895068389892577,0.7127239067077636
1757942200489588700,2.788588623046875,0.4961982940673828,3.079242610168457,0.34057518615722654
1757942200499673900,2.798673828125,0.177470198059082,3.0597897216796874,0.5211877738952636
1757942200509758700,2.8087587890625,-0.07407061386108398,3.1190462127685543,1.280000062561035
1757942200519843800,2.81884375,-0.16041151123046873,2.609230896759033,1.9840449882507323
1757942200529928700,2.8289287109375,0.01062426986694336,2.272097375488281,2.5076269638061524
1757942200540014300,2.839014404296875,0.3981856636047363,2.401234627532959,2.987963671875
1757942200550098200,2.84909814453125,0.543932689666748,2.6970681701660153,3.172466837310791
1757942200560183300,2.859183349609375,0.35239655685424803,3.051260378265381,3.0768484085083005
1757942200570268400,2.869268310546875,1.211765315246582,3.7370495162963864,2.7801170402526854
1757942200580353300,2.879353271484375,1.355417414855957,4.687697212982178,2.658611305999756
1757942200590438400,2.8894384765625,1.554585065460205,5.757905355072021,2.731185543823242
1757942200600523300,2.899523193359375,1.8981530036926269,6.7286044906616205,3.0035259826660154
1757942200610608400,2.9096083984375,2.206406467437744,7.589768900299072,3.347842108917236
1757942200620693200,2.919693359375,2.422183892059326,8.411428982543946,3.8482302558898924
1757942200630778400,2.9297783203125,2.2752397651672362,9.031227937316894,4.274996701812744
1757942200640863200,2.93986328125,2.1595698974609374,9.456198731994629,4.395305335235595
1757942200650947300,2.949947265625,1.9638439117431639,9.694122521972655,4.50124875869751
1757942200661032200,2.9600322265625,1.6383821235656737,9.731831198120117,4.684554823303222
1757942200671117300,2.970117431640625,1.3676876983642576,9.809044201660155,5.175216526031494
1757942200681202400,2.980202392578125,1.023371572113037,9.874136559295653,5.806238301086426
1757942200691287300,2.990287353515625,1.107617543029785,10.083479566955566,6.244377204895019
1757942200701372400,3.000372314453125,1.3485340850830076,10.393977594757079,6.768857006072998
1757942200711457300,3.010457275390625,1.585260774230957,10.706121636199951,7.5351511749267575
1757942200721542400,3.02054248046875,1.8576012130737303,10.760140811157227,8.164078023529052
1757942200731627300,3.030627197265625,2.211494145965576,10.748169802856445,8.69454332885742
1757942200741711400,3.04071142578125,2.503886023712158,10.668412960052489,9.247154999542236
1757942200751796200,3.050796142578125,2.653224352264404,10.590601406097411,9.931298123931883
1757942200761881300,3.06088134765625,2.7500398818969725,10.502315219879149,10.477325740051269
1757942200771966200,3.07096630859375,2.634220376586914,10.46385835571289,10.657788690185546
1757942200782051300,3.08105126953125,2.13877027053833,10.323049370574951,10.601375313568115
1757942200792136200,3.09113623046875,1.6991349906921385,10.279654465484619,10.06133320159912
1757942200802221300,3.10122119140625,1.3959692054748534,10.432883371734619,9.343671253967285
1757942200812306400,3.111306396484375,1.0808324119567871,10.28534069442749,8.664017257690428
1757942200822391300,3.121391357421875,1.042674822998047,10.172513941192626,8.100033129119872
1757942200832475100,3.13147509765625,1.1939584403991699,10.077942975616455,7.9381252418518065
1757942200842560300,3.141560302734375,1.3168109130859373,10.122385343933106,7.756614828491211
1757942200852645400,3.151645263671875,1.1991957565307616,10.488548560333252,7.430105577087402
1757942200862730200,3.161730224609375,0.9069535163879394,10.869226624298095,6.719775872039794
1757942200872815400,3.1718154296875,0.42018239135742186,11.739668565368651,5.871480296325683
1757942200882900200,3.181900146484375,-0.4402338302612304,13.099874383544922,5.1876364471435545
1757942200892985300,3.1919853515625,-1.3166612754821776,15.17624577331543,4.637119702911376
1757942200903070200,3.2020703125,-1.5337854385375975,18.16929712371826,3.6213796485900875
1757942200913155300,3.2121552734375,-1.0657190139770507,21.949741545104978,1.6997335411071777
1757942200923240200,3.222240234375,-0.07915829238891602,25.67122875061035,-1.3257891693115234
1757942200933324300,3.23232421875,1.0293570762634277,28.278813633728024,-4.960935477447509
1757942200943409200,3.2424091796875,1.1430816551208496,28.401217193603514,-7.702296378326416
1757942200953494300,3.252494384765625,0.34551322708129883,25.32840900039673,-7.629871778106689
1757942200963579100,3.2625791015625,-0.1696890426635742,19.72118871231079,-4.00310517578125
1757942200973664300,3.272664306640625,-0.24974516067504882,14.889540124511718,-0.9841665199279784
1757942200983749400,3.282749267578125,-0.027682956695556638,11.112986280822753,0.7389104873657226
1757942200993834200,3.292834228515625,0.06434416961669921,7.994239343261718,1.6322469818115233
1757942201003919400,3.30291943359375,0.22969372177124023,5.556642778015136,2.461239306640625
1757942201014004200,3.313004150390625,0.5958569381713866,3.8610990898132322,3.4708442192077635
1757942201024088300,3.32308837890625,0.8533832542419433,2.723105113220215,4.262127867889404
1757942201034173200,3.333173095703125,0.8827122245788573,2.0617069046020506,4.468178848266601
1757942201044258300,3.34325830078125,0.7628525039672851,1.9571102195739745,3.8667853187561034
1757942201054343200,3.35334326171875,0.6364087287902832,2.3473650901794434,3.156455613708496
1757942201064428300,3.36342822265625,0.30256723480224607,2.919429649353027,2.7412112632751464
1757942201074513200,3.37351318359375,-0.0053869537353515625,3.4501942298889157,2.4133552734375
1757942201084598300,3.383598388671875,-0.047884033203124995,4.0249522659301755,2.14505504989624
1757942201094683400,3.393683349609375,0.1222539222717285,4.683956272888183,1.692401298522949
1757942201104768300,3.403768310546875,0.3812766143798828,5.481973613739013,1.2993033134460448
1757942201114852000,3.41385205078125,0.5698199951171875,6.279093128967284,0.8243535591125488
1757942201124937200,3.423937255859375,0.5054758255004882,7.13786333694458,0.2883516624450683
1757942201135022300,3.434022216796875,0.28356325912475583,8.059780613708496,-0.28909985046386716
1757942201145107200,3.444107177734375,0.03621230010986328,8.91899973449707,-1.2198457458496093
1757942201155192300,3.4541923828125,-0.36691140441894526,9.994145917510986,-2.263418394470215
1757942201165277200,3.464277099609375,-0.8623615104675293,11.005097568511962,-3.2679356285095214
1757942201175362300,3.4743623046875,-1.248875440979004,12.023082186889647,-4.055627974700927
1757942201185447200,3.484447265625,-1.650951682281494,13.322684775543213,-4.471021962738037
1757942201195532300,3.4945322265625,-1.37906015625,14.67810219039917,-4.78151999053955
1757942201205616000,3.5046162109375,-0.4773439559936523,15.67902812194824,-4.84556488494873
1757942201215701200,3.514701171875,0.1423053611755371,16.124948181152345,-4.331709353637695
1757942201225786000,3.5247861328125,0.3573345977783203,15.95495986328125,-3.327491394805908
1757942201235871200,3.534871337890625,0.2410661796569824,15.241038855743406,-2.2575825279235837
1757942201245956000,3.5449560546875,0.09935936889648436,14.229787929534911,-1.4330793312072754
1757942201256041200,3.555041259765625,-0.07586626510620116,13.182025428009032,-1.0209773704528808
1757942201266126300,3.565126220703125,-0.22056582794189453,12.03520283279419,-1.0684124908447266
1757942201276211200,3.575211181640625,-0.1666962905883789,11.001955178833008,-1.1774983039855957
1757942201286296300,3.58529638671875,-0.2563292152404785,10.056245523071288,-1.0664672019958497
1757942201296381200,3.595381103515625,-0.28790274963378903,9.242815509033203,-0.9035118515014647
1757942201306465300,3.60546533203125,-0.19467852249145506,8.679429930877685,-0.625036270904541
1757942201316550100,3.615550048828125,0.04369418029785156,8.039280261993408,-0.5147533569335937
1757942201326635300,3.62563525390625,0.09696516723632811,7.649923217010498,-0.3941454483032226
1757942201336720100,3.63572021484375,0.03681085052490234,7.38656103439331,-0.2657563842773437
1757942201346805200,3.64580517578125,-0.11522095489501953,7.219864743804931,-0.2914940521240234
1757942201356890000,3.65589013671875,-0.31169512863159177,7.153874560546875,-0.4809352584838867
1757942201366975200,3.665975341796875,-0.5122095176696777,7.153724922943115,-0.7824550300598144
1757942201377060000,3.67606005859375,-0.6706757400512695,7.240365095520019,-1.1745055519104004
1757942201387145200,3.686145263671875,-0.7154173835754394,7.404517546844482,-1.5928922920227049
1757942201397229300,3.696229248046875,-0.7914332862854003,7.651718868255615,-1.9627964485168456
1757942201407314200,3.706314208984375,-0.8037035697937012,7.995586081695556,-2.3220763351440428
1757942201417399300,3.7163994140625,-0.7803601036071777,8.44644418182373,-2.635267839813232
1757942201427484200,3.726484130859375,-0.8096890739440917,8.927379440307616,-2.8688521392822266
1757942201437569300,3.7365693359375,-0.8925883064270019,9.319579599761962,-3.1343092483520505
1757942201447654100,3.746654052734375,-0.8869020774841309,9.669432317352294,-3.187580235290527
1757942201457739300,3.7567392578125,-0.8903437423706054,9.988010775756836,-3.084180651092529
1757942201467824000,3.76682421875,-0.9358335739135741,10.212766456604003,-3.0150480781555173
1757942201477909200,3.7769091796875,-1.0021230323791503,10.352527978515624,-2.973149549102783
1757942201487993300,3.786993408203125,-1.0108020133972166,10.382904412078856,-2.936189060974121
1757942201498078500,3.797078369140625,-1.0712556053161622,10.385148976135254,-2.964919480895996
1757942201508163300,3.807163330078125,-1.1909656883239745,10.32888523712158,-2.9231705894470212
1757942201518248200,3.817248291015625,-1.2633902885437012,10.194510668945313,-2.801964130401611
1757942201528333300,3.827333251953125,-1.2856862915039062,10.026018727111817,-2.66205297088623
1757942201538418200,3.837418212890625,-1.2381015335083008,9.883563728332518,-2.5178023208618163
1757942201548503300,3.84750341796875,-1.196502279663086,9.753229375457764,-2.33045604095459
1757942201558588200,3.857588134765625,-1.196352642059326,9.567678746795654,-2.105550722503662
1757942201568673300,3.86767333984375,-1.211765315246582,9.405022671508789,-1.8562544746398926
1757942201578757400,3.87775732421875,-1.18108960647583,9.285162950897217,-1.6135422813415525
1757942201588842500,3.887842529296875,-1.128117894744873,9.191340173339842,-1.430685129547119
1757942201598927400,3.89792724609375,-1.142183829498291,9.089137689971924,-1.2542623947143554
1757942201609012500,3.908012451171875,-1.116595799255371,9.049034812164306,-1.1659762084960936
1757942201619097300,3.918097412109375,-1.0527005424499511,9.076717768859863,-1.1679214973449705
1757942201629182500,3.928182373046875,-1.0045172340393065,9.088988052368164,-1.1902175003051758
1757942201639267300,3.938267333984375,-0.9705494979858398,9.138218824005126,-1.1849801841735839
1757942201649352200,3.948352294921875,-0.9596259529113769,9.182661192321778,-1.178545767211914
1757942201659437300,3.958437255859375,-0.9524433479309081,9.24461116027832,-1.1378443389892579
1757942201669521400,3.968521484375,-0.9654618194580078,9.298331060028076,-1.1469722328186034
1757942201679606500,3.9786064453125,-1.0033201332092285,9.284714038085937,-1.140837091064453
1757942201689691400,3.98869140625,-1.0099041877746582,9.311050256347656,-1.1749544647216796
1757942201699776500,3.998776611328125,-1.013794765472412,9.399486080169677,-1.202787059020996
1757942201709861400,4.008861328125,-1.0770914718627929,9.459939672088623,-1.2198457458496093
1757942201719946500,4.018946533203125,-1.074547632598877,9.530119708251952,-1.230918928527832
1757942201730031400,4.02903125,-1.059134959411621,9.63456675567627,-1.2373533454895018
1757942201740116500,4.039116455078125,-1.0308534523010253,9.703250415802001,-1.2173019065856934
1757942201750200300,4.049200439453125,-1.024718310546875,9.79378116607666,-1.2684779670715332
1757942201760285400,4.059285400390625,-1.0498574279785156,9.828048177337646,-1.4036007232666015
1757942201770370300,4.069370361328125,-1.031751277923584,9.899724589538573,-1.51942022857666
1757942201780455400,4.079455322265625,-1.0922048698425293,9.923816243743897,-1.5515923133850096
1757942201790540300,4.089540283203125,-1.0959458099365234,9.938331091308592,-1.559074193572998
1757942201800625400,4.09962548828125,-1.0170867927551268,9.9338419631958,-1.4775216995239258
1757942201810710500,4.10971044921875,-0.950647696685791,9.96556513519287,-1.3850456604003905
1757942201820795400,4.11979541015625,-0.8677484642028808,9.930101023101805,-1.3521253875732422
1757942201830880500,4.129880615234375,-0.8716390419006347,9.874435834503172,-1.3739724777221678
1757942201840964400,4.13996435546875,-0.9302969825744628,9.757269590759277,-1.301098964691162
1757942201851049500,4.150049560546875,-0.910395181274414,9.669282679748534,-1.2095207511901855
1757942201861134300,4.16013427734375,-0.8726865051269531,9.610924014282226,-1.134402674102783
1757942201871219500,4.170219482421875,-0.8325836273193359,9.566481645965576,-1.1291653579711913
1757942201881304300,4.18030419921875,-0.8054992210388183,9.532663547515869,-1.2256816123962402
1757942201891389400,4.190389404296875,-0.7888894470214843,9.50004254989624,-1.2753612968444823
1757942201901474300,4.200474365234375,-0.7951742263793945,9.469516478729247,-1.2792518745422363
1757942201911559400,4.210559326171875,-0.7896376350402832,9.48133784942627,-1.1917138763427733
1757942201921644500,4.22064453125,-0.7803601036071777,9.492111756896971,-1.0871171913146973
1757942201931728400,4.230728271484375,-0.7411550514221191,9.50632732925415,-1.0682628532409668
1757942201941813200,4.240813232421875,-0.7564180870056152,9.53760158843994,-1.0893617553710937
1757942201951898400,4.2508984375,-0.8083423355102538,9.57037222366333,-1.1219827529907227
1757942201961983500,4.2609833984375,-0.8249521095275878,9.586682722473144,-1.1441291183471678
1757942201972068400,4.271068359375,-0.8065466842651366,9.607033436584473,-1.1845312713623046
1757942201982153500,4.281153564453125,-0.8283937744140625,9.617657706451416,-1.2179004570007324
1757942201992238300,4.29123828125,-0.845901374053955,9.604639234924315,-1.2384008087158203
1757942202002323500,4.301323486328125,-0.8652046249389648,9.623343935394287,-1.2246341491699217
1757942202012408300,4.311408203125,-0.905307502746582,9.636512044525146,-1.218648645019531
1757942202022492400,4.321492431640625,-0.9301473449707031,9.67885948638916,-1.224484511566162
1757942202032577300,4.331577392578125,-0.9618705169677734,9.69068085708618,-1.2232874107360838
1757942202042662400,4.341662353515625,-0.965910732269287,9.688885205841064,-1.2147580673217773
1757942202052747300,4.351747314453125,-0.9093477180480957,9.696516723632811,-1.2412439231872558
1757942202062832400,4.361832275390625,-0.8524854286193847,9.709834470367431,-1.1888707618713379
1757942202072917200,4.371917236328125,-0.8851064262390136,9.690231944274903,-1.1742062767028807
1757942202083002400,4.38200244140625,-0.8616133224487305,9.680505500030517,-1.1727099006652832
1757942202093087500,4.39208740234375,-0.8725368675231933,9.661351886749268,-1.0877157417297363
1757942202103172400,4.40217236328125,-0.9253589416503906,9.627683425903319,-1.051503441619873
1757942202113256400,4.41225634765625,-0.8753799819946289,9.62753378829956,-1.1381436141967773
1757942202123341300,4.42234130859375,-0.8083423355102538,9.680655137634277,-1.2220903099060059
1757942202133426400,4.432426513671875,-0.8144774772644042,9.620351183319091,-1.2355576942443847
1757942202143511300,4.44251123046875,-0.8482955757141113,9.579200842285156,-1.172111350250244
1757942202153596400,4.452596435546875,-0.852934341430664,9.574711714172363,-1.149815347290039
1757942202163681300,4.462681396484375,-0.8381202186584472,9.543287817382812,-1.1547533882141112
1757942202173766400,4.472766357421875,-0.831835439300537,9.578751929473876,-1.1438298431396483
1757942202183851300,4.482851318359375,-0.8352771041870116,9.609876551055908,-1.09804073638916
1757942202193935400,4.492935302734375,-0.854879630279541,9.629628714752197,-1.1520599113464354
1757942202204020200,4.503020263671875,-0.841412245941162,9.656264208221435,-1.2235866859436035
1757942202214105300,4.513105224609375,-0.8354267417907715,9.610475101470946,-1.3021464279174804
1757942202224190200,4.523190185546875,-0.8562263687133789,9.597157354736327,-1.2918214332580567
1757942202234275300,4.533275390625,-0.9371803123474121,9.558401215362549,-1.3192051147460937
1757942202244360400,4.5433603515625,-1.0031704956054688,9.524283841705321,-1.358559804534912
1757942202254445300,4.5534453125,-0.9852139831542969,9.505579141235351,-1.4215572357177733
1757942202264530400,4.563530517578125,-0.932691184234619,9.496451247406005,-1.4739303970336912
1757942202274615300,4.573615234375,-0.946757118988037,9.450063590240479,-1.5070003074645995
1757942202284700400,4.583700439453125,-0.9154828598022461,9.458144020843505,-1.5460557220458984
1757942202294784300,4.5937841796875,-0.859967308807373,9.454103805541992,-1.5812205589294432
1757942202304869400,4.603869384765625,-0.8348281913757324,9.498246898651123,-1.6066589515686034
1757942202314954200,4.613954345703125,-0.819116242980957,9.498396536254882,-1.6141408317565917
1757942202325039400,4.624039306640625,-0.8466495620727539,9.518298337554931,-1.5918448287963867
1757942202335124200,4.634124267578125,-0.8668506385803222,9.572167874908446,-1.5842133110046386
1757942202345209300,4.644209228515625,-0.9005190994262695,9.62139864654541,-1.548898836517334
1757942202355294200,4.654294189453125,-0.8910919303894043,9.670779055786133,-1.5099930595397948
1757942202365379300,4.66437939453125,-0.8961796089172362,9.700856214141846,-1.467645617675781
1757942202375463200,4.674463134765625,-0.8610147720336914,9.709535195159912,-1.3874398620605468
1757942202385548300,4.68454833984375,-0.8219593574523926,9.748141696929931,-1.305588092803955
1757942202395633200,4.694633056640625,-0.8134300140380859,9.771934075927733,-1.2753612968444823
1757942202405718300,4.70471826171875,-0.762253953552246,9.778667768096923,-1.2629413757324217
1757942202415803400,4.714803466796875,-0.7206546997070312,9.804405435943602,-1.2720692695617675
1757942202425888300,4.72488818359375,-0.7230489013671875,9.827748902130127,-1.2771569480895995
1757942202435973400,4.734973388671875,-0.7026981872558593,9.797073193359374,-1.3006500518798827
1757942202446058200,4.745058349609375,-0.6911760917663574,9.757718503570556,-1.2554594955444336
1757942202456143400,4.755143310546875,-0.6911760917663574,9.717765263366699,-1.2147580673217773
1757942202466227200,4.765227294921875,-0.6887818901062012,9.703848966217041,-1.2403460975646972
1757942202476312300,4.775312255859375,-0.680551821899414,9.682899701690673,-1.2767080352783202
1757942202486397200,4.785397216796875,-0.6889315277099609,9.662399349975585,-1.2660837654113768
1757942202496482300,4.795482421875,-0.6887818901062012,9.65282254333496,-1.2639888389587401
1757942202506567200,4.805567138671875,-0.7122749938964843,9.660753336334228,-1.2394482719421387
1757942202516652300,4.81565234375,-0.7088333290100097,9.654468556976317,-1.2316671165466309
1757942202526737400,4.8257373046875,-0.7143699203491211,9.645340663146973,-1.2237363235473633
1757942202536822000,4.835822021484375,-0.752677146911621,9.623343935394287,-1.2692261550903319
1757942202546907100,4.8459072265625,-0.7381622993469238,9.612570027923583,-1.2823942642211914
1757942202556991000,4.855990966796875,-0.7315782447814941,9.629030164337157,-1.3082815696716308
1757942202567075800,4.866075927734375,-0.758513013458252,9.587131635284424,-1.3459902458190918
1757942202577161000,4.876160888671875,-0.8026561065673827,9.574412438964844,-1.3645453086853025
1757942202587246000,4.88624609375,-0.7971195152282714,9.58952583694458,-1.34703770904541
1757942202597331000,4.8963310546875,-0.7612064903259277,9.587430910491943,-1.3415011177062988
1757942202607416000,4.906416015625,-0.752677146911621,9.58922656173706,-1.334917063140869
1757942202617501000,4.9165009765625,-0.7006032608032227,9.586383447265625,-1.2373533454895018
1757942202627586000,4.9265859375,-0.6718728408813476,9.637559507751464,-1.209820026397705
1757942202637671000,4.9366708984375,-0.6332663391113281,9.67242506942749,-1.3162123626708984
1757942202647755300,4.94675537109375,-0.6145616386413574,9.682600426483154,-1.4024036224365233
1757942202657840000,4.956840087890625,-0.6890811653137207,9.654767832183838,-1.470339094543457
1757942202667925000,4.966925048828125,-0.7442974411010742,9.638008420562743,-1.488145969390869
1757942202678010000,4.977010009765625,-0.7686883705139159,9.644592475128173,-1.4540285957336425
1757942202688095000,4.987094970703125,-0.764199242401123,9.65282254333496,-1.4215572357177733
1757942202698180000,4.99718017578125,-0.7428010650634765,9.68409680252075,-1.4232032493591307
1757942202708265000,5.007264892578125,-0.6343138023376464,9.692925421142577,-1.3902829765319824
1757942202718350000,5.01735009765625,-0.5774515129089355,9.719710552215576,-1.3587094421386718
1757942202728435000,5.02743505859375,-0.5629366653442383,9.74275474319458,-1.3518261123657225
1757942202738519300,5.037519287109375,-0.6073790336608886,9.782558345794676,-1.3667898727416992
1757942202748604200,5.047604248046875,-0.6564601676940918,9.79408044128418,-1.4015057968139648
1757942202758689300,5.057689208984375,-0.6908768165588378,9.800963771057129,-1.4561235221862792
1757942202768774100,5.067774169921875,-0.7019499992370605,9.738864165496826,-1.4953285743713378
1757942202778859300,5.077859375,-0.6916250045776366,9.744700032043456,-1.5313912368774414
1757942202788944100,5.087944091796875,-0.7095815170288086,9.784054721832275,-1.5370774658203123
1757942202799029000,5.098029052734375,-0.7281365798950195,9.785401460266113,-1.5195698661804198
1757942202809113900,5.10811376953125,-0.74055650100708,9.76116016845703,-1.4870985061645507
1757942202819198200,5.1181982421875,-0.7408557762145995,9.683049339294433,-1.4332289688110351
1757942202829283000,5.128282958984375,-0.757166275024414,9.692326870727538,-1.4649521408081054
1757942202839368200,5.1383681640625,-0.77886372756958,9.618555532073975,-1.4399626609802245
1757942202849453000,5.148453125,-0.8041524826049804,9.543886367797851,-1.3648445838928223
1757942202859538200,5.1585380859375,-0.7736264114379883,9.587879823303222,-1.3875894996643066
1757942202869623300,5.168623291015625,-0.7499836700439453,9.629179801940918,-1.426196001434326
1757942202879708200,5.178708251953125,-0.7215525253295898,9.62753378829956,-1.4474445411682129
1757942202889793300,5.188793212890625,-0.7231985389709472,9.648931965637207,-1.4223054237365722
1757942202899878100,5.198878173828125,-0.7630021415710448,9.655665657806395,-1.3792097938537597
1757942202909962200,5.208962158203125,-0.7439981658935546,9.667636666107176,-1.3440449569702149
1757942202920047000,5.219047119140625,-0.699106884765625,9.664793551635741,-1.3482348098754882
1757942202930132200,5.22913232421875,-0.6980594215393066,9.664195001220703,-1.3215993164062498
1757942202940217000,5.239217041015625,-0.6985083343505859,9.638158058166503,-1.2802993377685545
1757942202950302200,5.24930224609375,-0.7341220840454101,9.619453357696532,-1.284489190673828
1757942202960387000,5.259386962890625,-0.7278373046875,9.603891046905517,-1.2541127571105957
1757942202970472200,5.26947216796875,-0.7136217323303222,9.597905542755127,-1.2427402992248535
1757942202980557300,5.279557373046875,-0.7013514488220215,9.586832360076905,-1.2409446479797364
1757942202990642200,5.28964208984375,-0.7228992637634277,9.55645592651367,-1.1743559143066407
1757942203000726000,5.29972607421875,-0.70868369140625,9.519794713592528,-1.2023381462097167
1757942203010811100,5.30981103515625,-0.7395090377807617,9.618854807281494,-1.2192471954345703
1757942203020896300,5.319896240234375,-0.6772597946166992,9.593865327453612,-1.2147580673217773
1757942203030981000,5.329981201171875,-0.6555623420715332,9.647884502410887,-1.2551602203369139
1757942203041066200,5.340066162109375,-0.646733723449707,9.6656913772583,-1.2198457458496093
1757942203051151000,5.350151123046875,-0.6362590911865234,9.663746088409424,-1.1671733093261718
1757942203061236200,5.360236328125,-0.6593032821655274,9.7039986038208,-1.1496657096862792
1757942203071321000,5.370321044921875,-0.6221931564331055,9.724199680328368,-1.1617863555908203
1757942203081406200,5.38040625,-0.6382043800354004,9.708338094329834,-1.1890203994750976
1757942203091490000,5.390489990234375,-0.6353612655639648,9.69756418685913,-1.2234370483398436
1757942203101575200,5.4005751953125,-0.6607996582031249,9.674819271087646,-1.258452247619629
1757942203111660000,5.410659912109375,-0.6923731925964355,9.600150106811522,-1.1848305465698241
1757942203121745200,5.4207451171875,-0.7429507026672363,9.586981997680663,-1.2427402992248535
1757942203131830000,5.430830078125,-0.8138789268493651,9.739163440704345,-1.273116732788086
1757942203141915100,5.4409150390625,-0.7445967163085937,9.698611650085448,-1.3667898727416992
1757942203152000300,5.451000244140625,-0.7395090377807617,9.744999307250977,-1.3792097938537597
1757942203162085000,5.461085205078125,-0.6859387756347656,9.720009827423095,-1.2984054878234863
1757942203172169000,5.4711689453125,-0.6808510971069336,9.692626145935058,-1.282693539428711
1757942203182254000,5.481254150390625,-0.6757634185791015,9.662848262786865,-1.3623007446289062
1757942203192339200,5.491339111328125,-0.7267898414611816,9.66673884048462,-1.3784616058349608
1757942203202424000,5.501424072265625,-0.7933785751342773,9.653870006561279,-1.3452420578002928
1757942203212509200,5.51150927734375,-0.827346311187744,9.641001172637939,-1.3079822944641113
1757942203222594000,5.521593994140625,-0.7591115638732909,9.670779055786133,-1.285087741088867
1757942203232679200,5.53167919921875,-0.6860884132385253,9.674370358276366,-1.3051391799926757
1757942203242764000,5.541763916015625,-0.6775590698242188,9.660603698730467,-1.3079822944641113
1757942203252849200,5.55184912109375,-0.6965630455017089,9.649530516052245,-1.3078326568603516
1757942203262933000,5.56193310546875,-0.7184101356506347,9.662249712371825,-1.2943652725219725
1757942203273018000,5.57201806640625,-0.7196072364807129,9.681552963256836,-1.3021464279174804
1757942203283103000,5.58210302734375,-0.699106884765625,9.695918173217773,-1.3459902458190918
1757942203293188000,5.59218798828125,-0.6832452987670898,9.717465988159178,-1.3639467582702636
1757942203303273200,5.602273193359375,-0.6860884132385253,9.728988083648682,-1.357961254119873
1757942203313358000,5.612358154296875,-0.7197568740844726,9.726294606781005,-1.3174094635009765
1757942203323443200,5.622443115234375,-0.7357680976867675,9.718513451385498,-1.3033435287475585
1757942203333528000,5.632528076171875,-0.7212532501220703,9.70459715423584,-1.3298293846130371
1757942203343613200,5.64261328125,-0.729034405517578,9.687089554595946,-1.332373223876953
1757942203353697000,5.652697021484375,-0.7468412803649902,9.649231240844726,-1.324741706085205
1757942203363782100,5.6627822265625,-0.7392097625732421,9.63307037963867,-1.3009493270874022
1757942203373867000,5.672866943359375,-0.7339724464416504,9.641898998260498,-1.2855366539001465
1757942203383952100,5.6829521484375,-0.7818564796447753,9.647435589599608,-1.2662334030151365
1757942203394037000,5.693037109375,-0.7559691741943358,9.670180505371093,-1.2865841171264647
1757942203404122000,5.7031220703125,-0.7240963645935058,9.681403325653076,-1.313818161010742
1757942203414207000,5.71320703125,-0.7025485496520996,9.625887774658203,-1.3296797470092772
1757942203424292000,5.7232919921875,-0.6845920372009276,9.589974749755859,-1.3175591011047363
1757942203434376000,5.7333759765625,-0.6765116065979003,9.564835632324218,-1.2811971633911132
1757942203444461000,5.7434609375,-0.7004536231994628,9.546729482269287,-1.2556091331481933
1757942203454546000,5.7535458984375,-0.7665934440612793,9.59581061630249,-1.2773065856933592
1757942203464631000,5.763631103515625,-0.7457938171386719,9.617657706451416,-1.279401512145996
1757942203474716200,5.773716064453125,-0.7164648468017578,9.674220720672606,-1.1974001052856444
1757942203484801000,5.783801025390625,-0.6968623207092285,9.771485163116454,-1.2208932090759277
1757942203494886100,5.79388623046875,-0.7032967376708984,9.81293477935791,-1.2217910346984862
1757942203504971000,5.803970947265625,-0.7416039642333984,9.805003986358642,-1.2425906616210938
1757942203515056000,5.81405615234375,-0.7781155395507812,9.777919580078125,-1.213560966491699
1757942203525140000,5.824139892578125,-0.7281365798950195,9.751882637023925,-1.1953051788330078
1757942203535225000,5.83422509765625,-0.7321767951965331,9.725396781158446,-1.160738892364502
1757942203545310500,5.844310546875,-0.7246949150085449,9.656862758636475,-1.1490671592712403
1757942203555395300,5.854395263671875,-0.7012018112182616,9.635165306091308,-1.2301707405090332
1757942203565480400,5.86448046875,-0.6881833396911621,9.601047932434081,-1.2589011604309082
1757942203575565300,5.8745654296875,-0.7447463539123534,9.566032733154296,-1.2457330513000489
1757942203585650400,5.884650390625,-0.7598597518920898,9.549273321533203,-1.2466308769226073
1757942203595735300,5.8947353515625,-0.748936206817627,9.577405191040038,-1.2617442749023438
1757942203605819400,5.9048193359375,-0.7363666481018066,9.600898294830321,-1.236605157470703
1757942203615904300,5.914904296875,-0.7179612228393554,9.605387422943116,-1.2217910346984862
1757942203625989400,5.9249892578125,-0.7315782447814941,9.628880526733397,-1.275510934448242
1757942203636074200,5.93507421875,-0.7468412803649902,9.645191025543213,-1.3142670738220215
1757942203646159400,5.945159423828125,-0.7610568527221679,9.636661682128906,-1.303642803955078
1757942203656244500,5.955244384765625,-0.7435492530822754,9.62139864654541,-1.2901754196166992
1757942203666329300,5.965329345703125,-0.725293465423584,9.623194297790526,-1.2798504249572753
1757942203676414500,5.97541455078125,-0.7425017898559569,9.617508068847656,-1.2740145584106444
1757942203686498300,5.985498291015625,-0.7547720733642578,9.622446109771728,-1.2641384765625
1757942203696583400,5.99558349609375,-0.7565677246093749,9.662698625183104,-1.300500414276123
1757942203706668300,6.005668212890625,-0.7573159126281738,9.677512747955321,-1.3274351829528808
1757942203716753400,6.01575341796875,-0.7577648254394531,9.676016371917724,-1.3329717742919922
1757942203726838300,6.02583837890625,-0.7797615531921386,9.672724344635009,-1.3121721473693846
1757942203736923400,6.03592333984375,-0.757166275024414,9.674519995880127,-1.328632283782959
1757942203747008300,6.04600830078125,-0.7700351089477538,9.661351886749268,-1.3377601776123047
1757942203757093400,6.05609326171875,-0.7776666267395019,9.651026892089844,-1.349581548309326
1757942203767178500,6.066178466796875,-0.751480046081543,9.648782328033446,-1.3407529296874998
1757942203777262300,6.076262451171875,-0.7260416534423828,9.67227543182373,-1.2904746948242187
1757942203787347200,6.08634716796875,-0.6979097839355468,9.661202249145507,-1.2597989860534666
1757942203797432300,6.096432373046875,-0.7243956398010254,9.664643914031982,-1.2056301734924315
1757942203807517400,6.106517333984375,-0.7555202613830566,9.658508772277832,-1.1879729362487792
1757942203817602300,6.116602294921875,-0.7483376564025879,9.67856021118164,-1.2319663917541503
1757942203827687400,6.1266875,-0.7544727981567383,9.725396781158446,-1.2544120323181152
1757942203837772300,6.136772216796875,-0.730979694366455,9.768791686248779,-1.2222399475097656
1757942203847857400,6.146857421875,-0.7426514274597168,9.756820677947998,-1.163881282043457
1757942203857941500,6.15694140625,-0.713771369934082,9.75517466430664,-1.1335048484802246
1757942203868026400,6.1670263671875,-0.7026981872558593,9.764152920532226,-1.1418845542907714
1757942203878111500,6.177111572265625,-0.7140706451416016,9.784802909851074,-1.152957736968994
1757942203888196400,6.1871962890625,-0.6814496475219726,9.738714527893066,-1.1872247482299805
1757942203898281200,6.19728125,-0.7000047103881836,9.718214176177979,-1.2304700157165527
1757942203908366300,6.207366455078125,-0.7031471000671387,9.70968483276367,-1.2316671165466309
1757942203918451200,6.217451171875,-0.7175123100280761,9.661052611541747,-1.236605157470703
1757942203928536300,6.227536376953125,-0.7483376564025879,9.62139864654541,-1.2204442962646485
1757942203938620400,6.237620361328125,-0.7532756973266601,9.601197570037842,-1.228973639678955
1757942203948705500,6.24770556640625,-0.7378630241394043,9.623194297790526,-1.248127252960205
1757942203958790400,6.257790283203125,-0.7248445526123046,9.616011692810059,-1.2797007873535156
1757942203968875500,6.26787548828125,-0.6988076095581054,9.61496422958374,-1.291671795654297
1757942203978960600,6.277960693359375,-0.7650970680236816,9.586832360076905,-1.317708738708496
1757942203989045500,6.28804541015625,-0.7890390846252441,9.594164602661133,-1.2825439018249511
1757942203999130400,6.29813037109375,-0.7809586540222168,9.596708441925049,-1.274912384033203
1757942204009215200,6.30821533203125,-0.7785644523620605,9.585784896850585,-1.2814964385986327
1757942204019300400,6.31830029296875,-0.739957950592041,9.570821136474608,-1.2892775939941405
1757942204029384400,6.328384521484375,-0.7365162857055664,9.55690483932495,-1.2594997108459471
1757942204039469600,6.338469482421875,-0.7519289588928222,9.566481645965576,-1.2786533241271971
1757942204049554400,6.348554443359375,-0.7872434333801269,9.58892728652954,-1.3060370056152344
1757942204059639600,6.3586396484375,-0.8144774772644042,9.624989949035644,-1.3263877197265623
1757942204069724400,6.368724365234375,-0.7912836486816406,9.652672905731201,-1.3868413116455078
1757942204079809500,6.3788095703125,-0.7794622779846191,9.689783031463623,-1.4047978240966796
1757942204089894700,6.388894775390625,-0.7938274879455566,9.724349317932129,-1.421108322906494
1757942204099979500,6.3989794921875,-0.8198644309997558,9.74335329360962,-1.4469956283569334
1757942204110063400,6.4090634765625,-0.7748235122680663,9.712527947235106,-1.3513771995544432
1757942204120148500,6.4191484375,-0.762253953552246,9.701903677368163,-1.333121411895752
1757942204130233600,6.429233642578125,-0.7606079399108886,9.670330142974853,-1.3121721473693846
1757942204140318500,6.439318359375,-0.762253953552246,9.643545011901855,-1.3371616271972655
1757942204150403600,6.449403564453125,-0.7809586540222168,9.609427638244629,-1.3383587280273437
1757942204160488400,6.459488525390625,-0.7823053924560547,9.60838017501831,-1.3431471313476562
1757942204170573600,6.469573486328125,-0.788440534210205,9.590872575378418,-1.3326724990844725
1757942204180658400,6.479658447265625,-0.79801734085083,9.578452654266357,-1.3268366325378418
1757942204190742500,6.489742431640625,-0.7811082916259765,9.596858079528808,-1.2873323051452636
1757942204200827400,6.499827392578125,-0.7721300354003906,9.605686698150635,-1.246780514526367
1757942204210912500,6.50991259765625,-0.7534253349304199,9.62783306350708,-1.2403460975646972
1757942204220997400,6.519997314453125,-0.7451952667236328,9.65312181854248,-1.211166764831543
1757942204231082500,6.53008251953125,-0.7600093894958496,9.677363110351562,-1.2671312286376952
1757942204241167400,6.54016748046875,-0.7688380081176758,9.673322895050049,-1.244386312866211
1757942204251252500,6.55025244140625,-0.7423521522521972,9.663895726013182,-1.2804489753723143
1757942204261337600,6.560337646484375,-0.7640496047973633,9.670180505371093,-1.252616381072998
1757942204271421400,6.57042138671875,-0.771830760192871,9.653870006561279,-1.274912384033203
1757942204281506300,6.58050634765625,-0.7378630241394043,9.645490300750732,-1.3281833709716797
1757942204291591400,6.59059130859375,-0.743100340270996,9.65282254333496,-1.3361141639709473
1757942204301676500,6.600676513671875,-0.7911340110778808,9.660753336334228,-1.3244424308776854
1757942204311761400,6.610761474609375,-0.7887398094177246,9.664793551635741,-1.307383744049072
1757942204321846500,6.620846435546875,-0.8219593574523926,9.660603698730467,-1.2993033134460448
1757942204331931400,6.630931396484375,-0.8259995727539062,9.656114570617675,-1.2683283294677734
1757942204342016500,6.6410166015625,-0.7899369102478027,9.66673884048462,-1.2797007873535156
1757942204352100400,6.651100341796875,-0.7535749725341796,9.682001876068115,-1.323544605255127
1757942204362185500,6.661185546875,-0.7730278610229492,9.658359134674072,-1.2993033134460448
1757942204372270300,6.671270263671875,-0.7881412590026855,9.639504796600342,-1.2716203567504882
1757942204382355500,6.68135546875,-0.7621043159484863,9.62124900894165,-1.2611457244873046
1757942204392440300,6.6914404296875,-0.7653963432312011,9.618256256866454,-1.2687772422790526
1757942204402525400,6.701525390625,-0.7700351089477538,9.623194297790526,-1.2922703460693359
1757942204412610600,6.711610595703125,-0.7492354820251464,9.626336687469482,-1.2675801414489745
1757942204422695400,6.7216953125,-0.7624035911560059,9.619602995300292,-1.2678794166564942
1757942204432779300,6.731779296875,-0.7426514274597168,9.635314943695068,-1.3025953407287596
1757942204442864400,6.741864501953125,-0.7535749725341796,9.680355862426758,-1.3034931663513183
1757942204452949500,6.751949462890625,-0.7565677246093749,9.68559317855835,-1.3250409812927246
1757942204463034400,6.762034423828125,-0.7688380081176758,9.677213472747802,-1.2994529510498045
1757942204473119500,6.772119384765625,-0.8203133438110352,9.679308399200439,-1.2814964385986327
1757942204483204400,6.782204345703125,-0.7956231391906737,9.715371061706543,-1.2161048057556152
1757942204493289500,6.79228955078125,-0.7383119369506835,9.714772511291503,-1.2382511711120605
1757942204503373300,6.802373291015625,-0.7076362281799315,9.762656544494629,-1.244386312866211
1757942204513458400,6.81245849609375,-0.7267898414611816,9.768791686248779,-1.262791738128662
1757942204523543300,6.822543212890625,-0.7478887435913085,9.725845693969726,-1.2841899154663086
1757942204533628400,6.83262841796875,-0.735468822479248,9.703100778198241,-1.2629413757324217
1757942204543712500,6.84271240234375,-0.7468412803649902,9.73572177581787,-1.2783540489196776
1757942204553797400,6.85279736328125,-0.7448959915161132,9.717765263366699,-1.272368544769287
1757942204563882500,6.862882568359375,-0.7543231605529784,9.699060562896728,-1.2847884658813475
1757942204573967400,6.87296728515625,-0.7636006919860839,9.629179801940918,-1.280000062561035
1757942204584051700,6.8830517578125,-0.7619546783447265,9.60239467086792,-1.259050798034668
1757942204594136600,6.893136474609375,-0.8215104446411132,9.591171850585937,-1.2259808876037597
1757942204604221700,6.9032216796875,-0.8363245674133301,9.573364975738524,-1.2298714653015137
1757942204614306600,6.913306640625,-0.7935282127380371,9.583241057586669,-1.2829928146362304
1757942204624391700,6.9233916015625,-0.7697358337402344,9.589376199340819,-1.3051391799926757
1757942204634476500,6.9334765625,-0.7755717002868652,9.566481645965576,-1.256357321166992
1757942204644561400,6.9435615234375,-0.7671919944763184,9.5384994140625,-1.2105682144165038
1757942204654646500,6.953646484375,-0.7799111907958984,9.507225154876709,-1.2259808876037597
1757942204664730600,6.963730712890625,-0.838868406677246,9.510068269348144,-1.2841899154663086
1757942204674815700,6.973815673828125,-0.8681973770141601,9.560496141815184,-1.3244424308776854
1757942204684900600,6.983900634765625,-0.8518868782043456,9.590274024963378,-1.347785897064209
1757942204694985700,6.99398583984375,-0.8060977714538574,9.637110594940186,-1.3153145370483397
1757942204705070600,7.004070556640625,-0.8008604553222656,9.672125794219971,-1.3007996894836424
1757942204715155700,7.01415576171875,-0.8288426872253417,9.671676881408692,-1.304241354370117
1757942204725240600,7.024240478515625,-0.8147767524719238,9.697115274047851,-1.3000515014648437
1757942204735325700,7.03432568359375,-0.8090905235290526,9.686341366577148,-1.272368544769287
1757942204745409500,7.044409423828125,-0.8108861747741699,9.669581954956055,-1.2406453727722166
1757942204755494700,7.05449462890625,-0.7926303871154785,9.649380878448486,-1.241094285583496
1757942204765579500,7.06457958984375,-0.8066963218688964,9.615413142395019,-1.2853870162963867
1757942204775664600,7.07466455078125,-0.814028564453125,9.574262801361083,-1.2922703460693359
1757942204785749500,7.08474951171875,-0.7586626510620117,9.578751929473876,-1.27042325592041
1757942204795834600,7.094834716796875,-0.7344213592529296,9.611971477508545,-1.2294225524902342
1757942204805919700,7.104919677734375,-0.702847824859619,9.645939213562011,-1.1890203994750976
1757942204816003600,7.115003662109375,-0.6934206558227539,9.64638812637329,-1.152359186553955
1757942204826088400,7.12508837890625,-0.6988076095581054,9.65282254333496,-1.1813888816833495
1757942204836173600,7.135173583984375,-0.7351695472717285,9.664344638824462,-1.1887211242675781
1757942204846258700,7.1452587890625,-0.7480383811950683,9.655366382598876,-1.2137106040954588
1757942204856343600,7.155343505859375,-0.7751227874755859,9.676016371917724,-1.228973639678955
1757942204866428700,7.1654287109375,-0.7499836700439453,9.671527243804931,-1.2753612968444823
1757942204876513500,7.175513427734375,-0.7460930923461914,9.670629418182372,-1.2774562232971192
1757942204886598700,7.1855986328125,-0.7498340324401855,9.669133042144775,-1.2927192588806151
1757942204896682500,7.1956826171875,-0.7619546783447265,9.662997900390625,-1.3156138122558594
1757942204906767600,7.205767578125,-0.762253953552246,9.676166009521484,-1.304241354370117
1757942204916852500,7.2158525390625,-0.7770680763244628,9.675417821502686,-1.3353659759521483
1757942204926937600,7.2259375,-0.7549217109680175,9.674370358276366,-1.3302782974243164
1757942204937022500,7.2360224609375,-0.7685387329101562,9.69741454925537,-1.2675801414489745
1757942204947107600,7.246107666015625,-0.7950245887756348,9.706542443084716,-1.224484511566162
1757942204957192700,7.256192626953125,-0.8116343627929687,9.690231944274903,-1.230320378112793
1757942204967277600,7.266277587890625,-0.8113350875854491,9.677213472747802,-1.220743571472168
1757942204977361400,7.276361328125,-0.7719803977966309,9.668235216522216,-1.2201450210571287
1757942204987446500,7.286446533203125,-0.7618050407409668,9.673622170257568,-1.2315174789428711
1757942204997531600,7.29653173828125,-0.7459434547424316,9.664793551635741,-1.2336124053955078
1757942205007616500,7.306616455078125,-0.7746738746643066,9.673771807861328,-1.2144587921142578
1757942205017701600,7.31670166015625,-0.7496843948364257,9.65910732269287,-1.1917138763427733
1757942205027786500,7.326786376953125,-0.7402572257995605,9.647136314392089,-1.1501146224975585
1757942205037871600,7.33687158203125,-0.7386112121582031,9.647585227203368,-1.1558008514404297
1757942205047956500,7.34695654296875,-0.7420528770446777,9.658508772277832,-1.157446865081787
1757942205058040600,7.35704052734375,-0.7438485282897949,9.68499462814331,-1.1628338188171385
1757942205068125400,7.36712548828125,-0.7591115638732909,9.693075058746338,-1.208473287963867
1757942205078210600,7.37721044921875,-0.7835024932861328,9.662848262786865,-1.1984475685119629
1757942205088295400,7.38729541015625,-0.7634510543823242,9.693972884368895,-1.2152069801330565
1757942205098380500,7.397380615234375,-0.7386112121582031,9.690082306671142,-1.2442366752624512
1757942205108465400,7.40746533203125,-0.7511807708740234,9.6794580368042,-1.2349591438293457
1757942205118550500,7.417550537109375,-0.7279869422912597,9.700407301330566,-1.211166764831543
1757942205128634400,7.42763427734375,-0.7420528770446777,9.712677584838866,-1.2345102310180662
1757942205138719500,7.437719482421875,-0.7588122886657714,9.701604402160644,-1.2451345008850097
1757942205148804400,7.447804443359375,-0.7387608497619629,9.71013374557495,-1.2300211029052734
1757942205158889500,7.457889404296875,-0.7435492530822754,9.706542443084716,-1.2210428466796874
1757942205168974600,7.467974609375,-0.75971011428833,9.687538467407226,-1.2020388710021972
1757942205179059500,7.4780595703125,-0.7371148361206055,9.693523971557617,-1.214309154510498
1757942205189144600,7.48814453125,-0.7101800674438477,9.715071786499022,-1.2479776153564452
1757942205199229400,7.4982294921875,-0.687584789276123,9.68484499053955,-1.25126964263916
1757942205209313500,7.5083134765625,-0.7113771682739257,9.672574707031249,-1.237203707885742
1757942205219398400,7.5183984375,-0.7453449043273925,9.661501524353026,-1.2503718170166014
1757942205229483500,7.5284833984375,-0.7749731498718261,9.661800799560547,-1.2740145584106444
1757942205239568400,7.538568359375,-0.769286920928955,9.668684129333496,-1.2811971633911132
1757942205249653500,7.548653564453125,-0.751480046081543,9.648183777618408,-1.2687772422790526
1757942205259738400,7.55873828125,-0.6970119583129882,9.628880526733397,-1.257105509185791
1757942205269823500,7.568823486328125,-0.6829460235595702,9.597606267547606,-1.2331634925842285
1757942205279907600,7.578907470703125,-0.6919242797851562,9.594613515472412,-1.205929448699951
1757942205289992400,7.588992431640625,-0.7257423782348632,9.555258825683593,-1.214907704925537
1757942205300077300,7.599077392578125,-0.7621043159484863,9.565284545135498,-1.2536638442993164
1757942205310162400,7.609162353515625,-0.7646481552124023,9.605237785339355,-1.2286743644714355
1757942205320247600,7.61924755859375,-0.7199065116882324,9.641749360656737,-1.2363058822631836
1757942205330332400,7.62933251953125,-0.7012018112182616,9.711929396820068,-1.2262801628112792
1757942205340417500,7.63941748046875,-0.7097311546325683,9.736469963836669,-1.191264963531494
1757942205350502400,7.64950244140625,-0.6821978355407714,9.765499658966064,-1.1569979522705078
1757942205360586800,7.659586669921875,-0.6627449470520019,9.78674819869995,-1.1809399688720703
1757942205370671600,7.669671630859375,-0.6304232246398925,9.803956523132324,-1.2517185554504393
1757942205380756700,7.6797568359375,-0.6157587394714356,9.798569569396973,-1.2541127571105957
1757942205390841600,7.689841552734375,-0.661398208618164,9.737367789459228,-1.2367547950744628
1757942205400926500,7.699926513671875,-0.72140288772583,9.681552963256836,-1.218798282623291
1757942205411011600,7.710011474609375,-0.7525275093078613,9.648333415222167,-1.200841770172119
1757942205421096400,7.720096435546875,-0.7257423782348632,9.630227265167235,-1.2292729148864745
1757942205431181300,7.730181396484375,-0.7058405769348144,9.642347911071777,-1.230320378112793
1757942205441265700,7.740265625,-0.7104793426513671,9.628281976318359,-1.199495031738281
1757942205451350500,7.7503505859375,-0.697161595916748,9.617059156036376,-1.2071265495300292
1757942205461435600,7.760435546875,-0.7050923889160156,9.638158058166503,-1.1897685874938964
1757942205471520800,7.770520751953125,-0.7053916641235352,9.655964933013916,-1.1742062767028807
1757942205481605600,7.780605712890625,-0.7188590484619141,9.649680153656005,-1.1893196746826171
1757942205491690800,7.790690673828125,-0.751480046081543,9.636212769317627,-1.183633445739746
1757942205501775600,7.800775634765625,-0.7441478034973145,9.657311671447752,-1.1854290969848633
1757942205511859700,7.810859619140625,-0.7107786178588866,9.671527243804931,-1.1896189498901366
1757942205521944600,7.820944580078125,-0.6795043586730957,9.699509475708007,-1.2176011817932129
1757942205532029700,7.83102978515625,-0.6768108818054199,9.682750064086914,-1.2701239807128906
1757942205542114800,7.84111474609375,-0.7190086860656738,9.65955623550415,-1.2927192588806151
1757942205552200000,7.851199951171875,-0.7734767738342284,9.65865840988159,-1.2575544219970702
1757942205562285000,7.86128515625,-0.7963713272094726,9.669581954956055,-1.2381015335083008
1757942205572370000,7.871369873046875,-0.7888894470214843,9.644143562316893,-1.2455834136962889
1757942205582453800,7.881453857421875,-0.7719803977966309,9.655815295410155,-1.2852373786926268
1757942205592539000,7.891538818359375,-0.7553706237792969,9.669731592559813,-1.2789525993347166
1757942205602624000,7.9016240234375,-0.7425017898559569,9.668235216522216,-1.2473790649414063
1757942205612708900,7.911708984375,-0.7517793212890624,9.67841057357788,-1.192611701965332
1757942205622794000,7.9217939453125,-0.7490858444213867,9.673322895050049,-1.135150862121582
1757942205632878800,7.93187890625,-0.7154173835754394,9.689034843444823,-1.1391910774230956
1757942205642964000,7.9419638671875,-0.7223007133483886,9.673023619842528,-1.143380930328369
1757942205653048800,7.952048828125,-0.7249941902160644,9.674669633483886,-1.1127052215576172
1757942205663133000,7.9621328125,-0.7110778930664062,9.681702600860595,-1.1206360145568848
1757942205673217800,7.9722177734375,-0.7032967376708984,9.67841057357788,-1.1487678840637205
1757942205683303000,7.982302978515625,-0.7164648468017578,9.696217448425292,-1.1767501159667968
1757942205693387800,7.9923876953125,-0.7371148361206055,9.69157868270874,-1.1905167755126953
1757942205703473000,8.002472900390625,-0.7285854927062988,9.663446813201904,-1.202787059020996
1757942205713557800,8.012557861328125,-0.7173626724243164,9.679308399200439,-1.1911153259277343
1757942205723643000,8.022642822265626,-0.728435855102539,9.67137760620117,-1.2110171272277832
1757942205733728000,8.03272802734375,-0.7420528770446777,9.681552963256836,-1.2161048057556152
1757942205743811800,8.042811767578126,-0.7411550514221191,9.674968908691406,-1.2424410240173338
1757942205753897000,8.05289697265625,-0.7451952667236328,9.658808047485351,-1.247528702545166
1757942205763981800,8.06298193359375,-0.7775169891357422,9.676914197540283,-1.2376526206970213
1757942205774067000,8.07306689453125,-0.7637503295898437,9.673622170257568,-1.220743571472168
1757942205784151800,8.08315185546875,-0.7957727767944336,9.660603698730467,-1.2243348739624023
1757942205794237000,8.09323681640625,-0.7652467056274413,9.670330142974853,-1.262791738128662
1757942205804321800,8.10332177734375,-0.7915829238891601,9.674968908691406,-1.2734160079956054
1757942205814406000,8.113406005859375,-0.8019079185485839,9.670479780578614,-1.24498486328125
1757942205824490800,8.12349072265625,-0.8040028450012207,9.674519995880127,-1.2228384979248046
1757942205834576000,8.133575927734375,-0.7972691528320313,9.675866734313963,-1.2205939338684082
1757942205844660700,8.14366064453125,-0.771232209777832,9.658508772277832,-1.2505214546203614
1757942205854745900,8.153745849609376,-0.7733271362304687,9.648034140014648,-1.2376526206970213
1757942205864830700,8.163830810546875,-0.7989151664733887,9.629778352355956,-1.2012906829833985
1757942205874915800,8.173915771484374,-0.8237550086975097,9.639504796600342,-1.1700164237976074
1757942205884999700,8.183999755859375,-0.8481459381103515,9.619752632904053,-1.1751041023254394
1757942205895084800,8.194084716796874,-0.8098387115478515,9.660753336334228,-1.2196961082458495
1757942205905169700,8.204169677734376,-0.7775169891357422,9.64698667678833,-1.1837830833435057
1757942205915254800,8.2142548828125,-0.7381622993469238,9.62753378829956,-1.1719617126464843
1757942205925340000,8.22433984375,-0.7555202613830566,9.629927989959716,-1.1628338188171385
1757942205935424800,8.2344248046875,-0.8207622566223144,9.62109937133789,-1.1303624588012695
1757942205945510000,8.244510009765625,-0.8559270935058593,9.63441711807251,-1.16193599319458
1757942205955593700,8.25459375,-0.833182177734375,9.673771807861328,-1.185578734588623
1757942205965678800,8.264678955078125,-0.8004115425109862,9.715371061706543,-1.2425906616210938
1757942205975763700,8.274763671875,-0.7855974197387695,9.726743519592285,-1.2490250785827637
1757942205985848800,8.284848876953125,-0.8364742050170898,9.72330185470581,-1.2080243751525879
1757942205995933700,8.29493359375,-0.8533832542419433,9.693224696350097,-1.2041337974548338
1757942206006018800,8.305018798828126,-0.8502408645629882,9.708338094329834,-1.2026374214172362
1757942206016103700,8.315103759765625,-0.824203921508789,9.727042794799804,-1.2009914077758788
1757942206026188800,8.325188720703125,-0.8087912483215332,9.71058265838623,-1.1656769332885741
1757942206036272600,8.335272705078125,-0.7864952453613281,9.692177233123779,-1.1780968544006347
1757942206046357800,8.345357666015625,-0.8113350875854491,9.693374333953857,-1.1764508407592773
1757942206056442600,8.355442626953124,-0.8102876243591308,9.662100074768066,-1.1662754837036131
1757942206066527700,8.36552783203125,-0.7953238639831542,9.636661682128906,-1.178545767211914
1757942206076612900,8.37561279296875,-0.8043021202087401,9.620351183319091,-1.1822867073059082
1757942206086697700,8.38569775390625,-0.8403647827148437,9.612420390319823,-1.180341418457031
1757942206096782800,8.395782958984375,-0.8330325401306152,9.60239467086792,-1.1468225952148436
1757942206106867000,8.405866943359374,-0.8319850769042968,9.600599019622802,-1.1218331153869627
1757942206116952000,8.4159521484375,-0.847846662902832,9.610624739074707,-1.125574055480957
1757942206127037000,8.426036865234375,-0.8239046463012695,9.632322191619872,-1.1444283935546875
1757942206137121800,8.436121826171876,-0.7915829238891601,9.657461309051513,-1.158793603515625
1757942206147206700,8.44620654296875,-0.8162731285095214,9.65895768508911,-1.1572972274780273
1757942206157291800,8.456291748046874,-0.8098387115478515,9.646088851165771,-1.1358990501403807
1757942206167376600,8.466376708984376,-0.8396165946960449,9.639953709411621,-1.1284171699523926
1757942206177461000,8.4764609375,-0.8466495620727539,9.625139586639404,-1.1673229469299315
1757942206187545900,8.4865458984375,-0.8541314422607421,9.628880526733397,-1.213560966491699
1757942206197631000,8.496630859375,-0.8499415893554687,9.6404026222229,-1.218798282623291
1757942206207715800,8.5067158203125,-0.843956085205078,9.650278704071045,-1.2107178520202635
1757942206217801000,8.516801025390626,-0.8384194938659667,9.658808047485351,-1.1701660614013671
1757942206227885800,8.5268857421875,-0.834379278564453,9.683947164916992,-1.175852290344238
1757942206237971000,8.536970947265624,-0.8530839790344238,9.692177233123779,-1.1821370697021483
1757942206248054800,8.5470546875,-0.8375216682434081,9.692027595520019,-1.1929109771728514
1757942206258140000,8.557139892578125,-0.8209118942260741,9.67197615661621,-1.1879729362487792
1757942206268225000,8.56722509765625,-0.8360252922058105,9.667487028503418,-1.1923124267578125
1757942206278310000,8.577309814453125,-0.8336310905456542,9.660454061126709,-1.209071838378906
1757942206288395000,8.58739501953125,-0.8396165946960449,9.655964933013916,-1.1857283721923828
1757942206298479900,8.59747998046875,-0.8616133224487305,9.635015668487549,-1.1561001266479491
1757942206308565000,8.60756494140625,-0.8508394149780273,9.626785600280762,-1.1578957778930663
1757942206318649900,8.61764990234375,-0.8577227447509765,9.630825815582275,-1.1692682357788085
1757942206328734000,8.62773388671875,-0.8628104232788085,9.648183777618408,-1.164479832458496
1757942206338818800,8.63781884765625,-0.852335791015625,9.629030164337157,-1.1698667861938477
1757942206348904000,8.647904052734376,-0.8592191207885742,9.605836335754393,-1.1876736610412597
1757942206358988800,8.65798876953125,-0.8310872512817382,9.632022916412353,-1.221342121887207
1757942206369074000,8.668073974609374,-0.8596680335998534,9.65342109375,-1.2128127784729004
1757942206379158800,8.67815869140625,-0.860565859222412,9.65297218093872,-1.1840823585510254
1757942206389243000,8.688242919921874,-0.8653542625427245,9.673023619842528,-1.1804910560607909
1757942206399327700,8.69832763671875,-0.8659528129577636,9.675866734313963,-1.1887211242675781
1757942206409412900,8.708412841796875,-0.8628104232788085,9.665092826843262,-1.1962030044555663
1757942206419497700,8.718497802734374,-0.8503905021667479,9.667935941314697,-1.1809399688720703
1757942206429582800,8.728582763671875,-0.8430582595825195,9.67182651901245,-1.2204442962646485
1757942206439668000,8.73866796875,-0.8732850555419921,9.636960957336425,-1.2226888603210448
1757942206449752800,8.7487529296875,-0.8670002761840819,9.643545011901855,-1.197100830078125
1757942206459838000,8.758837890625,-0.8550292678833007,9.64070189743042,-1.1948562660217283
1757942206469921800,8.768921875,-0.8562263687133789,9.631274728393555,-1.1924620643615722
1757942206480007000,8.7790068359375,-0.8394669570922851,9.644143562316893,-1.1884218490600584
1757942206490091800,8.789091796875,-0.8393173194885254,9.667487028503418,-1.1786954048156737
1757942206500177000,8.799177001953124,-0.8348281913757324,9.68409680252075,-1.1884218490600584
1757942206510261800,8.80926171875,-0.8562263687133789,9.689034843444823,-1.1628338188171385
1757942206520347000,8.819346923828125,-0.8562263687133789,9.67885948638916,-1.1623849060058593
1757942206530431700,8.829431640625,-0.8279448616027831,9.682750064086914,-1.1849801841735839
1757942206540515800,8.839515869140625,-0.8230068206787109,9.670180505371093,-1.1987468437194824
1757942206550600700,8.8496005859375,-0.8158242156982422,9.672125794219971,-1.2196961082458495
1757942206560685800,8.859685791015625,-0.8532336166381835,9.672724344635009,-1.2469301521301268
1757942206570770700,8.869770751953125,-0.8581716575622558,9.69157868270874,-1.2032359718322754
1757942206580855800,8.879855712890626,-0.826149210357666,9.712378309631347,-1.1490671592712403
1757942206590940700,8.889940673828125,-0.7852981445312499,9.647884502410887,-1.1528080993652343
1757942206601025800,8.90002587890625,-0.7742249618530272,9.632621466827391,-1.0715548805236816
1757942206611109600,8.910109619140625,-0.7609072151184082,9.633818567657471,-1.0040683212280272
1757942206621194800,8.92019482421875,-0.7594108390808105,9.641599723052979,-1.0600327850341795
1757942206631279600,8.930279541015626,-0.7799111907958984,9.638158058166503,-1.1372457885742187
1757942206641364700,8.94036474609375,-0.8110358123779297,9.645041387939452,-1.1915642387390135
1757942206651449600,8.95044970703125,-0.8132803764343262,9.656264208221435,-1.183034895324707
1757942206661534700,8.96053466796875,-0.8071452346801757,9.698910925292969,-1.1887211242675781
1757942206671619800,8.970619873046875,-0.853532891845703,9.709385557556152,-1.1839327209472656
1757942206681703700,8.98070361328125,-0.8334814529418945,9.72360112991333,-1.1974001052856444
1757942206691788800,8.990788818359375,-0.7996633544921875,9.724050042724608,-1.2068272743225097
1757942206701873700,9.000873779296874,-0.8113350875854491,9.682301151275635,-1.1879729362487792
1757942206711958800,9.010958740234376,-0.831835439300537,9.686640641784667,-1.1393407150268553
1757942206722043600,9.021043701171875,-0.8533832542419433,9.690082306671142,-1.1219827529907227
1757942206732128800,9.031128662109374,-0.8271966735839843,9.692476508331298,-1.1257236930847168
1757942206742213600,9.041213623046875,-0.7975684280395507,9.67287398223877,-1.1677718597412108
1757942206752298000,9.051298095703125,-0.8041524826049804,9.66524246444702,-1.16193599319458
1757942206762382800,9.0613828125,-0.8041524826049804,9.61481459197998,-1.1490671592712403
1757942206772468000,9.071468017578125,-0.8441057228088379,9.594463877868652,-1.1522095489501953
1757942206782552800,9.081552734375,-0.8503905021667479,9.616161330413817,-1.1373954261779784
1757942206792638000,9.091637939453125,-0.8230068206787109,9.623493572998047,-1.1279682571411132
1757942206802722800,9.101722900390625,-0.8060977714538574,9.628730889129638,-1.127519344329834
1757942206812807700,9.1118076171875,-0.8137292892456054,9.648483052825927,-1.1390414398193358
1757942206822891800,9.121891845703125,-0.8147767524719238,9.662848262786865,-1.1231798538208007
1757942206832977000,9.131976806640624,-0.8066963218688964,9.669581954956055,-1.1263222434997557
1757942206843061800,9.142061767578125,-0.8207622566223144,9.675717096710205,-1.114650510406494
1757942206853147000,9.15214697265625,-0.8270470359802246,9.658808047485351,-1.1137526847839354
1757942206863232000,9.16223193359375,-0.8234557334899902,9.683348614501952,-1.1508628105163574
1757942206873316900,9.17231689453125,-0.828693049621582,9.69083049468994,-1.2074258247375487
1757942206883402000,9.182402099609375,-0.8481459381103515,9.674370358276366,-1.21296241607666
1757942206893485800,9.19248583984375,-0.8295908752441405,9.688286655426024,-1.2176011817932129
1757942206903571000,9.202571044921875,-0.8399158699035644,9.700556938934326,-1.1985972061157226
1757942206913655800,9.21265576171875,-0.8319850769042968,9.690231944274903,-1.2237363235473633
1757942206923741000,9.222740966796875,-0.817769504547119,9.703250415802001,-1.1942577156066894
1757942206933825800,9.23282568359375,-0.8038532073974609,9.702651865386962,-1.1525088241577148
1757942206943911000,9.242910888671876,-0.8101379867553711,9.705345342254638,-1.1534066497802733
1757942206953995800,9.252995849609375,-0.8185176925659179,9.67287398223877,-1.1698667861938477
1757942206964079900,9.263079833984374,-0.8101379867553711,9.668534491729735,-1.1436802055358886
1757942206974164700,9.273164794921875,-0.8099883491516113,9.657311671447752,-1.1053729789733886
1757942206984249900,9.283249755859375,-0.8161234909057616,9.657910221862792,-1.094898346710205
1757942206994334700,9.293334716796876,-0.7921814743041992,9.649979428863524,-1.113453409576416
1757942207004419800,9.303419921875,-0.7800608283996582,9.647585227203368,-1.1378443389892579
1757942207014505000,9.3135048828125,-0.7935282127380371,9.666888478088378,-1.1228805786132812
1757942207024589800,9.32358984375,-0.7908347358703612,9.668235216522216,-1.0869675537109373
1757942207034673700,9.333673583984375,-0.7805097412109374,9.658059859466553,-1.087266828918457
1757942207044758800,9.3437587890625,-0.7721300354003906,9.668833766937256,-1.1092635566711424
1757942207054844000,9.353843994140625,-0.7978677032470702,9.686491004180908,-1.099387474822998
1757942207064928800,9.3639287109375,-0.8072948722839355,9.679757312011718,-1.1010334884643553
1757942207075014000,9.374013916015626,-0.7918821990966797,9.663895726013182,-1.094299796295166
1757942207085098800,9.3840986328125,-0.8173205917358398,9.662848262786865,-1.0999860252380371
1757942207095182800,9.394182861328124,-0.7984662536621093,9.667935941314697,-1.073799444580078
1757942207105267700,9.404267822265625,-0.8101379867553711,9.676614922332764,-1.059134959411621
1757942207115352800,9.414352783203125,-0.797418790435791,9.667038115692138,-1.0676643028259276
1757942207125437700,9.424437744140626,-0.7882908966064452,9.66673884048462,-1.0803834991455077
1757942207135522800,9.434522705078125,-0.8189666053771972,9.676315647125243,-1.1297639083862303
1757942207145607700,9.444607666015624,-0.8267477607727051,9.655964933013916,-1.1131541343688964
1757942207155692800,9.45469287109375,-0.8348281913757324,9.664045363616943,-1.1162965240478515
1757942207165776600,9.464776611328125,-0.8077437850952148,9.67287398223877,-1.1100117446899413
1757942207175861800,9.47486181640625,-0.7939771255493163,9.697115274047851,-1.092953057861328
1757942207185946600,9.484946533203125,-0.7857470573425293,9.696815998840332,-1.1029787773132325
1757942207196031700,9.49503173828125,-0.7610568527221679,9.6794580368042,-1.1125555839538575
1757942207206116600,9.50511669921875,-0.7809586540222168,9.675717096710205,-1.1127052215576172
1757942207216201700,9.51520166015625,-0.8345289161682128,9.677512747955321,-1.139639990234375
1757942207226286800,9.525286865234374,-0.824203921508789,9.647435589599608,-1.115249060821533
1757942207236370700,9.53537060546875,-0.8203133438110352,9.645340663146973,-1.1285668075561524
1757942207246455800,9.545455810546875,-0.8155249404907227,9.648483052825927,-1.1544541130065917
1757942207256540700,9.555540771484376,-0.824802471923828,9.667487028503418,-1.1387421646118163
1757942207266625800,9.565625732421875,-0.8394669570922851,9.701305126953125,-1.156249764251709
1757942207276710700,9.575710693359374,-0.826149210357666,9.667038115692138,-1.1400889030456542
1757942207286795800,9.585795654296875,-0.7800608283996582,9.673921445465087,-1.116595799255371
1757942207296880600,9.595880615234375,-0.7625532287597656,9.673322895050049,-1.0839748016357422
1757942207306965000,9.605965087890626,-0.7404068634033203,9.670779055786133,-1.0726023437499999
1757942207317049900,9.6160498046875,-0.7330746208190918,9.673622170257568,-1.1164461616516113
1757942207327134700,9.626134765625,-0.7588122886657714,9.690980132293701,-1.1578957778930663
1757942207337219800,9.6362197265625,-0.7861959701538086,9.705494979858399,-1.1815385192871093
1757942207347304700,9.6463046875,-0.7917325614929199,9.711031571197509,-1.1908160507202148
1757942207357389600,9.6563896484375,-0.8081926979064941,9.73018518447876,-1.1418845542907714
1757942207367474700,9.666474609375,-0.7817068420410156,9.725845693969726,-1.1302128211975098
1757942207377558800,9.676558837890624,-0.8123825508117676,9.747094233703613,-1.1369465133666992
1757942207387644000,9.686643798828126,-0.7902361854553223,9.735422500610351,-1.1264718811035155
1757942207397728800,9.696728759765625,-0.7487865692138671,9.707290631103515,-1.1249755050659178
1757942207407814000,9.70681396484375,-0.7432499778747558,9.695768535614013,-1.0886135673522948
1757942207417899000,9.71689892578125,-0.7314286071777343,9.683498252105712,-1.0467150382995605
1757942207427984000,9.72698388671875,-0.7297825935363769,9.700556938934326,-1.0643722755432128
1757942207438069000,9.737069091796876,-0.7209539749145507,9.69068085708618,-1.0341454795837401
1757942207448152800,9.74715283203125,-0.7275380294799805,9.686191728973387,-1.0342951171875
1757942207458238000,9.757238037109374,-0.7454945419311523,9.67227543182373,-1.0122983894348143
1757942207468322800,9.76732275390625,-0.7407061386108398,9.674071083068847,-1.004217958831787
1757942207478408000,9.777407958984375,-0.7151181083679199,9.669581954956055,-1.0422259101867675
1757942207488492800,9.787492919921876,-0.7288847679138183,9.669581954956055,-1.0076596237182616
1757942207498578000,9.797577880859375,-0.7312789695739745,9.650428341674804,-0.9724947868347167
1757942207508661800,9.807661865234374,-0.7487865692138671,9.705195704650878,-0.9690531219482421
1757942207518747000,9.817746826171875,-0.7402572257995605,9.731681560516357,-1.0043675964355467
1757942207528831700,9.827831787109375,-0.7131728195190429,9.707739543914794,-0.985064345550537
1757942207538916900,9.837916748046876,-0.7263409286499023,9.695319622802733,-0.956333925628662
1757942207549002500,9.84800244140625,-0.7050923889160156,9.734823950195311,-0.9386766883850097
1757942207559087600,9.858087646484375,-0.7375637489318847,9.737667064666747,-0.9789292037963867
1757942207569172500,9.86817236328125,-0.7417536018371581,9.727192432403564,-0.9994295555114745
1757942207579256600,9.878256591796875,-0.7191583236694336,9.726294606781005,-1.0601824226379395
1757942207589341400,9.888341552734374,-0.7371148361206055,9.712079034423828,-1.0950479843139649
1757942207599426600,9.898426513671875,-0.7471405555725097,9.718363813781737,-1.1225813034057617
1757942207609511400,9.908511474609375,-0.7805097412109374,9.681104050445557,-1.1355997749328612
1757942207619596500,9.918596435546876,-0.821660082244873,9.670479780578614,-1.1420341918945311
1757942207629681400,9.928681396484375,-0.8188169677734375,9.668684129333496,-1.1350012245178223
1757942207639766500,9.9387666015625,-0.7917325614929199,9.65940659790039,-1.1314099220275877
1757942207649850400,9.948850341796875,-0.7902361854553223,9.6794580368042,-1.1394903526306153
1757942207659935500,9.958935546875,-0.795473501586914,9.670330142974853,-1.1145008728027344
1757942207670020400,9.969020263671876,-0.790385823059082,9.656413845825195,-1.1104606575012206
1757942207680105500,9.97910546875,-0.8037035697937012,9.64668740158081,-1.0826280632019043
1757942207690190300,9.9891904296875,-0.8405144203186035,9.657910221862792,-1.1429320175170898
1757942207700275500,9.999275390625,-0.8954314208984374,9.636960957336425,-1.2210428466796874
1757942207710359300,10.009359375,-0.9653121818542479,9.64728595199585,-1.2113164024353027
1757942207720444400,10.0194443359375,-1.0482114143371581,9.57590881500244,-1.2952630981445312
1757942207730529300,10.029529296875,-1.124227317047119,9.535207386779785,-1.1857283721923828
1757942207740614400,10.039614501953125,-1.1394903526306153,9.656114570617675,-1.2612953620910643
1757942207750699500,10.049699462890626,-1.3889362380981445,9.77402900238037,-1.546803910064697
1757942207760784400,10.059784423828125,-1.9271826988220213,9.887753581237792,-1.9162591537475584
1757942207770869500,10.069869384765624,-2.725499314880371,9.846902515411376,-2.325817275238037
1757942207780953300,10.079953369140625,-3.3912370140075683,9.478644372558593,-2.799719566345215
1757942207791038500,10.09003857421875,-4.067898258209229,8.896554093933105,-3.3283892204284666
1757942207801123300,10.100123291015626,-5.311237107849121,8.743474825286865,-3.2800562744140622
1757942207811208400,10.11020849609375,-6.182277599334716,8.882188883972168,-2.599055539703369
1757942207821293300,10.120293212890624,-6.185719264221191,8.802581678771972,-1.7375918548583984
1757942207831378400,10.13037841796875,-5.884798043060302,8.576030346679687,-2.3561937088012694
1757942207841463300,10.14046337890625,-6.219387725067138,8.49732096710205,-3.8687306076049803
1757942207851547400,10.15054736328125,-7.309048755645752,8.270171084594725,-3.614047406005859
1757942207861632300,10.16063232421875,-8.118737829589843,7.574056951904296,-3.085527389526367
1757942207871717400,10.17071728515625,-8.349030101776123,7.011868474578857,-2.77727392578125
1757942207881802200,10.18080224609375,-8.079383139801024,6.314856516265869,-2.685396437072754
1757942207891887400,10.190887451171875,-6.214449684143066,5.393986702728271,-3.0195372062683106
1757942207901972500,10.200972412109374,-4.0063972030639645,4.641159918212891,-3.2995091629028317
1757942207912056300,10.211056396484375,-2.994996639251709,3.856759599304199,-2.867206125640869
1757942207922141400,10.221141357421875,-1.2566565963745115,3.303399740600586,-2.2334908737182615
1757942207932226300,10.231226318359376,2.411260346984863,3.036745530700683,-1.7772458198547363
1757942207942311400,10.2413115234375,7.845050652313232,3.492840946960449,-1.3729250144958496
1757942207952396300,10.251396240234374,11.054178702545165,2.80271231842041,-1.5364789154052734
1757942207962481400,10.2614814453125,12.197858908081054,1.8089689918518066,-1.992574331665039
1757942207972566300,10.271566162109375,13.33690034790039,1.2204442962646485,-1.8819921424865722
1757942207982650600,10.281650634765626,14.31343535003662,0.8158242156982422,-1.6569371864318847
1757942207992735500,10.291735595703125,14.711920288848876,-0.05716156463623046,-1.378311968231201
1757942208002820600,10.301820556640624,13.773692513275146,0.3093009269714355,0.07676409072875977
1757942208012905500,10.311905517578126,13.902231214904784,1.2874819427490234,2.2005706008911132
1757942208022990600,10.321990478515625,14.906898086547852,1.7892168281555174,3.601926760101318
1757942208033075500,10.332075439453124,15.248221460723876,1.8990508293151855,4.1100960624694824
1757942208043159600,10.34215966796875,14.848539421081542,1.882740330505371,4.553472282409667
1757942208053244400,10.352244384765624,13.84147834777832,2.0150199722290036,5.248688589477538
1757942208063329500,10.36232958984375,12.898312531280517,1.9023428565979004,5.373187075805664
1757942208073414400,10.372414306640625,12.262801628112792,1.3868413116455078,4.651185637664795
1757942208083499500,10.38249951171875,12.45568449935913,1.402702897644043,3.397072880554199
1757942208093584600,10.392584716796875,12.924050199127196,1.5720926651000975,2.2206220397949217
1757942208103669500,10.40266943359375,11.858480822753906,0.8967781593322753,1.8888754722595213
1757942208113753300,10.41275341796875,11.037419290924072,0.07212532501220703,1.4360720832824707
1757942208123838500,10.42283837890625,11.654524768829345,-0.2796726814270019,1.1854290969848633
1757942208133923600,10.432923583984374,11.942577156066895,-0.19527707290649413,1.2229881355285643
1757942208144008400,10.443008544921875,11.721861690521239,0.014814122772216796,1.304390991973877
1757942208154093600,10.453093505859375,12.074557522583007,0.38666356811523434,1.4061445625305176
1757942208164178400,10.463178466796874,12.253973009490966,0.7646481552124023,1.601271997833252
1757942208174263600,10.473263671875,12.120945179748535,0.9587281272888183,1.7917606674194335
1757942208184347400,10.483347412109374,12.732065153503417,0.8542810798645019,2.0970213790893553
1757942208194432500,10.4934326171875,13.392266261291503,0.5440823272705078,2.5876830818176266
1757942208204517400,10.503517333984375,11.595417915344237,0.381126976776123,3.0693665283203124
1757942208214602500,10.5136025390625,9.562441430664062,0.489015689086914,3.2754175086975095
1757942208224687400,10.523687255859375,9.547028757476806,0.964713631439209,3.339761678314209
1757942208234772500,10.5337724609375,10.23431427154541,1.694496224975586,3.079990798187256
1757942208244856300,10.543856201171875,10.557381858062744,2.136675344085693,2.747795317840576
1757942208254941400,10.55394140625,10.374075793457031,2.124255422973633,2.5788544631958006
1757942208265026300,10.5640263671875,9.765499658966064,1.900696842956543,2.558803024291992
1757942208275111400,10.574111328125,9.323470177459717,1.7049708572387694,2.7192145355224606
1757942208285196300,10.5841962890625,9.23144305114746,1.6686089195251463,2.811690574645996
1757942208295281400,10.594281494140626,9.36581761932373,1.781884585571289,2.9510031837463377
1757942208305366500,10.604366455078125,9.354145886230468,1.94079972076416,3.143586779785156
1757942208315450400,10.614450439453124,8.975862023925782,1.9250877723693847,3.143586779785156
1757942208325535500,10.624535400390625,8.968829056549072,1.7649755363464354,2.977040126800537
1757942208335620400,10.634620361328125,9.115324270629882,1.6300024177551269,2.7253496772766113
1757942208345705500,10.64470556640625,8.968380143737793,1.4426561378479004,2.415150924682617
1757942208355790300,10.654790283203125,8.892962791442871,1.3313257606506348,2.2596774543762206
1757942208365875500,10.66487548828125,9.020005117034911,1.4137760803222656,2.3745991340637205
1757942208375959300,10.674959228515625,9.028684098052977,1.576282518005371,2.740911988067627
1757942208386044400,10.68504443359375,8.77774183654785,1.8128595695495604,3.135356711578369
1757942208396129300,10.69512939453125,8.788066831207274,2.100911956787109,3.4015620086669918
1757942208406214400,10.70521435546875,8.773851258850097,2.2212205902099607,3.556736203765869
1757942208416299300,10.71529931640625,8.265532318878174,2.1499930908203124,3.515585862731933
1757942208426384400,10.72538427734375,7.649324666595459,2.065298207092285,3.169174810028076
1757942208436469200,10.73546923828125,7.612663453674316,2.0573674140930174,2.780565953063965
1757942208446553300,10.74555322265625,7.877073099517822,1.9895815795898437,2.6249428451538086
1757942208456638500,10.755638427734375,7.85911658706665,1.9624971733093262,2.6828525978088376
1757942208466723300,10.765723388671875,8.02506468963623,1.824680940246582,2.71337866897583
1757942208476808200,10.77580810546875,8.415469197845459,1.7770961822509765,2.8188731796264648
1757942208486893300,10.785893310546875,8.623764742279052,1.751208876800537,2.9358897857666015
1757942208496978400,10.795978515625,8.82891789703369,1.817049422454834,2.931699932861328
1757942208507062500,10.8060625,8.934562045288086,2.0037971519470212,2.8202199180603027
1757942208517147400,10.8161474609375,9.041702569580078,2.0566192260742184,2.651279063415527
1757942208527232500,10.826232421875,8.951171819305419,2.169445979309082,2.6563667419433594
1757942208537317600,10.836317626953125,9.778817405700684,1.929427262878418,2.685396437072754
1757942208547402000,10.846402099609374,9.780463419342041,2.223016241455078,3.0162451789855957
1757942208557486800,10.85648681640625,9.14151085128784,2.0210054763793943,3.1209915016174317
1757942208567571000,10.866571044921875,8.782979152679443,2.042104378509521,3.1438860549926755
1757942208577655800,10.87665576171875,8.57453397064209,2.20895030670166,3.3271921195983887
1757942208587741000,10.886740966796875,8.36968009109497,2.1398177337646485,3.376722166442871
1757942208597825800,10.89682568359375,7.92301184387207,2.2309470344543456,3.46021994934082
1757942208607911000,10.906910888671876,7.736563389587402,2.2833201957702633,3.4214638099670407
