time,seconds_elapsed,z,y,x
1757768766059373000,43.394373046875,2.885784569382668,8.78697552883923,-3.2606276435837147
1757768766069329000,43.40432885742187,2.8893314482092856,8.755803560984134,-3.3403657816872
1757768766079286000,43.4142861328125,2.888563386446237,8.728851256650685,-3.4108281419232487
1757768766089243100,43.4242431640625,2.885053040237725,8.705700098165869,-3.4724133682206277
1757768766099199000,43.43419897460937,2.8795854224815964,8.686512582615018,-3.524611465230584
1757768766109156000,43.44415600585938,2.87191357267946,8.672358385056256,-3.5654891268029805
1757768766119113000,43.45411303710937,2.859998386219144,8.664812207460402,-3.593303016401827
1757768766129070000,43.464070068359376,2.8418527809366583,8.66537802464962,-3.606313012361526
1757768766139026200,43.47402612304688,2.816551458680629,8.674802855598926,-3.60349941624552
1757768766148983000,43.48398315429687,2.7834000074461103,8.693299466276168,-3.584636310343444
1757768766158940200,43.49394018554688,2.741502647437155,8.719912747913598,-3.552135431972146
1757768766168896000,43.50389599609375,2.690328632777929,8.752541928839683,-3.510774955318868
1757768766178853000,43.51385302734375,2.6322423545122144,8.788972840136289,-3.4634716446131466
1757768766188810000,43.52381005859375,2.572043321876228,8.828293627655505,-3.4082544920429587
1757768766198766000,43.53376611328125,2.514757254077494,8.870344716921448,-3.3411633618056773
1757768766208723000,43.54372290039063,2.4620459468483924,8.914834431511164,-3.261051421953737
1757768766218680000,43.55368017578125,2.411861966139823,8.960654517921805,-3.1717458295598626
1757768766228637000,43.56363696289063,2.362153493988514,9.006776802149414,-3.0771044290959835
1757768766238593000,43.573593017578126,2.3132557536982,9.053066844159364,-2.9767779687330127
1757768766248550100,43.58355004882812,2.2667660974629222,9.099946668756008,-2.867597463046014
1757768766258507000,43.593507080078126,2.2225994773477318,9.147811997258662,-2.747356926423311
1757768766268463000,43.603463134765626,2.178990929506719,9.196392780554294,-2.617009714066982
1757768766278420000,43.613419921875,2.1339804059132934,9.244737417006492,-2.4801886295214293
1757768766288377000,43.623377197265626,2.0860405508697037,9.291455329039692,-2.342579317207634
1757768766298334200,43.63333422851562,2.034931125879288,9.335039034700394,-2.2105425443291664
1757768766308290000,43.6432900390625,1.981784788233787,9.374313060468436,-2.0893004294484854
1757768766318247200,43.6532470703125,1.9284750767201184,9.408871748152375,-1.9810349927797912
1757768766328204000,43.6632041015625,1.8781889508113263,9.438846030655505,-1.884401103324443
1757768766338160000,43.67316015625,1.834617520110309,9.464722814711928,-1.7954278116248548
1757768766348117000,43.68311694335937,1.8006645432345567,9.487204695633054,-1.7090774157747626
1757768766358074000,43.69307421875,1.777613337992877,9.507105327889322,-1.6203218584790824
1757768766368031000,43.70303100585937,1.764688828359544,9.525267007523777,-1.5249794701389967
1757768766377987000,43.71298706054687,1.7597130857735872,9.54230289799869,-1.4206560490943492
1757768766387944000,43.72294384765625,1.760489915364981,9.558424011716246,-1.3067521681472658
1757768766397901000,43.73290112304687,1.7655533362343907,9.573435702887178,-1.1842906675394624
1757768766407857200,43.74285717773437,1.774863016371429,9.586776245975496,-1.055444069004431
1757768766417814000,43.75281396484375,1.7893284718364475,9.597756489673255,-0.9229183435652404
1757768766427771100,43.76277124023437,1.8104814422413704,9.60569195884764,-0.7894394090544432
1757768766437727000,43.77272705078125,1.839861119852215,9.610044893360138,-0.6575229015547782
1757768766447684000,43.78268408203125,1.878782678920776,9.610449967029693,-0.5289927485577762
1757768766457641200,43.79264111328125,1.9280521751329305,9.606751697033642,-0.404132041321136
1757768766467598000,43.80259814453125,1.9876205086499448,9.598968203550577,-0.2820653304508887
1757768766477554200,43.81255419921875,2.0565397310972213,9.587207623130082,-0.1627755186817608
1757768766487511000,43.822510986328126,2.13290912341997,9.571775660720467,-0.0466001902379328
1757768766497468000,43.83246801757812,2.214502387870848,9.553115968436002,0.065937909648125
1757768766507424000,43.84242407226562,2.298832237678766,9.531780919462442,0.1758101010934449
1757768766517381000,43.852381103515626,2.382804652351141,9.508481292417644,0.2853243505131453
1757768766527338000,43.862337890625,2.464552961233258,9.483715684473514,0.394350067497231
1757768766537295000,43.872295166015626,2.543889240537584,9.457673480722308,0.5014164305744693
1757768766547251000,43.8822509765625,2.620997906920313,9.43049496641755,0.6054032766085118
1757768766557208000,43.8922080078125,2.6957591333940623,9.402255544883012,0.7077141157217324
1757768766567165200,43.902165283203125,2.7677278065398334,9.37320363792181,0.8081671981390565
1757768766577121000,43.91212109375,2.836308590812981,9.343805694001912,0.9050064009081572
1757768766587078100,43.922078125,2.901309470772743,9.314367418071628,0.99766181518659
1757768766597035300,43.93203515625,2.962052985548973,9.28532427893877,1.0859993662659078
1757768766606991000,43.9419912109375,3.0181384453862905,9.257062645572423,1.1696210678044705
1757768766616948200,43.9519482421875,3.0688232152238486,9.23013606020212,1.2479194554284214
1757768766626905000,43.96190502929687,3.113584732492268,9.2050355212152,1.3203390872120857
1757768766636862000,43.97186206054688,3.1522455947980283,9.182016464677451,1.3871972854763268
1757768766646818000,43.981818115234375,3.1844971745833752,9.161359461095929,1.4487437871985136
1757768766656775000,43.99177490234375,3.2098250925853846,9.143615714612602,1.503902779840678
1757768766666732000,44.00173193359375,3.2275507188901305,9.129475545579194,1.55112104261145
1757768766676688100,44.01168823242188,3.236557324427366,9.119816321352124,1.5887201209045945
1757768766686645000,44.02164501953125,3.2358331018060444,9.11549787363112,1.6147681698746978
1757768766696602000,44.03160205078125,3.225712397547066,9.117024060285091,1.6263560240767896
1757768766706558000,44.04155786132812,3.207273070015013,9.124288498330117,1.622076739322394
1757768766716515000,44.05151513671875,3.181488932678103,9.136901311665772,1.6017280710376798
1757768766726472200,44.06147216796875,3.149644180127978,9.153999161460996,1.566652812133729
1757768766736429000,44.071428955078126,3.1136437692031262,9.1744305395931,1.518362536217272
1757768766746385200,44.08138525390625,3.0756349410653114,9.196831756493449,1.459152514618635
1757768766756342300,44.09134228515625,3.036662528592348,9.22014190493226,1.3921381028793751
1757768766766299100,44.101299072265626,2.996436608926952,9.243888691222669,1.3199549102000891
1757768766776255200,44.111255126953125,2.9541587251678108,9.268001972737908,1.2439705716721712
1757768766786211800,44.1212119140625,2.909089749385416,9.29248525660932,1.165027456403896
1757768766796169000,44.1311689453125,2.860417196153104,9.317343219012022,1.084203788086027
1757768766806125000,44.141125,2.807402522063255,9.342567092117667,1.0026580891039223
1757768766816082000,44.15108203125,2.749813964186609,9.368078549993038,0.9208812847796828
1757768766826039000,44.1610390625,2.6877260490640995,9.393692883720991,0.8396797230601311
1757768766835996200,44.17099609375,2.621409994852543,9.41925168786943,0.759135821531713
1757768766845952000,44.18095190429688,2.5517735640466213,9.444512385854123,0.6782451523922384
1757768766855909000,44.1909091796875,2.4805051481246947,9.469116081234812,0.5944267592377961
1757768766865866200,44.2008662109375,2.4106178112976253,9.492287697985768,0.5057417829602956
1757768766875822000,44.210822021484375,2.3460867408066988,9.513017182281612,0.4108350095584988
1757768766885779200,44.220779296875,2.290562275853008,9.5304230751127,0.3078307448210194
1757768766895736000,44.230736083984375,2.2471415056690573,9.543698151749371,0.1963657997249625
1757768766905692200,44.24069213867188,2.216283426068723,9.55261561769843,0.0775428017499856
1757768766915649300,44.25064916992188,2.1968118328794835,9.557310497516394,-0.0469644524064846
1757768766925606700,44.26060668945313,2.186877591103315,9.558086158064008,-0.1759363760879263
1757768766935563500,44.2705634765625,2.184706822935492,9.55522784602344,-0.3083145828152075
1757768766945519600,44.28051953125,2.1887527373254296,9.548955926147103,-0.4440604758772998
1757768766955476500,44.2904765625,2.1973000547878443,9.539401915860177,-0.5848691687542945
1757768766965433600,44.30043359375,2.2106122485645114,9.526276476827263,-0.7305027245044707
1757768766975389700,44.3103896484375,2.2292411073192957,9.50938730134666,-0.8788775417868048
1757768766985346600,44.3203466796875,2.252067271633446,9.48894423277676,-1.0288372171077875
1757768766995303700,44.3303037109375,2.277175701665878,9.4652401165843,-1.1807141242269426
1757768767005260800,44.3402607421875,2.3053156083486974,9.438014840528368,-1.3340841194480657
1757768767015216600,44.35021655273437,2.338585717526823,9.406665762540698,-1.488631560950726
1757768767025173800,44.360173828125,2.3777079137340187,9.371035061711073,-1.6433445682786405
1757768767035130600,44.37013061523437,2.4224819982230663,9.331123907083272,-1.7978095921948551
1757768767045086700,44.38008666992187,2.4723662653326985,9.286977306842804,-1.9518838632278144
1757768767055043600,44.39004370117188,2.525613579134643,9.239059371370075,-2.1051000561267137
1757768767065000400,44.40000048828125,2.58026403773278,9.18782135156393,-2.257557247351855
1757768767074956500,44.40995654296875,2.634878840495646,9.133599932032824,-2.409390899851173
1757768767084913700,44.41991357421875,2.6884038021951917,9.076694387984276,-2.5605627274408933
1757768767094870500,44.42987060546875,2.740565366587042,9.017558892926573,-2.709851663893461
1757768767104827600,44.43982763671875,2.7910832554250957,8.956822976934909,-2.855798011919856
1757768767114783500,44.44978344726562,2.8406647401958702,8.895223137590289,-2.995999094292521
1757768767124740600,44.45974072265625,2.889647674551606,8.83378637985289,-3.1280265148207542
1757768767134697700,44.46969775390625,2.937481731133163,8.773202439552545,-3.2515392049819227
1757768767144653600,44.47965356445312,2.983653699721396,8.71403596483469,-3.366566975392401
1757768767154610700,44.48961059570313,3.0281098043024537,8.656416719558834,-3.473814467190206
1757768767164567800,44.49956787109375,3.0696064745560285,8.60049492585063,-3.5748280330345032
1757768767174523600,44.50952368164062,3.1080987022966147,8.546420221313834,-3.66998644310981
1757768767184480800,44.51948071289063,3.142033412863314,8.49465496276319,-3.760167064772546
1757768767194437400,44.52943725585938,3.1692917144060133,8.44541542329788,-3.847198867015541
1757768767204394500,44.53939453125,3.1887121619299053,8.399112521806359,-3.931590383882821
1757768767214350600,44.5493505859375,3.2012837664723395,8.356872631970047,-4.01059143988341
1757768767224307500,44.55930737304688,3.2082533132240174,8.321378709262609,-4.078252478963137
1757768767234264600,44.5692646484375,3.2101635307595133,8.29560246297121,-4.128950692804158
1757768767244220700,44.579220703125,3.2064681833729147,8.281169448471069,-4.160672695757448
1757768767254177500,44.58917749023438,3.195373081123829,8.278432716983556,-4.17462961717844
1757768767264134700,44.599134765625,3.174836196790636,8.287219834551214,-4.172865530115366
1757768767274090500,44.60909057617187,3.1429557884052395,8.307046232527494,-4.157548718518019
1757768767284047600,44.61904760742188,3.098552875316143,8.336515488117932,-4.131812219715118
1757768767294004700,44.62900463867187,3.041591801688075,8.373497019034623,-4.09922687793076
1757768767303961600,44.63896166992188,2.9737852166578174,8.416215632298588,-4.061316541731357
1757768767313917700,44.648917724609376,2.8993770414054394,8.46416454743147,-4.0152106241166585
1757768767323874800,44.65887475585937,2.8216142950281498,8.517436703413724,-3.957545493872464
1757768767333831400,44.66883154296875,2.7415079081341625,8.575257024219631,-3.888379895448685
1757768767343787800,44.67878784179688,2.660059751242399,8.636295722550154,-3.80905092266798
1757768767353744400,44.68874438476563,2.5808877225890754,8.699387846279144,-3.718879653355479
1757768767363701500,44.69870141601562,2.508284550932049,8.764101433730126,-3.615168811251223
1757768767373658600,44.70865869140625,2.443547144214064,8.830496690657734,-3.4959687235921617
1757768767383614500,44.71861450195313,2.383864536667615,8.898665386998653,-3.3617446698024867
1757768767393571600,44.72857153320312,2.3249383004464206,8.967679886513947,-3.216484550474584
1757768767403528700,44.73852880859375,2.26357256211862,9.035380380821229,-3.0673332689270376
1757768767413484500,44.74848461914063,2.198560576242953,9.098976362419128,-2.923245115987956
1757768767423441700,44.75844165039062,2.129992066929489,9.156388102424144,-2.7917867275193333
1757768767433398800,44.76839868164063,2.0582792682409283,9.207099468007684,-2.6764155504986644
1757768767443354600,44.778354736328126,1.9855653296858071,9.251656987136602,-2.575800920844078
1757768767453311700,44.78831176757812,1.9160551556080576,9.291281726038456,-2.4841867592468856
1757768767463268600,44.7982685546875,1.8544057780332863,9.327562999731304,-2.3933535188943145
1757768767473225500,44.8082255859375,1.8040043551817533,9.361932302322984,-2.2956867792598903
1757768767483181800,44.81818188476562,1.7653898162357509,9.39528161421716,-2.1868867973230777
1757768767493138400,44.82813842773437,1.736173220232129,9.427989121076465,-2.066182296450436
1757768767503095600,44.83809545898438,1.7137534447617828,9.46003787176609,-1.934193015975505
1757768767513051400,44.84805151367188,1.696533722152561,9.491063709148763,-1.7921686636984346
1757768767523008500,44.85800854492187,1.684167430923879,9.520498477947712,-1.6413653771601615
1757768767532965600,44.86796557617188,1.6775255086913703,9.547535537955165,-1.4835311690717934
1757768767542922800,44.8779228515625,1.678419827182591,9.571074234452842,-1.3220562663935125
1757768767552878600,44.88787866210937,1.6889098031453786,9.59011912666261,-1.1608623726136982
1757768767562835700,44.897835693359376,1.711204490931332,9.60383142567277,-1.0042750227812678
1757768767572792600,44.90779248046875,1.7473780664660037,9.611759880584478,-0.8550582747820764
1757768767582748700,44.91774877929687,1.7993214580625294,9.613741994312406,-0.7133022180523723
1757768767592705800,44.92770581054688,1.8670913643442093,9.609921559241414,-0.57771231926959
1757768767602662700,44.93766259765625,1.9495095353119076,9.600589082750677,-0.4455453441401943
1757768767612619500,44.94761962890625,2.043572112974525,9.58620575261116,-0.3144128996903076
1757768767622575600,44.95757568359375,2.1453420501440763,9.567326864618062,-0.1848052901875227
1757768767632532500,44.96753247070313,2.251825279571116,9.544440494549274,-0.0576690803335281
1757768767642489600,44.97748950195312,2.3604686096414924,9.518099600112436,0.0659267900324892
1757768767652445400,44.98744555664062,2.4687021898671984,9.488991579049824,0.1868967643077485
1757768767662402600,44.99740258789063,2.5744717180669308,9.45776232804954,0.3053196570492349
1757768767672359700,45.00735961914062,2.677311038033664,9.424722228235003,0.4207200053654611
1757768767682315500,45.0173154296875,2.7773227333590387,9.390047805216907,0.5327756646299734
1757768767692272600,45.027272705078126,2.874464133945107,9.353835505107044,0.6431317534349859
1757768767702229800,45.03722973632812,2.967998157688976,9.316347193711996,0.7530364817433058
1757768767712186600,45.0471865234375,3.056853375966847,9.278062178981305,0.86231810971722
1757768767722142700,45.057142822265625,3.1399253346681597,9.239459184342625,0.9714262808203696
1757768767732099600,45.067099609375,3.2166157756388185,9.201016348701716,1.0793770255167037
1757768767742056700,45.077056640625,3.2859339342758056,9.163532128959892,1.1843603717748077
1757768767752012800,45.0870126953125,3.347411608545482,9.12769509190321,1.2846706847205758
1757768767761969700,45.0969697265625,3.4005788428485397,9.09429258851707,1.3785155279792844
1757768767771926500,45.10692651367187,3.445303827498853,9.063980452361704,1.4644215410627424
1757768767781883600,45.11688354492188,3.481021037568152,9.037523238068818,1.5414486666418612
1757768767791839500,45.126839599609376,3.50770358504951,9.015440585598348,1.6087987400762735
1757768767801796600,45.13679663085937,3.5247388910025355,8.998706308418512,1.664296024762094
1757768767811753500,45.14675341796875,3.5313168080881234,8.988388328021765,1.7055916194856169
1757768767821709600,45.15670947265625,3.527123448051512,8.985312573838234,1.7303059356339274
1757768767831666700,45.16666674804687,3.512898815605044,8.989538082578777,1.7372785511255264
1757768767841623600,45.17662353515625,3.489595973689854,9.000619448563455,1.7268305146083234
1757768767851580700,45.18658056640625,3.4581039801001547,9.017547787010669,1.7016854058273136
1757768767861536500,45.19653662109375,3.4200603729099037,9.038913231122493,1.6648133266344665
1757768767871493600,45.20649365234375,3.377541081610322,9.063301237925886,1.6183865065023302
1757768767881450800,45.21645068359375,3.331184696365893,9.08973916299641,1.5653244861394169
1757768767891407600,45.22640771484375,3.281129164342582,9.117503368234631,1.5085473907761275
1757768767901363700,45.23636376953125,3.227143307133019,9.146488055178525,1.4483420745298266
1757768767911320600,45.24632055664063,3.168193982297182,9.17711817124188,1.3832741206832229
1757768767921277400,45.25627734375,3.1032869181007143,9.209672533366083,1.3122244620785115
1757768767931233800,45.26623388671875,3.032624359117448,9.243835499730706,1.2349345939099787
1757768767941191000,45.27619091796875,2.957873361776769,9.278763020727038,1.151495920788124
1757768767951148000,45.28614794921875,2.880613011963665,9.313694633376596,1.0618578085042536
1757768767961104000,45.29610375976562,2.8019492250934244,9.348056337183714,0.966072498702258
1757768767971061000,45.30606103515625,2.7221222396627067,9.381589188951253,0.8638490456115454
1757768767981018000,45.31601806640625,2.6413606037303805,9.414030738350748,0.754745112292096
1757768767990975000,45.32597509765625,2.5609537725850937,9.444750870785116,0.6392046431191265
1757768768000931000,45.33593115234375,2.483897713172436,9.472687509980798,0.5184820220679044
1757768768010888000,45.34588793945313,2.413526099959761,9.496889638823273,0.3928913931215181
1757768768020845000,45.35584497070312,2.3531126939207314,9.516536588579417,0.2622696564064361
1757768768030802000,45.36580200195313,2.3043837343260645,9.53122387010157,0.1263407623270992
1757768768040758000,45.37575805664063,2.2668850476674733,9.541036823585628,-0.0155845328976225
1757768768050715000,45.38571484375,2.240053008712828,9.545943300327655,-0.1658839330258779
1757768768060672000,45.39567211914063,2.222129521748424,9.546008182257411,-0.3259825241159647
1757768768070627800,45.4056279296875,2.2123216828309,9.541058450895548,-0.4941999963896348
1757768768080585000,45.4155849609375,2.211417281337082,9.530601354289054,-0.6690646515928208
1757768768090541800,45.42554174804688,2.2188373483352364,9.514612927040456,-0.84810662901327
1757768768100499000,45.4354990234375,2.233448642011732,9.493305350595712,-1.0291938485257326
1757768768110455000,45.445455078125,2.252852869053185,9.46706733201146,-1.2123043174941093
1757768768120412000,45.455411865234375,2.2743803718589244,9.436248415377737,-1.3981370510332285
1757768768130369000,45.465369140625,2.297309704286605,9.40089886957705,-1.5861369725435972
1757768768140325000,45.4753251953125,2.322560173138231,9.360907635450362,-1.7746822529770432
1757768768150282000,45.485281982421874,2.351494883460552,9.316121568262576,-1.9623317536145448
1757768768160239000,45.49523901367188,2.385644551952183,9.266436623117327,-2.147613063815981
1757768768170196000,45.505196044921874,2.4255305721387264,9.21213921574056,-2.3288797315485774
1757768768180152000,45.515152099609374,2.470836279286444,9.153845432204008,-2.504486619953811
1757768768190109000,45.52510888671875,2.5203832772657275,9.09224091668427,-2.673799522781372
1757768768200065800,45.53506567382812,2.5721178484171627,9.02825038281083,-2.836420526754856
1757768768210022000,45.54502197265625,2.6245561839237808,8.962561228325962,-2.992422989371419
1757768768219979000,45.55497900390625,2.6777713490217923,8.895560406720637,-3.141482793243229
1757768768229935900,45.56493579101563,2.730757966060936,8.828103658041357,-3.282977422557771
1757768768239893000,45.57489306640625,2.781243706195056,8.761245459777117,-3.416963575938344
1757768768249848800,45.58484887695312,2.82772167199254,8.695772578391432,-3.543716855455935
1757768768259806000,45.59480590820313,2.8683023964449763,8.63236656640768,-3.664078972631693
1757768768269763000,45.60476318359375,2.9029250892758367,8.57162480519712,-3.777651283536851
1757768768279720200,45.61472021484375,2.931267094402015,8.514135323780774,-3.884270122042298
1757768768289676000,45.62467602539063,2.953000202782452,8.460371000367402,-3.984006215296685
1757768768299633200,45.634633056640624,2.9702187563478946,8.410214930579066,-4.076330278728902
1757768768309589800,45.64458984375,2.982696252866089,8.363483574542403,-4.162457241086662
1757768768319546000,45.65454614257813,2.989155804269016,8.31975490745306,-4.244645110429823
1757768768329503000,45.6645029296875,2.9890722176387903,8.278936574852466,-4.323777099333704
1757768768339459800,45.6744599609375,2.9822388644874094,8.241658691337705,-4.399055627679824
1757768768349417000,45.6844169921875,2.96856748200953,8.209867130279541,-4.467223739498853
1757768768359372800,45.69437280273438,2.948053978551924,8.186258291155099,-4.52377623232603
1757768768369330000,45.70432983398437,2.9201208464875816,8.172861633965372,-4.565918214745819
1757768768379287000,45.714287109375,2.8838503864496943,8.170335330358148,-4.593407694695889
1757768768389243000,45.72424291992188,2.8381612329423427,8.178978655540943,-4.606467082755267
1757768768399200000,45.734199951171874,2.781806600774825,8.198620344600082,-4.605928153572976
1757768768409157000,45.7441572265625,2.715021760007739,8.228228131878376,-4.592963165798783
1757768768419114000,45.754114013671874,2.638830208469927,8.266258879587054,-4.569017057543992
1757768768429070000,45.76407006835937,2.554457688564062,8.31132493276,-4.535085269586742
1757768768439027000,45.77402685546875,2.4644611912965773,8.362729541304708,-4.490164762364327
1757768768448983800,45.78398388671875,2.3715558208450678,8.4200746458143,-4.432656576247513
1757768768458940000,45.79393994140625,2.27639857981354,8.482209907209873,-4.363541538967192
1757768768468896800,45.803896728515625,2.178840999642014,8.54777222044468,-4.284696550311148
1757768768478854000,45.81385400390625,2.082216462536901,8.616150175622105,-4.194844429950416
1757768768488811000,45.82381103515625,1.9933152131602168,8.687456585466862,-4.0896407189399
1757768768498766800,45.83376684570312,1.9167500060044227,8.761699048763512,-3.9659918351784342
1757768768508724000,45.84372387695313,1.850523383641988,8.838064495563506,-3.82551865786612
1757768768518681000,45.85368115234375,1.7893102055273948,8.914044742438197,-3.675400284852088
1757768768528638000,45.86363793945313,1.7290243713907896,8.986354776367545,-3.5250963261380788
1757768768538594000,45.87359399414063,1.6681773962400852,9.052095953300595,-3.3833597047612067
1757768768548551000,45.883551025390624,1.606847752138972,9.109730980667472,-3.2559526375100014
1757768768558508000,45.89350805664063,1.5469417111001909,9.15915698261559,-3.144388159295916
1757768768568464100,45.90346411132813,1.491275207327306,9.201634188339114,-3.0457214488387105
1757768768578421000,45.9134208984375,1.4424173606559634,9.239344618052243,-2.953701044528186
1757768768588377900,45.9233779296875,1.4008490864709018,9.274978241491317,-2.8605598194941875
1757768768598335000,45.9333349609375,1.3670739503800868,9.310532954475285,-2.759617857581377
1757768768608290800,45.94329077148438,1.3408894155487416,9.346674527436496,-2.648032921101153
1757768768618248000,45.953248046875,1.3218253802470863,9.383167398053407,-2.52573165255636
1757768768628205000,45.963205078125,1.3095638645671308,9.419312478145956,-2.394156505840272
1757768768638162000,45.97316186523437,1.3045429676651954,9.454299035853149,-2.2549523255504664
1757768768648118000,45.983117919921874,1.3069156881459056,9.487368946284056,-2.110019830741733
1757768768658075000,45.99307495117188,1.3184903906054797,9.517638412341476,-1.9612534568585451
1757768768668032000,46.003031982421874,1.3413640473231672,9.544122514641284,-1.8113176008045675
1757768768677988000,46.01298803710937,1.378944420915842,9.565881341984868,-1.6621750870853662
1757768768687945000,46.02294506835938,1.434034001583606,9.582336217701435,-1.5141883192725478
1757768768697902000,46.03290209960937,1.5074164870500564,9.593153379791977,-1.367289931218326
1757768768707859000,46.04285888671875,1.5977623822771012,9.598256255888938,-1.2210639625329525
1757768768717815000,46.05281494140625,1.7026412452474236,9.597777532461285,-1.074277656551078
1757768768727772000,46.06277197265625,1.8188817524485288,9.591832360321282,-0.9267224850885568
1757768768737728800,46.07272875976562,1.9423576177306472,9.580710662326217,-0.7795085282791405
1757768768747684900,46.08268481445312,2.0693647258788346,9.56484907632768,-0.6338652548525482
1757768768757642000,46.09264208984375,2.1969816364884376,9.544795883858203,-0.4904537955986335
1757768768767598800,46.10259887695312,2.3233190286815164,9.521064295136927,-0.3491265587402507
1757768768777556000,46.11255590820313,2.4475500962451098,9.493988072162866,-0.2099774148396216
1757768768787512000,46.12251196289063,2.569931736549735,9.463642033737898,-0.072968274075794
1757768768797469000,46.13246899414062,2.690658595384657,9.430117365276812,0.0601387127169175
1757768768807426000,46.14242602539063,2.8098566372171043,9.393602867349982,0.1879138141294941
1757768768817383200,46.15238305664062,2.927113481853902,9.35449718388617,0.3094961938152089
1757768768827339000,46.16233911132812,3.0412548248186706,9.313586496827003,0.4222035219214856
1757768768837296000,46.172296142578126,3.151212452358007,9.271787921017408,0.5236563559658826
1757768768847252700,46.18225268554688,3.256055513362586,9.230017402258516,0.6125854431975633
1757768768857209000,46.192208984375,3.3552921326622367,9.1890359880507,0.6885044614043087
1757768768867166000,46.202166015625,3.4483708138540385,9.149541597530243,0.7516853593952953
1757768768877122800,46.21212280273438,3.534433186542988,9.112304046025873,0.8025516232796013
1757768768887080000,46.22207983398437,3.612873393790424,9.077910778036712,0.8420607729777694
1757768768897035800,46.232035888671874,3.6826898573383686,9.046953329715132,0.8722354734238237
1757768768906993000,46.24199291992188,3.742457512819767,9.020281011366844,0.8938281504202633
1757768768916950000,46.25194995117187,3.791163383799791,8.998660715711116,0.9063963208965956
1757768768926905300,46.2619052734375,3.827895031608641,8.983018325421213,0.9071847678605468
1757768768936862500,46.271862548828125,3.8518145441174494,8.974044160848855,0.8946673046581447
1757768768946819300,46.2818193359375,3.863246623235941,8.97160962717831,0.8694435776829719
1757768768956776400,46.2917763671875,3.862603064635396,8.975084025290608,0.8357944791246205
1757768768966732300,46.30173217773437,3.850516028739512,8.98350932380855,0.8002921539150178
1757768768976689400,46.311689453125,3.827762929661572,8.996127397841214,0.7670232868459075
1757768768986646500,46.321646484375,3.796280872943997,9.012038083678483,0.7360672267638146
1757768768996603100,46.33160302734375,3.7588048365086313,9.030006286567447,0.7076474802263081
1757768769006559500,46.3415595703125,3.7173695410534737,9.04898921945691,0.6836346634108573
1757768769016516400,46.35151635742187,3.672798870182037,9.068605189552905,0.6643241790674627
1757768769026473200,46.36147314453125,3.624243805849552,9.089414168825746,0.6463543687433004
1757768769036429300,46.37142919921875,3.56998468465656,9.1123081376791,0.6256442467350513
1757768769046386400,46.38138647460938,3.5084757384657856,9.137797968244552,0.601370660091564
