time,seconds_elapsed,z,y,x
1757614387464103700,62.78110375976563,0.8341753482818604,-1.99981689453125,-1.5504045486450195
1757614387474059800,62.79105981445313,1.743809700012207,-3.044565439224243,-1.603180170059204
1757614387484014800,62.80101489257813,2.450721979141236,-3.764077663421631,-1.6778564453125
1757614387493970700,62.810970703125,3.015695810317993,-4.144976139068604,-1.823573112487793
1757614387503925800,62.82092578125,3.5423293113708496,-4.2894673347473145,-2.2245867252349854
1757614387513881600,62.83088159179688,4.160000801086426,-4.242574214935303,-3.165178775787353
1757614387523836700,62.84083666992188,5.064221858978272,-4.063250541687012,-4.4995880126953125
1757614387533792800,62.85079272460938,5.965994834899902,-3.6783366203308105,-5.127925872802734
1757614387543747600,62.86074755859375,5.937234878540039,-3.119511365890503,-4.444509983062744
1757614387553703700,62.87070361328125,4.755577564239502,-2.39783263206482,-3.557647466659546
1757614387563658800,62.88065869140625,3.155672073364258,-1.1407123804092407,-3.1006853580474854
1757614387573614800,62.89061474609375,1.8428449630737305,-0.0588668882846832,-2.833624601364136
1757614387583570700,62.90057080078125,1.188050627708435,0.2160317152738571,-2.7767152786254883
1757614387593525800,62.91052587890625,0.9818243980407716,-0.1619936227798462,-2.85867691040039
1757614387603481900,62.92048193359375,0.8805217146873474,-0.7411807179450989,-2.9218969345092773
1757614387613436700,62.93043676757812,0.6623544692993164,-1.289292335510254,-2.8977863788604736
1757614387623392800,62.94039282226562,0.4238387942314148,-1.8505730628967283,-2.71639084815979
1757614387633347800,62.95034790039063,0.3092437982559204,-2.3167755603790283,-2.5014541149139404
1757614387643303700,62.9603037109375,0.329384446144104,-2.7649405002593994,-2.279246091842652
1757614387653258800,62.9702587890625,0.3082783818244934,-3.1136066913604736,-1.9931862354278564
1757614387663214600,62.980214599609376,0.2071410864591598,-3.309514284133911,-1.710331678390503
1757614387673169700,62.99016967773437,0.0471841655671596,-3.4280307292938232,-1.430964469909668
1757614387683125800,63.00012573242188,-0.1532977670431137,-3.5131514072418213,-1.1630001068115234
1757614387693080600,63.01008056640625,-0.3748604953289032,-3.569401741027832,-0.941330909729004
1757614387703036700,63.02003662109375,-0.597235381603241,-3.61074447631836,-0.7504124641418457
1757614387712992800,63.02999267578125,-0.794110894203186,-3.655076503753662,-0.574435293674469
1757614387722947800,63.03994775390625,-0.9096274375915528,-3.729414701461792,-0.4108640253543854
1757614387732903700,63.049903564453125,-0.9350731372833252,-3.826458215713501,-0.2355726361274719
1757614387742858800,63.05985864257813,-0.8743346929550171,-3.923476934432984,-0.0442063212394714
1757614387752814800,63.06981494140625,-0.7352114319801331,-3.9969444274902335,0.158149167895317
1757614387762769700,63.07976977539062,-0.5328534841537476,-3.9998466968536377,0.3712278604507446
1757614387772725800,63.08972583007812,-0.2883624732494354,-3.910601377487183,0.5931791663169861
1757614387782680800,63.099680908203126,-0.027708388864994,-3.771923780441284,0.7929648160934448
1757614387792636700,63.10963671875,0.1863154768943786,-3.6004538536071777,0.9695062637329102
1757614387802591700,63.119591796875,0.2750815153121948,-3.377506732940674,1.1289891004562378
1757614387812547600,63.12954760742188,0.2163143455982208,-3.111334085464477,1.2532076835632324
1757614387822503700,63.13950366210938,-0.006743655540049,-2.8496408462524414,1.342764139175415
1757614387832458800,63.14945874023437,-0.4162813723087311,-2.6506474018096924,1.403361678123474
1757614387842414600,63.15941455078125,-0.9301519393920898,-2.438066244125366,1.4022692441940308
1757614387852369700,63.16936962890625,-1.41710102558136,-2.0487945079803467,1.3797374963760376
1757614387862325800,63.17932568359375,-1.792812466621399,-1.3271338939666748,1.4218865633010864
1757614387872280800,63.18928076171875,-2.0423715114593506,-0.2648644149303436,1.5425379276275637
1757614387882236700,63.199236572265626,-2.204190731048584,1.0544477701187134,1.7456495761871338
1757614387892191700,63.20919165039062,-2.3248231410980225,2.5709497928619385,1.992882490158081
1757614387902147800,63.21914794921875,-2.3662679195404053,4.209096908569336,2.1750407218933105
1757614387912102700,63.2291025390625,-2.247159481048584,5.8408637046813965,2.2122652530670166
1757614387922058800,63.239058837890624,-2.0135631561279297,7.077569484710693,2.328047275543213
1757614387932013800,63.24901391601563,-1.8812990188598635,7.78340482711792,2.728003025054932
1757614387941969400,63.25896948242188,-2.0336427688598637,8.197851181030273,3.242928266525269
1757614387951925500,63.268925537109375,-2.6089916229248047,8.54754638671875,3.1783766746521
1757614387961880300,63.27888037109375,-3.4660658836364746,8.11717414855957,2.4120326042175293
1757614387971836400,63.28883642578125,-3.7360546588897705,6.735188007354736,1.6286629438400269
1757614387981791500,63.29879150390625,-2.9230740070343018,5.123278617858887,1.0395419597625732
1757614387991747300,63.30874731445312,-1.8048920631408687,3.9576361179351807,0.7690231800079346
1757614388001702700,63.31870263671875,-0.9093098640441896,3.0060925483703613,0.758150041103363
1757614388011658500,63.32865844726562,-0.4459376931190491,2.09840726852417,0.9029764533042908
1757614388021613300,63.33861328125,-0.473745197057724,1.376252293586731,1.069782018661499
1757614388031569400,63.3485693359375,-0.8627118468284607,1.009289026260376,1.104946851730347
1757614388041524500,63.3585244140625,-1.3728817701339722,0.9801627397537231,1.0400856733322144
1757614388051480600,63.36848046875,-1.7865266799926758,1.0933740139007568,0.955388605594635
1757614388061435400,63.37843530273437,-2.005434274673462,1.1746854782104492,0.8590664267539978
1757614388071391200,63.38839111328125,-2.0408146381378174,1.2492250204086304,0.7566588521003723
1757614388081347600,63.39834765625,-1.9364689588546755,1.3285516500473022,0.6722602248191833
1757614388091302400,63.40830249023438,-1.7532116174697876,1.416831374168396,0.6198965907096863
1757614388101258500,63.41825854492188,-1.550097107887268,1.5244160890579224,0.5887870192527771
1757614388111213600,63.42821362304687,-1.3514524698257446,1.6603968143463137,0.5824817419052124
1757614388121169400,63.43816943359375,-1.175361156463623,1.8099454641342163,0.5711319446563721
1757614388131124500,63.44812451171875,-1.0440007448196411,1.958004117012024,0.5381191372871399
1757614388141080300,63.45808032226562,-0.967360496520996,2.1106419563293457,0.4832599461078644
1757614388151035600,63.46803564453125,-0.9605992436408995,2.268515348434448,0.3988393545150757
1757614388160991500,63.477991455078126,-1.012344241142273,2.4281797409057617,0.3034858405590057
1757614388170946300,63.4879462890625,-1.081493258476257,2.611412763595581,0.2016806453466415
1757614388180902400,63.49790234375,-1.114445447921753,2.7866032123565674,0.0766694322228431
1757614388190857500,63.507857421875,-1.082925796508789,2.9074649810791016,-0.0713804885745048
1757614388200813600,63.5178134765625,-0.977778136730194,2.909134864807129,-0.2467528581619262
1757614388210769400,63.52776928710937,-0.8315383791923523,2.746539354324341,-0.4441095888614654
1757614388220724200,63.53772412109375,-0.6757596135139465,2.3798041343688965,-0.6567904353141785
1757614388230680600,63.5476806640625,-0.5057628154754639,1.7283425331115725,-0.8817532658576965
1757614388240635400,63.55763549804688,-0.265024334192276,0.6881842017173767,-1.113681674003601
1757614388250591500,63.56759155273438,0.1083026602864265,-0.7538520097732544,-1.3546003103256226
1757614388260546600,63.57754663085937,0.6273359060287476,-2.3995749950408936,-1.5698870420455933
1757614388270502400,63.58750244140625,1.231388807296753,-3.907272100448608,-1.7721911668777466
1757614388280457500,63.59745751953125,1.8701659440994265,-5.0694732666015625,-2.012685060501098
1757614388290413300,63.60741333007813,2.5078234672546387,-5.846867084503174,-2.292903423309326
1757614388300368600,63.61736865234375,3.123132944107056,-6.203839302062988,-2.5804059505462646
1757614388310324500,63.62732446289063,3.724523782730103,-6.063808441162109,-2.848918437957764
1757614388320279300,63.637279296875,4.421795845031738,-5.421517372131348,-3.3018810749053955
1757614388330235400,63.6472353515625,5.729512691497803,-4.40337610244751,-4.340938091278076
1757614388340190500,63.6571904296875,7.309939861297607,-2.9547488689422607,-5.096700191497803
1757614388350146600,63.667146484375,6.638708591461182,-1.7940388917922974,-4.015328407287598
1757614388360102400,63.67710229492187,4.035715103149414,-0.8941127061843872,-2.7409048080444336
1757614388370057500,63.68705737304688,1.563608169555664,0.4994395971298218,-2.169227123260498
1757614388380013600,63.697013671875,0.3972637951374054,2.2592289447784424,-2.0838935375213623
1757614388389968400,63.70696850585937,0.3888066709041595,3.5247585773468018,-2.3549797534942627
1757614388399924500,63.71692456054687,0.7376771569252014,3.713858366012573,-2.605188369750977
1757614388409879600,63.72687963867188,0.8376378417015076,3.09826135635376,-2.6509854793548584
1757614388419835400,63.73683544921875,0.436060756444931,2.26125717163086,-2.4931387901306152
1757614388429790500,63.74679052734375,-0.1273261606693267,1.3966654539108276,-2.276959180831909
1757614388439746300,63.75674633789063,-0.3820682466030121,0.5977961421012878,-2.1430249214172363
1757614388449701600,63.76670166015625,-0.360776275396347,-0.2131907641887664,-1.9325162172317505
1757614388459657500,63.77665747070313,-0.4489295780658722,-0.9601490497589112,-1.7222092151641846
1757614388469612300,63.7866123046875,-0.6095399856567383,-1.7174444198608398,-1.5410205125808716
1757614388479568400,63.796568359375,-0.7492712736129761,-2.51479721069336,-1.349086046218872
1757614388489523500,63.8065234375,-0.8457184433937073,-3.2806437015533447,-1.16146981716156
1757614388499479600,63.8164794921875,-0.8782782554626465,-3.888094186782837,-0.9619023203849792
1757614388509435400,63.82643530273437,-0.8627166152000427,-4.303788185119629,-0.7839291095733643
1757614388519390500,63.83639038085938,-0.8567278385162354,-4.535148143768311,-0.6186442375183105
1757614388529346600,63.8463466796875,-0.844810962677002,-4.708341598510742,-0.4750553667545318
1757614388539301400,63.85630126953125,-0.8194945454597473,-4.934981822967529,-0.3269526660442352
1757614388549257500,63.86625756835937,-0.7362931370735168,-5.24385404586792,-0.1511960476636886
1757614388559212500,63.876212646484376,-0.6108747124671936,-5.6089606285095215,0.0549577549099922
1757614388569168400,63.88616845703125,-0.4169492125511169,-5.927258014678955,0.2769652605056762
1757614388579123500,63.89612353515625,-0.1827270984649658,-6.093338489532471,0.4953537583351135
1757614388589079300,63.90607934570313,0.0731542184948921,-6.045200347900391,0.6978554725646973
1757614388599034600,63.91603466796875,0.310818612575531,-5.801936626434326,0.8879279494285583
1757614388608990500,63.92599047851562,0.4694247841835022,-5.460105895996094,1.1054495573043823
1757614388618945300,63.9359453125,0.4567195475101471,-5.056044578552246,1.3472003936767578
1757614388628901400,63.9459013671875,0.2263883501291275,-4.602092742919922,1.5703251361846924
1757614388638856400,63.9558564453125,-0.1906847655773162,-4.054805278778076,1.735812425613403
1757614388648812500,63.9658125,-0.7001093626022339,-3.337188005447388,1.8141796588897705
1757614388658768400,63.97576831054688,-1.1641782522201538,-2.424046754837036,1.8424335718154907
1757614388668723500,63.98572338867187,-1.505931377410889,-1.3717713356018066,1.873989701271057
1757614388678679600,63.99567944335938,-1.7248817682266235,-0.2455450892448425,1.9212870597839355
1757614388688634400,64.00563427734374,-1.83646023273468,1.0084344148635864,2.041537284851074
1757614388698590500,64.01559057617187,-1.8794524669647217,2.50760555267334,2.2574822902679443
1757614388708545500,64.02554565429688,-1.84358823299408,4.227776527404785,2.4732162952423096
1757614388718501400,64.03550146484375,-1.7021667957305908,5.775657176971436,2.6705963611602783
1757614388728456400,64.04545654296875,-1.6515909433364868,6.801290035247803,3.0406510829925537
1757614388738412300,64.05541235351562,-1.8397283554077148,7.629943370819092,3.610852003097534
1757614388748367600,64.06536767578125,-2.1768274307250977,8.543102264404297,4.126016616821289
1757614388758323500,64.07532348632813,-2.5838584899902344,9.412899017333984,4.249421119689941
1757614388768278300,64.0852783203125,-3.1434457302093506,9.63028049468994,3.872080564498901
1757614388778234400,64.095234375,-3.869811773300171,8.783612251281738,3.225237846374512
1757614388788190500,64.1051904296875,-4.180469512939453,7.182884693145752,2.7136058807373047
1757614388798145500,64.1151455078125,-3.609798431396485,5.600557327270508,2.3951058387756348
1757614388808101400,64.12510131835937,-2.556251287460327,4.371502876281738,2.243003368377685
1757614388818056400,64.13505639648437,-1.629873275756836,3.193194627761841,2.261807918548584
1757614388828012500,64.14501245117188,-1.0750731229782104,1.8706215620040891,2.24472975730896
1757614388837967400,64.15496728515625,-0.8717985153198242,0.6516982316970825,2.0147502422332764
1757614388847923500,64.16492333984375,-0.925157368183136,-0.2366425544023513,1.6837483644485474
1757614388857878500,64.17487841796876,-1.1131247282028198,-0.7823458313941956,1.4203526973724363
1757614388867834400,64.18483447265625,-1.3460443019866943,-1.054003357887268,1.230986475944519
1757614388877789400,64.19478955078125,-1.578514814376831,-1.0973337888717651,1.0767381191253662
1757614388887745300,64.20474536132812,-1.7588269710540771,-0.9767523407936096,0.9609208703041076
1757614388897700400,64.21470043945313,-1.864999771118164,-0.7277552485466003,0.8789620995521545
1757614388907656400,64.22465649414063,-1.8914148807525637,-0.3911982774734497,0.8240658044815063
1757614388917611300,64.234611328125,-1.8433912992477417,-0.0162669476121664,0.7741954922676086
1757614388927567400,64.2445673828125,-1.7216390371322632,0.3683526217937469,0.7129244208335876
1757614388937523500,64.2545234375,-1.5578349828720093,0.7764438390731812,0.6482296586036682
1757614388947478000,64.26447802734376,-1.4148879051208496,1.1823564767837524,0.5736079216003418
1757614388957433900,64.27443383789063,-1.3247255086898804,1.5321192741394043,0.5060214400291443
1757614388967389200,64.28438916015625,-1.2513689994812012,1.7795084714889526,0.4572978615760803
1757614388977345000,64.29434497070312,-1.1692051887512207,1.9283610582351685,0.4263536930084228
1757614388987300000,64.30430004882813,-1.0442835092544556,1.9950945377349851,0.3716278672218323
1757614388997256000,64.314255859375,-0.8588247299194336,1.9831657409667969,0.2515584230422973
1757614389007211000,64.3242109375,-0.5946191549301147,1.9084182977676392,0.0713535100221633
1757614389017167000,64.3341669921875,-0.2364267259836197,1.7289990186691284,-0.1442640125751495
1757614389027122000,64.34412182617187,0.2304429858922958,1.3596010208129885,-0.3884452581405639
1757614389037078000,64.354078125,0.8063881397247314,0.686974287033081,-0.6916457414627075
1757614389047033000,64.364033203125,1.4565421342849731,-0.3127094805240631,-1.0856812000274658
1757614389056989000,64.37398901367187,2.126194715499878,-1.4378297328948977,-1.5037213563919067
1757614389066944000,64.38394409179688,2.7509937286376958,-2.448686122894287,-1.8744548559188845
1757614389076900000,64.39390014648437,3.305239677429199,-3.2092411518096924,-2.223902940750122
1757614389086855000,64.40385498046875,3.803245782852173,-3.6768875122070312,-2.579686403274536
1757614389096811000,64.41381103515624,4.257840156555176,-3.7660064697265625,-2.9316179752349854
1757614389106766800,64.42376684570313,4.701343059539795,-3.402086019515991,-3.3714890480041504
1757614389116722200,64.43372216796875,5.2250800132751465,-2.626512289047241,-4.101714611053467
1757614389126678000,64.44367797851562,5.933002948760986,-1.569435954093933,-5.002767086029053
1757614389136633000,64.45363305664063,6.322762489318848,-0.4534429609775543,-5.198293209075928
1757614389146589000,64.4635888671875,5.472754955291748,0.3675315678119659,-4.362390518188477
1757614389156544000,64.4735439453125,3.6356022357940674,1.0912773609161377,-3.56210994720459
1757614389166500000,64.4835,1.754682540893555,1.9098191261291504,-3.2907657623291016
1757614389176455000,64.49345483398437,0.5498149991035461,2.502054452896118,-3.2303168773651123
1757614389186411300,64.50341137695312,0.0097214318811893,2.371867418289185,-3.199507236480713
1757614389196366000,64.51336596679687,-0.1977103352546692,1.6325201988220217,-3.231703996658325
1757614389206322000,64.52332202148438,-0.3865409791469574,0.8539450764656067,-3.180433750152588
1757614389216277200,64.53327734375,-0.6671373248100281,0.2580243945121765,-2.992882013320923
1757614389226233000,64.54323315429687,-0.8961238861083984,-0.1929936408996582,-2.6429803371429443
1757614389236188000,64.55318798828125,-0.9470417499542236,-0.4912962913513183,-2.252230405807495
1757614389246144000,64.56314404296874,-0.9361094832420348,-0.6739369630813599,-1.8835208415985107
1757614389256099000,64.57309912109375,-1.0336647033691406,-0.8213035464286804,-1.5627156496047974
1757614389266055200,64.58305517578125,-1.2755860090255735,-1.0075576305389404,-1.2948375940322876
1757614389276011000,64.59301098632812,-1.5683794021606443,-1.3276973962783811,-1.098594307899475
1757614389285966000,64.60296606445313,-1.773589015007019,-1.7907065153121948,-0.9629446864128112
1757614389295922000,64.612921875,-1.76361346244812,-2.3393447399139404,-0.85204017162323
1757614389305877000,64.622876953125,-1.5383774042129517,-2.8814480304718018,-0.7522534132003784
1757614389315833000,64.6328330078125,-1.192731499671936,-3.24177622795105,-0.6522539854049683
1757614389325788000,64.64278784179687,-0.8399133682250977,-3.3640177249908447,-0.5546746850013733
1757614389335744300,64.652744140625,-0.5258248448371887,-3.356947660446167,-0.3932632207870483
1757614389345699000,64.66269897460937,-0.2279058396816253,-3.28425407409668,-0.2183454930782318
1757614389355655000,64.67265502929688,-0.0760863274335861,-3.427215337753296,-0.0835005342960357
1757614389365610200,64.6826103515625,0.0053454199805855,-3.727299928665161,0.107899785041809
1757614389375566000,64.69256616210937,0.0076227206736803,-4.142109394073486,0.287250280380249
1757614389385521000,64.70252099609375,-0.0280678980052471,-4.48386812210083,0.5291385650634766
1757614389395477000,64.71247705078125,-0.1215744614601135,-4.649248123168945,0.8027692437171936
1757614389405432000,64.72243212890625,-0.2387149333953857,-4.704510688781738,1.0747445821762085
1757614389415388200,64.73238818359376,-0.3945634663105011,-4.719346523284912,1.2982828617095947
1757614389425344000,64.74234399414063,-0.5737574696540833,-4.668836116790772,1.4445689916610718
1757614389435299000,64.75229907226563,-0.788513720035553,-4.378169059753418,1.5254729986190796
1757614389445255200,64.76225512695312,-0.9751145243644714,-3.653285264968872,1.5975914001464844
1757614389455210000,64.7722099609375,-1.1525079011917114,-2.4058725833892822,1.7242027521133425
1757614389465166000,64.782166015625,-1.3292006254196167,-0.7538256049156189,1.9098646640777588
1757614389475121000,64.79212084960938,-1.5227346420288086,1.0183193683624268,2.1728830337524414
1757614389485077200,64.8020771484375,-1.6922597885131836,2.6876814365386963,2.502586603164673
1757614389495032000,64.81203198242187,-1.7859128713607788,4.140477180480957,2.8529231548309326
1757614389504988000,64.82198779296876,-1.7504576444625854,5.37938404083252,3.1822006702423096
1757614389514943200,64.83194311523438,-1.4904546737670898,6.482673645019531,3.240222692489624
1757614389524899000,64.84189916992187,-0.8079515695571899,7.420257568359375,2.7486283779144287
1757614389534854000,64.85185400390625,0.3317378163337707,7.722477436065674,2.2779197692871094
1757614389544810000,64.86181005859375,0.662129819393158,7.7137861251831055,3.2491791248321533
1757614389554765000,64.87176513671875,-0.9510046243667604,8.203537940979004,4.77362060546875
1757614389564721200,64.88172119140626,-3.435494899749756,8.347118377685547,4.804622173309326
1757614389574676000,64.89167602539062,-4.844635963439941,7.253828048706055,3.668801784515381
1757614389584632000,64.90163208007813,-4.796047687530518,5.279708862304688,2.224696397781372
1757614389594588200,64.91158813476562,-3.813805341720581,2.922513961791992,1.2624225616455078
1757614389604543000,64.92154296875,-2.364607810974121,0.9921116828918456,0.8619611859321594
1757614389614499000,64.9314990234375,-1.133813977241516,-0.2709153294563293,0.7231585383415222
1757614389624454100,64.9414541015625,-0.4505197405815124,-1.1514750719070437,0.5810019373893738
1757614389634410200,64.95141015625,-0.3496068120002746,-1.8147228956222532,0.3812721967697143
1757614389644365000,64.96136499023437,-0.6862463355064392,-2.232320785522461,0.2063523232936859
1757614389654321000,64.97132080078126,-1.2051544189453125,-2.415766954421997,0.09952113032341
1757614389664276200,64.98127612304687,-1.6679308414459229,-2.39963173866272,0.0671898201107978
1757614389674232000,64.99123217773437,-1.9377983808517456,-2.2409889698028564,0.0843818262219429
1757614389684187000,65.00118676757812,-1.997437119483948,-1.951500415802002,0.1396237760782241
1757614389694143000,65.01114306640625,-1.88051176071167,-1.529684066772461,0.2181639224290847
1757614389704098000,65.02109814453125,-1.6571511030197144,-0.9879068732261658,0.2532982230186462
1757614389714054100,65.03105419921874,-1.4049512147903442,-0.3458237051963806,0.2051947116851806
1757614389724009000,65.04100903320312,-1.1819918155670166,0.3214158713817596,0.1086639091372489
1757614389733965000,65.05096508789063,-1.032374382019043,0.9012936353683472,0.018301211297512
1757614389743920000,65.06092016601562,-0.9417110681533812,1.3341997861862185,-0.0399024412035942
1757614389753876000,65.0708759765625,-0.8564016819000244,1.6361112594604492,-0.09347415715456
1757614389763832000,65.08083203125,-0.7419973611831665,1.8469867706298828,-0.167660504579544
1757614389773787100,65.090787109375,-0.5583205223083496,1.994794845581055,-0.2650177776813507
1757614389783743200,65.1007431640625,-0.3034056425094604,2.095839262008667,-0.3598694503307342
1757614389793698000,65.11069799804687,0.007502376101911,2.1318471431732178,-0.4522270262241363
1757614389803654000,65.12065380859374,0.3246433138847351,2.083484649658203,-0.5278434753417969
1757614389813609200,65.13060913085937,0.5913653373718262,1.9696999788284304,-0.6247011423110962
1757614389823565000,65.14056494140625,0.8252726793289185,1.6435176134109497,-0.7358662486076355
1757614389833519900,65.15051977539062,0.9875097274780272,1.0600221157073977,-0.9082722067832948
1757614389843476000,65.16047607421875,1.1217684745788574,0.2670304775238037,-1.1919912099838257
1757614389853431000,65.17043115234375,1.2737947702407837,-0.6992453932762146,-1.5726749897003174
1757614389863387100,65.18038720703125,1.4961596727371216,-1.7077478170394895,-2.014558792114258
1757614389873342000,65.19034204101563,1.8127434253692627,-2.568692445755005,-2.4717984199523926
1757614389883298000,65.20029809570312,2.1952126026153564,-3.143540382385254,-2.918936014175415
1757614389893253000,65.21025317382812,2.6201229095458984,-3.4016363620758057,-3.3071906566619877
1757614389903209000,65.220208984375,3.176825046539306,-3.3521101474761963,-3.773492574691773
1757614389913164000,65.2301640625,4.250734806060791,-3.2036349773406982,-4.802114009857178
1757614389923120000,65.2401201171875,5.946719169616699,-3.237405776977539,-5.950868129730225
1757614389933075000,65.25007495117187,5.90302038192749,-3.0553433895111084,-5.165030956268311
1757614389943033000,65.260033203125,3.373754978179932,-2.85574722290039,-3.7284352779388423
1757614389952989000,65.26998901367188,0.6358553767204285,-2.094087600708008,-3.2436413764953613
1757614389962944000,65.27994409179688,-0.5419906973838806,-0.6823554635047913,-3.508496761322021
1757614389972899800,65.28989990234375,-0.3175259530544281,0.6198732852935791,-3.9227027893066406
1757614389982855200,65.29985522460937,0.2983897030353546,0.906350314617157,-3.8561508655548096
1757614389992811000,65.30981103515624,0.6017075181007385,0.4740684926509857,-3.602787971496582
1757614390002765800,65.31976586914062,0.5114750862121582,0.0294734723865985,-3.3286616802215576
1757614390012722000,65.32972192382813,0.2969392836093902,-0.24131640791893,-2.9843978881835938
1757614390022677000,65.33967700195312,0.1283747851848602,-0.4533807337284088,-2.5608572959899902
1757614390032633000,65.34963305664063,-0.0920564532279968,-0.7550870776176453,-2.1667096614837646
1757614390042588000,65.359587890625,-0.3413142263889313,-1.0886781215667725,-1.866255640983581
1757614390052544000,65.3695439453125,-0.5248751044273376,-1.3853400945663452,-1.6044912338256836
1757614390062499000,65.3794990234375,-0.6034998297691345,-1.6692583560943604,-1.37006938457489
1757614390072455000,65.38945483398437,-0.5576685070991516,-2.011945962905884,-1.1782110929489136
1757614390082410000,65.39940991210938,-0.4349660575389862,-2.38672137260437,-0.9866451025009156
1757614390092366000,65.40936596679687,-0.2966512143611908,-2.802484035491944,-0.8273888826370239
1757614390102321000,65.41932080078125,-0.1613980680704116,-3.262821912765503,-0.6853861808776855
1757614390112277000,65.42927709960938,-0.0349399037659168,-3.815253257751465,-0.5405458211898804
1757614390122232000,65.43923217773437,0.0907506421208381,-4.42961311340332,-0.4018998146057129
1757614390132188200,65.44918823242188,0.1856529116630554,-5.0374016761779785,-0.2303064465522766
1757614390142144000,65.45914404296875,0.2646864950656891,-5.511321544647217,0.0386166311800479
1757614390152098800,65.46909887695313,0.3131497204303741,-5.778162479400635,0.3522530496120453
1757614390162055000,65.47905493164062,0.3414482176303863,-5.845870494842529,0.6473981738090515
1757614390172010000,65.48901000976562,0.3472006618976593,-5.754778861999512,0.9179282188415528
1757614390181966000,65.49896606445313,0.316031813621521,-5.5419535636901855,1.1870847940444946
1757614390191921000,65.5089208984375,0.1852213591337204,-5.217024803161621,1.4705157279968262
1757614390201877000,65.518876953125,-0.0601492449641227,-4.849509716033936,1.7289403676986694
1757614390211832000,65.52883203125,-0.4079504907131195,-4.466073513031006,1.88461709022522
1757614390221788000,65.53878784179688,-0.8294649720191956,-3.977489709854126,1.907564759254456
1757614390231743000,65.54874291992188,-1.213698387145996,-3.228822708129883,1.863046646118164
1757614390241699000,65.55869897460937,-1.5080008506774902,-2.2061574459075928,1.802229881286621
1757614390251654000,65.56865380859375,-1.7307788133621216,-1.0553535223007202,1.7792572975158691
1757614390261610000,65.57860986328124,-1.9103964567184448,0.1168097481131553,1.8966583013534544
1757614390271565000,65.58856494140625,-2.053097724914551,1.2939189672470093,2.1402289867401123
1757614390281521200,65.59852124023438,-2.131169557571411,2.4729723930358887,2.4021942615509038
1757614390291476000,65.60847607421876,-2.0941357612609863,3.627343654632568,2.621893882751465
1757614390301431800,65.61843188476563,-1.9059892892837524,4.873066425323486,2.703580379486084
1757614390311387100,65.62838720703125,-1.4705687761306765,6.371994495391846,2.3910388946533203
1757614390321343000,65.63834301757812,-0.6019952893257141,7.851077079772949,1.6296225786209106
1757614390331299000,65.64829907226563,0.2722831964492798,8.164965629577637,1.4647895097732544
1757614390341254000,65.65825390625,-0.0748510360717773,7.768547534942627,2.584757089614868
1757614390351210000,65.6682099609375,-1.891108155250549,7.857124328613281,3.9898860454559326
1757614390361165000,65.6781650390625,-3.927959680557251,8.424185752868652,4.436656475067139
1757614390371121000,65.68812084960938,-5.459515571594238,8.485732078552246,3.773560047149658
1757614390381076000,65.69807592773438,-5.723513126373291,7.53123140335083,2.994422912597656
1757614390391032000,65.70803198242187,-4.927087306976318,6.040249347686768,2.486595869064331
1757614390400987000,65.71798681640625,-3.4850614070892334,4.57745361328125,2.2832295894622803
1757614390410943000,65.72794287109375,-2.032501459121704,3.226419448852539,2.3118746280670166
1757614390420898000,65.73789794921875,-1.157833456993103,1.9782469272613523,2.4094879627227783
1757614390430854100,65.74785424804688,-0.953073024749756,0.8592261075973511,2.4216580390930176
1757614390440809000,65.75780908203124,-1.2168163061141968,-0.0364532507956028,2.2748725414276123
1757614390450764800,65.76776489257813,-1.739179253578186,-0.650458812713623,2.058627128601074
