time,seconds_elapsed,z,y,x
1757859285915662300,12.498662353515623,0.4138062298297882,1.5615087747573853,1.104161262512207
1757859285925646300,12.508646240234375,-0.1227584108710289,1.9602415561676023,0.8054293990135193
1757859285935629300,12.51862939453125,-0.5693414807319641,2.1456902027130127,0.6607499718666077
1757859285945612500,12.528612548828123,-0.8692024946212769,2.1802217960357666,0.6442348957061768
1757859285955596500,12.538596435546877,-0.9447571635246276,2.154410123825073,0.6741267442703247
1757859285965579500,12.54857958984375,-0.841092586517334,2.0944392681121826,0.7232844233512878
1757859285975562200,12.558562255859377,-0.7400906085968018,2.028107166290283,0.8043974041938782
1757859285985546200,12.568546142578125,-0.732751727104187,2.040221929550171,0.9157196879386902
1757859285995529500,12.578529541015625,-0.8064043521881104,2.163217544555664,1.04484224319458
1757859286005512400,12.588512451171876,-0.8836362957954407,2.3135759830474854,1.1698038578033447
1757859286015496400,12.598496337890625,-0.9141926169395448,2.4201228618621826,1.2685991525650024
1757859286025479400,12.6084794921875,-0.91341894865036,2.4530529975891118,1.3383854627609253
1757859286035462400,12.61846240234375,-0.9170880317687988,2.396957397460937,1.3760675191879272
1757859286045446400,12.6284462890625,-0.891071081161499,2.243600606918335,1.3683958053588867
1757859286055429400,12.638429443359374,-0.860589325428009,2.096441507339477,1.3408241271972656
1757859286065413400,12.648413330078125,-0.8313323855400085,1.9617878198623655,1.3132524490356443
1757859286075396400,12.658396240234374,-0.7719518542289734,1.8719055652618408,1.2587188482284546
1757859286085379300,12.66837939453125,-0.6512153148651123,1.750832438468933,1.1619163751602173
1757859286095363300,12.67836328125,-0.4724863171577453,1.6084635257720947,1.0184364318847656
1757859286105346600,12.6883466796875,-0.3012690246105194,1.4948749542236328,0.8443131446838379
1757859286115329500,12.69832958984375,-0.171362966299057,1.3692644834518433,0.6647303104400635
1757859286125313300,12.708313232421874,-0.0847071632742881,1.1718721389770508,0.5238065123558044
1757859286135296300,12.718296142578126,-0.0273498650640249,0.9053996801376344,0.4156374037265777
1757859286145279500,12.728279541015626,0.0035995284561067,0.6631798148155212,0.3099072575569153
1757859286155263500,12.738263427734376,0.0153009258210659,0.4925103485584259,0.1691551953554153
1757859286165246500,12.74824658203125,0.0131040839478373,0.3709082901477813,-0.021604361012578
1757859286175229200,12.758229248046876,0.0052333776839077,0.3050829470157623,-0.241275206208229
1757859286185213400,12.76821337890625,-0.0076451366767287,0.1836422681808471,-0.4302869439125061
1757859286195196400,12.778196533203126,-0.0123461484909057,-0.0797925665974617,-0.5720733404159546
1757859286205179400,12.788179443359375,0.0908129960298538,-0.4334481060504913,-0.6929595470428467
1757859286215163400,12.798163330078124,0.281532883644104,-0.906173050403595,-0.7351744174957275
1757859286225146400,12.808146484375,0.4589710533618927,-1.38078510761261,-0.7324841022491455
1757859286235130400,12.81813037109375,0.521980881690979,-1.6278928518295288,-0.9269925951957704
1757859286245113300,12.82811328125,0.4582450687885284,-1.6752289533615112,-1.3551617860794067
1757859286255096300,12.838096435546875,0.3181822299957275,-1.7041096687316897,-1.7278224229812622
1757859286265080600,12.84808056640625,0.2161173820495605,-1.7953317165374756,-1.6522389650344849
1757859286275063600,12.8580634765625,0.2023610919713974,-2.020749092102051,-1.1612138748168943
1757859286285046300,12.86804638671875,0.2636332511901855,-2.3254096508026123,-0.6838595271110535
1757859286295030300,12.8780302734375,0.4322230517864227,-2.569732427597046,-0.570469081401825
1757859286305013500,12.888013427734377,0.6452370285987854,-2.6489269733428955,-0.7690607309341431
1757859286314996500,12.89799658203125,0.7515027523040771,-2.611508846282959,-0.975369930267334
1757859286324980500,12.90798046875,0.7902517914772034,-2.589170455932617,-1.008305549621582
1757859286334963200,12.917963134765625,0.7913098335266113,-2.6309425830841064,-0.8928676247596741
1757859286344946400,12.927946533203125,0.7153365015983582,-2.7156217098236084,-0.7270120978355408
1757859286354930400,12.937930419921877,0.5438358783721924,-2.740190267562866,-0.5659177303314209
1757859286364913400,12.947913330078125,0.3489231169223785,-2.7214744091033936,-0.4545733630657196
1757859286374896400,12.957896484375,0.220316395163536,-2.628506898880005,-0.4114064574241638
1757859286384880400,12.96788037109375,0.1718226224184036,-2.4777791500091557,-0.4298174083232879
1757859286394863400,12.97786328125,0.2402717173099517,-2.3696086406707764,-0.4795793890953064
1757859286404847400,12.987847412109376,0.3206989169120788,-2.243342161178589,-0.5167272686958313
1757859286414830300,12.997830322265624,0.3518653512001037,-2.0811076164245605,-0.5466939806938171
1757859286424813600,13.0078134765625,0.3361487090587616,-1.8546671867370603,-0.5566952228546143
1757859286434797300,13.01779736328125,0.2889404594898224,-1.6473965644836426,-0.5550592541694641
1757859286444780300,13.0277802734375,0.2612504959106445,-1.4705644845962524,-0.595790684223175
1757859286454763500,13.037763427734374,0.2799506783485412,-1.3057457208633425,-0.6633018255233765
1757859286464747500,13.04774755859375,0.341273158788681,-1.1701130867004397,-0.7254506945610046
1757859286474730500,13.05773046875,0.4078079760074615,-1.0969243049621582,-0.7617048025131226
1757859286484713200,13.067713134765626,0.4586373567581177,-1.050145983695984,-0.7620089650154114
1757859286494697200,13.077697265625,0.4636177122592926,-0.977450668811798,-0.7298528552055359
1757859286504680400,13.087680419921876,0.4433787763118744,-0.9622666835784912,-0.6684464812278748
1757859286514663400,13.097663330078126,0.4173144102096557,-0.8858653903007507,-0.6088167428970337
1757859286524647400,13.1076474609375,0.3733176589012146,-0.749118447303772,-0.5758553147315979
1757859286534630400,13.11763037109375,0.3066550195217132,-0.4918459057807922,-0.5983307957649231
1757859286544613400,13.12761328125,0.2315565347671508,-0.1787300705909729,-0.6738231778144836
1757859286554597400,13.137597412109375,0.1791316717863083,-0.0209609419107437,-0.7387169599533081
1757859286564580400,13.147580322265624,0.1961633861064911,0.1373666524887085,-0.7941272258758545
1757859286574564400,13.157564453125,0.2364663332700729,0.3510658740997314,-0.8412137627601624
1757859286584547300,13.16754736328125,0.2805794775485992,0.5114872455596924,-0.8768295645713806
1757859286594530300,13.1775302734375,0.32876056432724,0.5842647552490234,-0.8949930667877197
1757859286604514300,13.187514404296875,0.4195661246776581,0.5725919008255005,-0.9375560283660888
1757859286614497500,13.19749755859375,0.5367246866226196,0.554332435131073,-1.036703109741211
1757859286624480500,13.20748046875,0.6287691593170166,0.7943141460418701,-1.1083908081054688
1757859286634464500,13.217464599609375,0.6334778666496277,1.1798778772354126,-1.1595789194107056
1757859286644447200,13.227447265625,0.4690487086772918,1.53303325176239,-1.096990942955017
1757859286654430500,13.237430419921877,0.1736026853322982,1.7006224393844604,-0.7677211761474609
1757859286664414500,13.24741455078125,-0.0857130363583564,1.4339814186096191,-0.1579598039388656
1757859286674397400,13.2573974609375,-0.1739779263734817,0.8791038990020752,0.567857027053833
1757859286684380400,13.26738037109375,-0.0802711397409439,0.5301163196563721,0.83809494972229
1757859286694364400,13.277364501953125,0.0456140898168087,0.582874596118927,0.6737576723098755
1757859286704347400,13.287347412109376,0.0770308673381805,0.8857513666152954,0.3693519532680511
1757859286714331400,13.297331298828125,-0.1032632738351821,1.414762020111084,0.199327751994133
1757859286724314400,13.307314453125,-0.3996355533599853,1.9939086437225344,0.457941472530365
1757859286734297600,13.317297607421876,-0.6610314846038818,2.4988369941711426,0.9597891569137572
1757859286744281300,13.32728125,-0.7363174557685852,2.806245803833008,1.3241658210754397
1757859286754264300,13.337264404296874,-0.6065599918365479,2.79856538772583,1.377259612083435
1757859286764247300,13.347247314453124,-0.3704478442668915,2.518218994140625,1.3171640634536743
1757859286774231600,13.3572314453125,-0.1758514493703842,2.2218494415283203,1.3549166917800903
1757859286784214500,13.367214599609374,-0.1389221996068954,2.0611255168914795,1.509353518486023
1757859286794197500,13.377197509765624,-0.1880852133035659,2.0449917316436768,1.6075351238250732
1757859286804181500,13.387181396484374,-0.2237630486488342,2.130561828613281,1.6420425176620483
1757859286814164700,13.397164794921874,-0.2393007278442382,2.2053005695343018,1.6750606298446655
1757859286824147500,13.4071474609375,-0.2243148684501648,2.2756805419921875,1.6931198835372925
1757859286834131500,13.41713134765625,-0.2124622017145156,2.277867555618286,1.6756476163864136
1757859286844114400,13.427114501953126,-0.2241010069847107,2.159214735031128,1.6247546672821045
1757859286854098400,13.437098388671876,-0.223424032330513,1.980704426765442,1.5203217267990112
1757859286864081700,13.44708154296875,-0.1912945955991745,1.793737769126892,1.394823431968689
1757859286874064400,13.457064453125,-0.1414916217327118,1.6613078117370603,1.2964332103729248
1757859286884048400,13.46704833984375,-0.1089688241481781,1.5324307680130005,1.23216450214386
1757859286894031600,13.477031494140626,-0.1379956901073455,1.448315978050232,1.1594537496566772
1757859286904014600,13.4870146484375,-0.2443173378705978,1.3302478790283203,1.030869483947754
1757859286913998600,13.49699853515625,-0.3825409710407257,1.2441660165786743,0.8018665909767151
1757859286923981300,13.506981201171875,-0.4937708377838135,1.0322084426879885,0.4999917149543762
1757859286933964500,13.516964599609375,-0.5354527831077576,0.7628371715545654,0.1989330649375915
1757859286943948500,13.526948486328124,-0.5072214007377625,0.5426363945007324,-0.065485268831253
1757859286953931500,13.536931640625,-0.4322842955589294,0.2994058728218078,-0.2815302014350891
1757859286963914800,13.546914794921875,-0.309626042842865,0.022756977006793,-0.4383230209350586
1757859286973898500,13.5568984375,-0.1434961855411529,-0.239130288362503,-0.5784077048301697
1757859286983881500,13.566881591796877,0.0364871695637702,-0.4943074584007263,-0.7168630361557007
1757859286993864400,13.576864501953125,0.177765741944313,-0.7270970344543457,-0.783632755279541
1757859287003848400,13.586848388671877,0.2184447199106216,-0.934715449810028,-0.7676183581352234
1757859287013831700,13.596831787109377,0.1621052771806717,-1.120323657989502,-0.7781460881233215
1757859287023815700,13.606815673828123,0.0678671970963478,-1.3459120988845823,-0.9408292770385742
1757859287033798400,13.61679833984375,-0.0174666084349155,-1.4692422151565552,-1.3230997323989868
1757859287043781600,13.62678173828125,-0.0959944427013397,-1.4730095863342283,-1.7966570854187012
1757859287053765600,13.636765625,-0.2527917623519897,-1.4558292627334597,-1.9164317846298216
1757859287063748600,13.64674853515625,-0.4694820046424866,-1.506661057472229,-1.477751851081848
1757859287073731300,13.6567314453125,-0.6028342247009277,-1.703836441040039,-0.7949338555335999
1757859287083715300,13.66671533203125,-0.5478521585464478,-1.891519784927368,-0.3746194243431091
1757859287093698600,13.676698486328124,-0.3707639575004577,-1.8925336599349976,-0.3612284958362579
1757859287103681500,13.686681640625,-0.1759113818407058,-1.8677294254302976,-0.5074091553688049
1757859287113665500,13.69666552734375,0.0076177059672772,-1.9572566747665403,-0.4850537776947021
1757859287123648500,13.7066484375,0.1982832551002502,-2.0719106197357178,-0.3169217705726623
1757859287133631500,13.716631591796874,0.3384563326835632,-2.211978912353516,-0.1825492978096008
1757859287143615500,13.726615478515624,0.3560579717159271,-2.3482329845428467,-0.1203607618808746
1757859287153598500,13.736598388671876,0.2612433135509491,-2.338175058364868,-0.098916195333004
1757859287163582500,13.74658251953125,0.1225605383515358,-2.236456871032715,-0.0927866622805595
1757859287173565700,13.756565673828124,0.0503380037844181,-2.136060237884521,-0.0857694968581199
1757859287183548400,13.76654833984375,0.097870372235775,-2.0423898696899414,-0.1001026332378387
1757859287193532400,13.776532470703126,0.1712388545274734,-1.9422286748886108,-0.1128296107053756
1757859287203515600,13.786515625,0.220619723200798,-1.8267759084701536,-0.102367915213108
1757859287213498600,13.79649853515625,0.2465882152318954,-1.6583940982818604,-0.1026257127523422
1757859287223482600,13.806482666015626,0.2641613483428955,-1.4526292085647583,-0.1490243673324585
1757859287233465300,13.81646533203125,0.3023750483989715,-1.2872107028961182,-0.2107947915792465
1757859287243448600,13.826448486328124,0.3833481967449188,-1.165885329246521,-0.2579316794872284
1757859287253432600,13.8364326171875,0.4640177190303802,-1.0985417366027832,-0.2921391725540161
1757859287263415600,13.84641552734375,0.5277855396270752,-1.0498452186584473,-0.3135278224945068
1757859287273398500,13.8563984375,0.5843095183372498,-0.9898783564567566,-0.3257565200328827
1757859287283382500,13.866382568359375,0.6125504970550537,-0.8732630610466003,-0.3389439582824707
1757859287293365500,13.876365478515623,0.5892736315727234,-0.7376120090484619,-0.370709091424942
1757859287303349500,13.886349609375,0.5340934991836548,-0.5888363718986511,-0.4323801696300506
1757859287313332500,13.89633251953125,0.4836987555027008,-0.4710860252380371,-0.5170881152153015
1757859287323315700,13.906315673828123,0.467615395784378,-0.4076530039310455,-0.6184051632881165
1757859287333299700,13.9162998046875,0.4865781664848327,-0.4013266563415527,-0.7215797901153564
1757859287343282400,13.926282470703123,0.5188559293746948,-0.3883253633975982,-0.8197556138038635
1757859287353265400,13.936265380859377,0.5529984831809998,-0.3472639620304107,-0.8899248242378235
1757859287363249700,13.946249755859377,0.5716083645820618,-0.3145904242992401,-0.9039660692214966
1757859287373232600,13.956232666015625,0.5788777470588684,-0.2508993446826935,-0.8817563652992249
1757859287383215400,13.96621533203125,0.5816559195518494,-0.1128261536359787,-0.865366518497467
1757859287393199400,13.976199462890625,0.597582995891571,-0.0348679684102535,-0.8564653992652893
1757859287403182600,13.9861826171875,0.619336724281311,-0.0521774515509605,-0.8096558451652527
1757859287413165600,13.99616552734375,0.6247400641441345,-0.1309681385755539,-0.7463719248771667
1757859287423149600,14.006149658203125,0.5880472660064697,-0.0517422892153263,-0.6787825226783752
1757859287433132300,14.01613232421875,0.5126582384109497,0.2710043489933014,-0.6430426239967346
1757859287443116500,14.026116455078125,0.3799103200435638,0.7225707173347473,-0.6139763593673706
1757859287453099500,14.036099609375,0.136262759566307,1.0321311950683594,-0.4220492541790008
1757859287463082500,14.04608251953125,-0.1449550539255142,1.0376991033554075,-0.0054027549922466
1757859287473066500,14.05606640625,-0.2934441268444061,0.8868771195411682,0.5084477663040161
1757859287483049700,14.0660498046875,-0.2302049696445465,0.7547534108161926,0.9534121751785278
1757859287493032400,14.076032470703124,-0.0051383031532168,0.8091626167297363,1.15803325176239
1757859287503016400,14.086016357421874,0.1901212036609649,1.1955255270004272,1.1701890230178833
1757859287512999400,14.09599951171875,0.1862401813268661,1.705800175666809,1.192562699317932
1757859287522982700,14.105982666015626,-0.0232081171125173,2.211362361907959,1.3087064027786257
1757859287532966700,14.115966552734376,-0.3259370923042297,2.626608371734619,1.4580167531967163
1757859287542949400,14.125949462890626,-0.6171630620956421,2.832998991012573,1.5501972436904907
1757859287552932600,14.1359326171875,-0.7734856009483337,2.878718376159668,1.5251652002334597
1757859287562916600,14.14591650390625,-0.8366970419883728,2.8544020652771,1.4506036043167114
1757859287572899600,14.155899658203126,-0.8774369955062866,2.8332533836364746,1.4630354642868042
1757859287582883600,14.165883544921876,-0.9999938011169434,2.889358758926392,1.5962947607040403
1757859287592866300,14.1758662109375,-1.1537809371948242,3.00079607963562,1.763999104499817
1757859287602849500,14.185849609375,-1.2408828735351562,3.099815607070923,1.9171338081359863
1757859287612833500,14.19583349609375,-1.1963708400726318,3.093083381652832,2.016722679138184
1757859287622816500,14.20581640625,-1.038729548454285,3.013645887374878,1.996442437171936
1757859287632799700,14.2157998046875,-0.874640166759491,2.896256446838379,1.882436752319336
1757859287642783500,14.225783447265623,-0.7507719993591309,2.733346700668335,1.7078042030334473
1757859287652766500,14.235766357421875,-0.6543850302696228,2.5689408779144287,1.500925898551941
1757859287662749400,14.24574951171875,-0.563002347946167,2.441209554672241,1.296345591545105
1757859287672733400,14.2557333984375,-0.4470941424369812,2.2999978065490723,1.1160693168640137
1757859287682716700,14.265716552734377,-0.28056800365448,2.113062858581543,0.9982023239135742
1757859287692699400,14.275699462890625,-0.1353607475757599,1.8431007862091064,0.9343228936195374
1757859287702683400,14.285683349609377,-0.0148673625662922,1.5329769849777222,0.8867836594581604
1757859287712666600,14.29566650390625,0.0401655286550521,1.2463058233261108,0.8111873865127563
1757859287722650600,14.305650634765623,0.0138646829873323,0.973716914653778,0.694131076335907
1757859287732633600,14.315633544921877,-0.0399625971913337,0.7254037857055664,0.5268299579620361
1757859287742616300,14.3256162109375,-0.1196403801441192,0.5633912086486816,0.340077668428421
1757859287752600300,14.335600341796876,-0.1976326555013656,0.4269896745681762,0.1647223681211471
1757859287762584000,14.345583984375,-0.2417473793029785,0.2444941699504852,-0.0031470574904233
1757859287772567000,14.355567138671876,-0.2058596909046173,0.0755655989050865,-0.2116800248622894
1757859287782551000,14.365551025390625,-0.083711139857769,-0.1311079561710357,-0.3893978297710418
1757859287792534000,14.375533935546876,0.0798311829566955,-0.41229248046875,-0.4737377464771271
1757859287802517000,14.38551708984375,0.2259074300527572,-0.7353355288505554,-0.4848521649837494
1757859287812501000,14.3955009765625,0.2924587726593017,-1.105356216430664,-0.452303022146225
1757859287822484000,14.40548388671875,0.3119925260543823,-1.5312364101409912,-0.4787077307701111
1757859287832467200,14.41546728515625,0.2606632709503174,-1.9249006509780884,-0.6515383720397949
1757859287842451200,14.425451171875,0.1407552510499954,-2.0212302207946777,-1.0413271188735962
1757859287852434000,14.435433837890624,0.0290095470845699,-1.9008644819259644,-1.5516899824142456
1757859287862418000,14.44541796875,-0.0362280458211898,-1.752410888671875,-1.836988091468811
1757859287872401000,14.45540087890625,-0.1076849177479744,-1.7725096940994265,-1.660377025604248
1757859287882384100,14.465384033203126,-0.1778605431318283,-1.9019135236740112,-1.2375941276550293
1757859287892368100,14.4753681640625,-0.155798390507698,-2.102899074554444,-0.8410300016403198
1757859287902350800,14.485350830078126,-0.0396547354757785,-2.3671884536743164,-0.6236732006072998
1757859287912334000,14.495333984375,0.1452360153198242,-2.5744340419769287,-0.6106223464012146
1757859287922318000,14.505318115234376,0.3198395073413849,-2.683751106262207,-0.6463489532470703
1757859287932301000,14.515301025390626,0.4248058795928955,-2.713466167449951,-0.6003598570823669
1757859287942284000,14.525283935546875,0.4618840217590332,-2.6932294368743896,-0.4482616782188415
1757859287952268000,14.53526806640625,0.4207365810871124,-2.592396974563598,-0.2835915088653564
1757859287962251000,14.5452509765625,0.3068448901176452,-2.44087028503418,-0.1489681750535965
1757859287972235000,14.555235107421876,0.174552634358406,-2.2741482257843018,-0.0539495162665843
1757859287982218000,14.565218017578124,0.1495862901210785,-2.163074016571045,0.0057590859942138
1757859287992201200,14.575201171875,0.1756599694490432,-2.121241331100464,0.0532863922417163
1757859288002185200,14.585185302734375,0.1963572651147842,-2.080320358276367,0.0925528332591056
1757859288012168000,14.59516796875,0.2055667340755462,-2.015707969665528,0.0984834283590316
1757859288022151000,14.60515087890625,0.1836995184421539,-1.9029420614242556,0.0791446194052696
1757859288032135000,14.615135009765623,0.1444426625967025,-1.745084524154663,0.0506586506962776
1757859288042118100,14.6251181640625,0.1190725937485694,-1.537516713142395,0.0055875782854855
1757859288052101000,14.63510107421875,0.1219032704830169,-1.319650650024414,-0.0491249337792396
1757859288062084900,14.6450849609375,0.1785878539085388,-1.1544630527496338,-0.1081778705120086
1757859288072068000,14.655068115234377,0.2752038836479187,-1.0431621074676514,-0.1701696068048477
1757859288082051000,14.665051025390625,0.3757981359958648,-0.9422224164009094,-0.2272195667028427
1757859288092035000,14.67503515625,0.4728999137878418,-0.8807505369186401,-0.2685931026935577
1757859288102018000,14.68501806640625,0.5462846159934998,-0.8136447072029114,-0.2716099321842193
1757859288112002000,14.695001953125,0.582422137260437,-0.7039605379104614,-0.2500202357769012
1757859288121985000,14.704985107421876,0.5660343766212463,-0.5383121967315674,-0.2129615396261215
1757859288131968000,14.714968017578125,0.5017158389091492,-0.3185215294361114,-0.1973583400249481
1757859288141952000,14.724951904296876,0.4123958051204681,-0.0878947004675865,-0.2024250030517578
1757859288151935000,14.73493505859375,0.342279314994812,0.1199274659156799,-0.2234309613704681
1757859288161918000,14.74491796875,0.3021806180477142,0.3100574612617492,-0.2512498199939728
1757859288171902000,14.75490185546875,0.2547087073326111,0.4429454803466797,-0.2851893901824951
1757859288181885000,14.764885009765624,0.2132180035114288,0.4672044813632965,-0.2975257039070129
1757859288191868200,14.7748681640625,0.2028188854455948,0.3579016923904419,-0.2864155173301697
1757859288201852200,14.78485205078125,0.2546442747116089,0.2654047608375549,-0.2533521056175232
1757859288211835000,14.7948349609375,0.340637743473053,0.2246645390987396,-0.2200314402580261
1757859288221817900,14.80481787109375,0.4191802144050598,0.255494087934494,-0.2893977165222168
1757859288231802000,14.814802001953124,0.472396045923233,0.3720899522304535,-0.4974718391895294
1757859288241785000,14.82478515625,0.4837797284126282,0.5247681736946106,-0.7661957144737244
1757859288251769000,14.83476904296875,0.3974901139736175,0.5543798804283142,-1.004610896110535
1757859288261752000,14.844751953125,0.1196920424699783,0.2011288553476333,-1.093429446220398
1757859288271735000,14.854735107421876,-0.2835555374622345,-0.1555626988410949,-0.9502374529838562
1757859288281719000,14.864718994140626,-0.4910996854305267,-0.0337502397596836,-0.6991745829582214
1757859288291702000,14.874701904296876,-0.3137669861316681,0.2592025399208069,-0.304180383682251
1757859288301685000,14.88468505859375,0.0819001942873001,0.6176304817199707,0.1074468344449997
1757859288311669000,14.8946689453125,0.4543011784553528,1.0363579988479614,0.4389033317565918
1757859288321652000,14.90465185546875,0.6233493089675903,1.3846889734268188,0.710561215877533
1757859288331635000,14.914635009765624,0.5653733611106873,1.547627329826355,0.759209156036377
1757859288341619000,14.924618896484375,0.3996499180793762,1.5544085502624512,0.6840425133705139
1757859288351602200,14.934602294921875,0.2131764590740203,1.5603690147399902,0.6438780426979065
1757859288361585200,14.944585205078123,0.1204015091061592,1.57751202583313,0.7019277811050415
1757859288371569000,14.95456884765625,0.035152394324541,1.6013309955596924,0.7763332724571228
1757859288381551900,14.9645517578125,-0.0866022706031799,1.6943405866622925,0.8343547582626343
1757859288391535900,14.974535888671875,-0.2395923435688018,1.8786300420761108,0.9425675272941588
1757859288401519000,14.98451904296875,-0.3987404704093933,2.088296413421631,1.0854527950286863
1757859288411502000,14.994502197265623,-0.5107162594795227,2.1946163177490234,1.2426139116287231
1757859288421486000,15.004486083984377,-0.5533683896064758,2.180790424346924,1.3213281631469729
1757859288431469000,15.014468994140625,-0.5689127445220947,2.0971620082855225,1.3267652988433838
1757859288441452000,15.0244521484375,-0.5490871071815491,2.0339975357055664,1.3101128339767456
1757859288451436000,15.03443603515625,-0.4833168685436249,1.9287017583847048,1.2996076345443726
1757859288461419000,15.0444189453125,-0.41965052485466,1.8026484251022337,1.3254907131195068
1757859288471402000,15.054402099609376,-0.3576588034629822,1.6776788234710691,1.3576704263687134
1757859288481386000,15.064385986328125,-0.2986631393432617,1.50592303276062,1.3581314086914062
1757859288491369000,15.074368896484376,-0.2638329863548279,1.292082905769348,1.319811224937439
1757859288501353000,15.08435302734375,-0.2827294468879699,1.1289209127426147,1.2344201803207395
1757859288511336200,15.094336181640625,-0.351164698600769,1.0480971336364746,1.079317927360535
1757859288521319000,15.10431884765625,-0.4310794770717621,1.024163842201233,0.8786284923553467
1757859288531303000,15.114302978515624,-0.4938837587833404,0.9367203116416932,0.6983391642570496
1757859288541286000,15.124285888671874,-0.5147669315338135,0.8235266208648682,0.550447940826416
1757859288551269000,15.13426904296875,-0.5319259166717529,0.6975908279418945,0.4235105216503143
1757859288561253000,15.144253173828124,-0.5578289031982422,0.5730166435241699,0.3427730500698089
1757859288571236000,15.154236083984374,-0.591320276260376,0.4590368270874023,0.2941780984401703
1757859288581219000,15.164218994140626,-0.6238047480583191,0.3740761280059814,0.231921911239624
1757859288591203000,15.174203125,-0.6255820989608765,0.2197222411632537,0.1227277815341949
1757859288601186000,15.18418603515625,-0.5261633992195129,-0.0952769815921783,-0.046683881431818
1757859288611169000,15.1941689453125,-0.3157733976840973,-0.5160873532295227,-0.2675728499889374
1757859288621153000,15.204153076171876,-0.0464553833007812,-0.8798514008522034,-0.4811266660690307
1757859288631136000,15.214135986328126,0.1450325548648834,-1.1461563110351562,-0.7107257843017578
1757859288641120000,15.2241201171875,0.1601651757955551,-1.282974362373352,-1.1096539497375488
1757859288651103000,15.23410302734375,-0.0736105740070343,-1.1939033269882202,-1.5403670072555542
1757859288661086200,15.244086181640624,-0.3957281708717346,-1.184583306312561,-1.6635496616363523
1757859288671070200,15.2540703125,-0.5798457860946655,-1.4827269315719604,-1.32368803024292
1757859288681053000,15.264052978515624,-0.5064014196395874,-1.8477098941802976,-0.8357353806495667
1757859288691036000,15.274035888671875,-0.1713877320289611,-2.045732021331787,-0.605362594127655
1757859288701020000,15.28402001953125,0.1480408608913421,-2.034764528274536,-0.6628653407096863
1757859288711003100,15.294003173828123,0.2771879434585571,-1.98401153087616,-0.7407148480415344
1757859288720986000,15.303986083984377,0.2816801369190216,-1.9044132232666016,-0.7775439620018005
1757859288730969900,15.313969970703123,0.25728639960289,-1.8212867975234983,-0.7432259321212769
1757859288740953000,15.323953125,0.2754267752170563,-1.8919669389724727,-0.6266260743141174
1757859288750937000,15.33393701171875,0.3107331097126007,-2.135921001434326,-0.4943644404411316
1757859288760919300,15.343919189453125,0.3126116991043091,-2.3092401027679443,-0.3556616902351379
1757859288770902300,15.35390234375,0.2775927186012268,-2.329972267150879,-0.250563234090805
1757859288780886300,15.36388623046875,0.2929706275463104,-2.235403537750244,-0.1951734870672226
1757859288790869200,15.373869140625,0.3140274286270141,-2.1267590522766118,-0.2199089229106903
1757859288800852200,15.383852294921876,0.2967986464500427,-1.9761826992034912,-0.2297644913196563
1757859288810836200,15.393836181640625,0.2932257652282715,-1.812205195426941,-0.1997991353273391
1757859288820819500,15.4038193359375,0.2976042628288269,-1.63204824924469,-0.162283182144165
1757859288830802200,15.41380224609375,0.2877084910869598,-1.437950611114502,-0.1038214713335037
1757859288840786200,15.4237861328125,0.2759050726890564,-1.2494832277297974,-0.0616098344326019
1757859288850769400,15.433769287109374,0.2755378484725952,-1.0813267230987549,-0.0668850243091583
1757859288860753400,15.44375341796875,0.2994873821735382,-0.9527056813240052,-0.1028643324971199
1757859288870736400,15.453736328125,0.3782863318920135,-0.8496567606925964,-0.1701179295778274
1757859288880719000,15.463718994140624,0.4717201292514801,-0.7787985801696777,-0.2409889101982116
1757859288890703000,15.473703125,0.558134913444519,-0.704740047454834,-0.2953943610191345
1757859288900686300,15.483686279296874,0.6235546469688416,-0.6026365756988525,-0.3157084286212921
1757859288910669300,15.49366943359375,0.66820228099823,-0.5067654848098755,-0.3075540959835052
1757859288920653300,15.5036533203125,0.6965780258178711,-0.3979215323925018,-0.273908257484436
1757859288930636300,15.51363623046875,0.717144787311554,-0.2930885851383209,-0.2299849987030029
1757859288940619300,15.523619384765626,0.7243512868881226,-0.1842926144599914,-0.1906333267688751
1757859288950603300,15.533603271484376,0.7045658826828003,-0.0829462856054306,-0.1727736443281173
1757859288960586200,15.543586181640626,0.669538140296936,0.0073732277378439,-0.1860162019729614
1757859288970570200,15.5535703125,0.6334365606307983,0.1205559745430946,-0.2300965785980224
1757859288980553500,15.563553466796876,0.5782785415649414,0.245199903845787,-0.2978865504264831
1757859288990536200,15.5735361328125,0.5166553854942322,0.3669886589050293,-0.3618815243244171
1757859289000520200,15.583520263671875,0.4394953548908233,0.5276550054550171,-0.4125220477581024
1757859289010503200,15.593503173828124,0.3416324257850647,0.6150141954421997,-0.4483932256698608
1757859289020486400,15.603486328125,0.235825315117836,0.5782678723335266,-0.433021992444992
1757859289030470400,15.613470458984375,0.1654344946146011,0.4564865827560425,-0.3721812963485718
1757859289040453000,15.623453125,0.1537820994853973,0.4696213006973266,-0.4077264964580536
1757859289050436400,15.633436279296877,0.1510126888751983,0.7516844272613525,-0.6153137683868408
1757859289060420400,15.64342041015625,0.0143416551873087,1.1625699996948242,-0.720721960067749
1757859289070403300,15.6534033203125,-0.2858674228191376,1.3883594274520874,-0.4355328381061554
1757859289080387300,15.66338720703125,-0.6432101130485535,1.3549542427062988,0.1364862024784088
1757859289090370300,15.673370361328123,-0.8303762674331665,1.1957459449768066,0.7132155895233154
1757859289100353300,15.683353271484377,-0.7117418050765991,1.020950198173523,1.0050759315490725
1757859289110337300,15.693337158203123,-0.4153538048267364,1.050457239151001,0.9989567995071412
1757859289120320300,15.7033203125,-0.1090130358934402,1.319428563117981,0.8495150804519653
1757859289130303500,15.713303466796877,0.0485970973968505,1.71550714969635,0.7849227786064148
1757859289140287200,15.723287353515625,-0.0245665963739156,2.0865707397460938,0.8276603817939758
1757859289150270200,15.733270263671876,-0.2345395386219024,2.3386287689208984,0.9038392901420592
1757859289160253200,15.743253173828125,-0.3982981145381927,2.4434261322021484,0.9705927968025208
1757859289170237200,15.7532373046875,-0.4275169670581817,2.414158821105957,1.0025142431259155
1757859289180220400,15.763220458984376,-0.3807359039783478,2.298105239868164,1.0407077074050903
1757859289190203100,15.773203125,-0.3779161274433136,2.2125489711761475,1.13884437084198
1757859289200187100,15.783187255859374,-0.4854689538478851,2.2167792320251465,1.3017038106918335
1757859289210170400,15.79317041015625,-0.6458104252815247,2.267275094985962,1.507271647453308
1757859289220154400,15.803154296875,-0.7707515954971313,2.360663890838623,1.6571242809295654
1757859289230137300,15.813137451171874,-0.814276397228241,2.4656457901000977,1.6960139274597168
1757859289240120000,15.8231201171875,-0.797757625579834,2.521067380905152,1.6606899499893188
1757859289250104000,15.83310400390625,-0.7696953415870667,2.54586124420166,1.5893641710281372
1757859289260087300,15.84308740234375,-0.7474984526634216,2.53597354888916,1.49179208278656
1757859289270070300,15.8530703125,-0.7399928569793701,2.4319112300872803,1.4201607704162598
1757859289280054300,15.86305419921875,-0.7384186387062073,2.248375177383423,1.3778101205825806
1757859289290037200,15.873037353515626,-0.7342361807823181,2.011274814605713,1.323179006576538
1757859289300020200,15.883020263671876,-0.7290760278701782,1.6867457628250122,1.2544937133789062
1757859289310004200,15.893004150390626,-0.7196660041809082,1.4055050611495972,1.1632705926895142
1757859289319987200,15.9029873046875,-0.7133165001869202,1.2071483135223389,1.0321650505065918
1757859289329971200,15.91297119140625,-0.6864572167396545,1.1566816568374634,0.8828986287117004
1757859289339954400,15.922954345703126,-0.6221575736999512,1.1536449193954468,0.7458099722862244
1757859289349937200,15.932937255859375,-0.5257269144058228,1.1457829475402832,0.6306485533714294
1757859289359921200,15.942921142578124,-0.4160637855529785,1.0238897800445557,0.5359148383140564
1757859289369904400,15.952904296875,-0.3108649253845215,0.8091517090797424,0.4467298090457916
1757859289379887400,15.962887451171875,-0.2158667743206024,0.4640739262104034,0.3271472454071045
1757859289389871400,15.972871337890624,-0.1146866381168365,0.0010053432779386,0.1521080434322357
1757859289399854000,15.98285400390625,-0.00688480399549,-0.5577287673950195,-0.0423844754695892
1757859289409837300,15.99283740234375,0.0843628197908401,-1.027080774307251,-0.2134326547384262
1757859289419821300,16.0028212890625,0.1902389228343963,-1.3634737730026243,-0.3151180148124695
1757859289429804300,16.01280419921875,0.2964705526828766,-1.5839624404907229,-0.3301515579223633
1757859289439788300,16.022788330078125,0.3548185527324676,-1.7060494422912598,-0.3641800880432129
1757859289449771300,16.032771240234375,0.333158791065216,-1.7120237350463867,-0.5308388471603394
1757859289459754200,16.042754150390625,0.2197235673666,-1.666966199874878,-0.9759148359298706
1757859289469738200,16.05273828125,0.045562956482172,-1.6695250272750854,-1.5210593938827517
1757859289479721200,16.06272119140625,-0.0985212475061416,-1.939813256263733,-1.7538337707519531
1757859289489704400,16.072704345703126,-0.1253430098295211,-2.3883275985717773,-1.588846206665039
1757859289499688400,16.0826884765625,0.0114601142704486,-2.690139055252075,-1.265728235244751
1757859289509671200,16.092671142578126,0.2768087089061737,-2.7453417778015137,-1.0170385837554932
1757859289519654400,16.102654296875,0.520781934261322,-2.683119773864746,-0.9660568833351136
1757859289529638400,16.112638427734375,0.6505852341651917,-2.6007471084594727,-1.0581871271133425
1757859289539621400,16.122621337890624,0.7032614946365356,-2.5431225299835205,-1.1465739011764526
1757859289549605400,16.13260546875,0.7140374183654785,-2.4787731170654297,-1.169014811515808
1757859289559588000,16.142588134765624,0.7031195163726807,-2.455507516860962,-1.0504271984100342
1757859289569571300,16.1525712890625,0.6863530874252319,-2.4989051818847656,-0.8529758453369141
1757859289579555300,16.162555419921876,0.6571744084358215,-2.5431952476501465,-0.6727264523506165
1757859289589538300,16.172538330078126,0.5752923488616943,-2.5290727615356445,-0.5312612056732178
1757859289599521300,16.182521240234376,0.4751055240631103,-2.448089838027954,-0.4015511572360992
1757859289609505300,16.19250537109375,0.439148873090744,-2.3405680656433105,-0.3017723560333252
1757859289619488300,16.20248828125,0.4819898009300232,-2.195859909057617,-0.2775945961475372
1757859289629471200,16.21247119140625,0.5110739469528198,-2.031494379043579,-0.2701220214366913
1757859289639455200,16.222455322265624,0.4975234866142273,-1.7925939559936523,-0.2704416215419769
1757859289649438500,16.2324384765625,0.4560290575027466,-1.5098224878311155,-0.2623591721057892
1757859289659422200,16.242422119140624,0.4019998908042907,-1.2549797296524048,-0.26703941822052
1757859289669405200,16.2524052734375,0.3516690731048584,-1.0401561260223389,-0.3101261854171753
1757859289679388200,16.26238818359375,0.3448516726493835,-0.8610156774520874,-0.3765318393707275
1757859289689372400,16.272372314453126,0.3753626942634582,-0.7303135991096497,-0.4310842752456665
1757859289699355400,16.28235546875,0.420733630657196,-0.7127444744110107,-0.4546564519405365
1757859289709338000,16.292338134765625,0.4625458121299743,-0.7440451383590698,-0.4451606869697571
1757859289719322000,16.302322021484375,0.5114946961402893,-0.7477120161056519,-0.4159348905086517
1757859289729305300,16.312305419921874,0.5513217449188232,-0.7357842922210693,-0.3778697848320007
1757859289739288300,16.322288330078123,0.5701859593391418,-0.6446024179458618,-0.3704760670661926
1757859289749272300,16.332272216796873,0.5566043853759766,-0.4571763277053833,-0.418305903673172
1757859289759255800,16.342255859375,0.502181887626648,-0.2590970695018768,-0.5086227655410767
1757859289769239800,16.35223974609375,0.4075310230255127,-0.1428911089897155,-0.6053048372268677
1757859289779223000,16.36222314453125,0.2704109847545624,-0.0358621254563331,-0.6919736862182617
1757859289789205800,16.372205810546873,0.1391493678092956,-0.0099844569340348,-0.731640100479126
1757859289799189800,16.382189697265623,0.0409058891236782,-0.0548163764178752,-0.7297974824905396
1757859289809173000,16.392173095703125,0.0396579317748546,-0.0731066986918449,-0.7129692435264587
1757859289819156000,16.402156005859375,0.1204036399722099,-0.0201382916420698,-0.7367363572120667
1757859289829140000,16.412139892578125,0.1901800632476806,0.1402468532323837,-0.8463459014892578
1757859289839123000,16.422123046875,0.1903334558010101,0.3744803965091705,-1.0048314332962036
1757859289849106000,16.43210595703125,0.0739282891154289,0.6126506328582764,-1.160826325416565
1757859289859090000,16.44208984375,-0.2288909703493118,0.9675930142402648,-1.3044540882110596
1757859289869073000,16.452072998046877,-0.603259265422821,1.315315842628479,-1.3369646072387695
1757859289879057000,16.462056884765627,-0.9115188121795654,1.4572135210037231,-1.0711255073547363
1757859289889040000,16.472039794921876,-0.9130911231040956,1.3529396057128906,-0.5350988507270813
1757859289899022800,16.48202294921875,-0.5990972518920898,1.056139349937439,0.1732151955366134
1757859289909006800,16.4920068359375,-0.1801484674215316,0.8187515735626221,0.8543655276298523
1757859289918989800,16.50198974609375,0.1837290823459625,0.8187153935432434,1.1539868116378784
1757859289928973000,16.51197314453125,0.350424587726593,1.030660629272461,1.0953373908996582
1757859289938957000,16.52195703125,0.328007698059082,1.3639219999313354,0.9410263895988464
1757859289948939800,16.531939697265624,0.1416223794221878,1.753537893295288,0.9011873602867126
1757859289958922800,16.5419228515625,-0.1354856491088867,2.0081121921539307,0.9877456426620485
1757859289968906800,16.55190673828125,-0.3628628849983215,2.109148502349853,1.040966272354126
1757859289978890000,16.561889892578126,-0.4466805458068847,2.061933755874634,1.0324121713638306
1757859289988874000,16.5718740234375,-0.4005588591098785,1.917789101600647,1.0627347230911257
1757859289998856700,16.581856689453126,-0.294571191072464,1.7988009452819824,1.1685490608215332
1757859290008840000,16.59183984375,-0.2254807949066162,1.766167402267456,1.3131346702575684
1757859290018824000,16.601823974609374,-0.2482540160417556,1.835356831550598,1.4302210807800293
1757859290028807000,16.611806884765624,-0.3140564560890198,1.9837104082107544,1.473435401916504
1757859290038790000,16.621789794921874,-0.367264837026596,2.120706081390381,1.4661381244659424
1757859290048774000,16.63177392578125,-0.3694542050361633,2.1700308322906494,1.3668354749679563
1757859290058756900,16.6417568359375,-0.3367074429988861,2.235407829284668,1.2236359119415283
1757859290068739800,16.65173974609375,-0.349709004163742,2.2700836658477783,1.1077743768692017
1757859290078723800,16.661723876953126,-0.4051677286624908,2.295159339904785,1.0265820026397705
1757859290088707000,16.67170703125,-0.4691062271595001,2.2960903644561768,1.000399112701416
1757859290098691000,16.681691162109374,-0.4898083209991455,2.2267580032348637,1.0292742252349854
1757859290108673800,16.691673828125,-0.4305524528026581,2.0196361541748047,1.098636507987976
1757859290118656800,16.70165673828125,-0.3657681345939636,1.8324748277664185,1.1775779724121094
1757859290128640800,16.711640869140624,-0.337386816740036,1.6819350719451904,1.2140190601348877
1757859290138624000,16.7216240234375,-0.3561978042125702,1.5565398931503296,1.1858065128326416
1757859290148607000,16.73160693359375,-0.3920897543430328,1.4346946477890017,1.0903143882751465
1757859290158590700,16.7415908203125,-0.4328771233558655,1.2734805345535278,0.9328933358192444
1757859290168574000,16.751573974609375,-0.4757518768310547,1.0797607898712158,0.705180823802948
1757859290178557000,16.761556884765625,-0.4884461164474487,0.8928583264350891,0.4237696528434753
1757859290188541000,16.771541015625,-0.4570935070514679,0.699495792388916,0.1415499448776245
1757859290198524000,16.78152392578125,-0.4080314338207245,0.4431228339672088,-0.0639997571706771
1757859290208508000,16.7915078125,-0.3386041522026062,0.1562223583459854,-0.1879169046878814
1757859290218491000,16.801490966796877,-0.2723961174488067,-0.120545320212841,-0.2299005687236786
1757859290228473900,16.811473876953126,-0.1782616227865219,-0.4108538329601288,-0.2024180889129638
1757859290238457900,16.821457763671877,-0.0589373521506786,-0.6736117005348206,-0.1319399178028106
1757859290248441000,16.831441162109375,0.0093056177720427,-0.9301811456680298,-0.0810676887631416
1757859290258423800,16.841423828125,0.0186328068375587,-1.1712534427642822,-0.2442840486764907
1757859290268407800,16.85140771484375,0.037122868001461,-1.3001967668533323,-0.7673027515411377
1757859290278390800,16.861390869140624,0.0775698944926261,-1.3009579181671145,-1.4389336109161377
1757859290288374000,16.8713740234375,0.1137036606669426,-1.402969241142273,-1.7646448612213137
1757859290298358000,16.88135791015625,0.2041510045528412,-1.7556782960891724,-1.4790916442871094
1757859290308340700,16.8913408203125,0.3302090764045715,-2.1110177040100098,-0.9896431565284728
1757859290318324700,16.90132470703125,0.3864723443984985,-2.271514177322388,-0.7422176599502563
1757859290328308000,16.911307861328126,0.3435395359992981,-2.2834880352020264,-0.7533153295516968
1757859290338291000,16.921291015625,0.2423007786273956,-2.3284130096435547,-0.8268782496452332
1757859290348275000,16.93127490234375,0.2363331764936447,-2.3436102867126465,-0.848050057888031
1757859290358258000,16.9412578125,0.4151149094104767,-2.3541574478149414,-0.7871260046958923
1757859290368241000,16.951240966796874,0.5620404481887817,-2.3643386363983154,-0.6628682613372803
1757859290378225000,16.961224853515624,0.5385385751724243,-2.3130218982696533,-0.5433769822120667
1757859290388207900,16.971207763671874,0.3469379842281341,-2.175889253616333,-0.4642241299152374
1757859290398190800,16.98119091796875,0.1132490634918212,-1.9710915088653564,-0.4296440482139587
1757859290408175000,16.991175048828126,-0.0138359209522604,-1.8302233219146729,-0.4113031327724457
1757859290418157800,17.00115771484375,0.0025686188600957,-1.800517439842224,-0.3906263411045074
1757859290428141800,17.011141845703126,0.0597514808177948,-1.7573730945587158,-0.3560608923435211
1757859290438124800,17.021124755859375,0.1087230145931243,-1.7130887508392334,-0.3067189157009125
1757859290448108000,17.03110791015625,0.1195692718029022,-1.6786236763000488,-0.2460196167230606
1757859290458092000,17.041092041015624,0.1055272221565246,-1.5928653478622437,-0.2030175626277923
1757859290468074800,17.05107470703125,0.1143433526158332,-1.4877320528030396,-0.1616925001144409
1757859290478058000,17.06105810546875,0.155655100941658,-1.365822434425354,-0.156398132443428
1757859290488042000,17.0710419921875,0.2310167104005813,-1.2355352640151978,-0.2005565315485
1757859290498025000,17.08102490234375,0.3510331213474273,-1.1188334226608276,-0.2685017585754394
1757859290508008000,17.091008056640625,0.4856561720371246,-0.9811450242996216,-0.3427000939846039
1757859290517991700,17.10099169921875,0.5963976383209229,-0.8390169143676758,-0.4100559651851654
1757859290527975000,17.110974853515625,0.6751843094825745,-0.7165399789810181,-0.4540726840496063
1757859290537959000,17.120958984375,0.7245212197303772,-0.6075453162193298,-0.4784941375255584
1757859290547942000,17.13094189453125,0.7575076818466187,-0.4876285195350647,-0.5046967267990112
1757859290557924900,17.1409248046875,0.7588637471199036,-0.4015402495861053,-0.520409882068634
1757859290567909000,17.1509091796875,0.7156108021736145,-0.3042280673980713,-0.5199766159057617
1757859290577891800,17.160891845703127,0.6028531193733215,-0.180176168680191,-0.515172004699707
1757859290587874800,17.170874755859376,0.4581481218338012,-0.067663200199604,-0.5214852690696716
1757859290597858800,17.18085888671875,0.3200693428516388,0.0640104115009307,-0.5677582621574402
1757859290607842000,17.190842041015625,0.2245289832353592,0.1944405883550644,-0.6643279194831848
1757859290617824800,17.20082470703125,0.1909846067428589,0.2240117937326431,-0.7741998434066772
1757859290627808800,17.210808837890625,0.188583493232727,0.1166310086846351,-0.8250574469566345
1757859290637792000,17.2207919921875,0.1986377239227295,-0.1003718748688697,-0.7847134470939636
1757859290647776000,17.23077587890625,0.2322289794683456,-0.3042453825473785,-0.6702361702919006
1757859290657759000,17.240759033203126,0.2598004043102264,-0.2053728550672531,-0.5783371329307556
1757859290667742000,17.250741943359376,0.149248868227005,0.2351110428571701,-0.4470845460891723
1757859290677725700,17.2607255859375,-0.1781684011220932,0.735960841178894,-0.1563962697982788
1757859290687709000,17.270708984375,-0.5816088318824768,0.9641212821006776,0.1616639941930771
1757859290697692000,17.28069189453125,-0.6831559538841248,0.8872517943382263,0.4877142608165741
1757859290707676000,17.290676025390624,-0.3746841251850128,0.7571864724159241,0.7684319615364075
1757859290717659000,17.300658935546874,0.085274152457714,0.8216107487678528,0.8604210019111633
1757859290727641900,17.310641845703124,0.344449520111084,1.114486575126648,0.754650354385376
1757859290737625900,17.3206259765625,0.2888030409812927,1.5286365747451782,0.6776277422904968
1757859290747608800,17.33060888671875,-0.0269394721835851,1.8841502666473389,0.6957390904426575
1757859290757592800,17.3405927734375,-0.4116056561470032,2.110227584838867,0.7186614871025085
1757859290767575600,17.350575439453124,-0.6247120499610901,2.1364495754241943,0.6940855383872986
1757859290777558500,17.36055859375,-0.5910446643829346,2.052072286605835,0.6629087328910828
1757859290787542500,17.37054248046875,-0.4141023755073547,1.9164234399795528,0.6665833592414856
1757859290797525500,17.380525390625,-0.2635616064071655,1.8068517446517944,0.7345600128173828
1757859290807508500,17.390508544921875,-0.2064511775970459,1.7950403690338137,0.8624948263168335
1757859290817492500,17.400492431640625,-0.2187864035367965,1.8468416929244995,1.0112425088882446
1757859290827475500,17.410475341796875,-0.2677781879901886,1.969567894935608,1.1413429975509644
1757859290837458700,17.420458740234373,-0.3060177266597748,2.0931637287139893,1.2492589950561523
1757859290847442700,17.430442626953123,-0.3308194577693939,2.225270271301269,1.281707525253296
1757859290857425400,17.44042529296875,-0.3343153893947601,2.331745386123657,1.244268774986267
1757859290867409400,17.450409423828123,-0.3155949711799621,2.351337194442749,1.1604626178741455
1757859290877392600,17.460392578125,-0.2868517339229584,2.298814058303833,1.0540759563446045
1757859290887375600,17.470375732421875,-0.2774084508419037,2.160939693450928,1.000827074050903
1757859290897359600,17.480359619140625,-0.3154314458370209,1.9378424882888796,1.0200735330581665
