time,seconds_elapsed,z,y,x
1758278071602435800,71.68243579101562,3.692906423187256,9.73572177581787,4.696675469207763
1758278071612520700,71.69252075195313,3.615543782043457,9.329006768798829,4.150647853088379
1758278071622605800,71.70260571289063,3.4747347969055173,8.85450592727661,3.384204046630859
1758278071632692000,71.71269189453125,3.459621398925781,8.563909700775145,2.581996852874756
1758278071642776800,71.72277685546875,3.446453289794922,8.457667002105712,1.6707038459777832
1758278071652862000,71.73286206054688,3.3788170928955075,8.40170253829956,0.776319888305664
1758278071662946800,71.74294677734375,3.2568624458312985,8.463053955841064,0.0380079513549804
1758278071673031700,71.75303173828125,3.1112650573730467,8.70786107559204,-0.3794809631347656
1758278071683116800,71.76311669921876,2.93050283203125,9.255085792541504,-0.5282207412719726
1758278071693201700,71.77320166015625,2.843713021850586,10.053552046203611,-0.3567360473632812
1758278071703286800,71.78328686523437,2.785503993988037,10.758195522308348,-0.0649427200317382
1758278071713371600,71.79337158203126,2.7576713996887205,11.05178450088501,0.2070984436035156
1758278071723457800,71.80345776367187,2.877830395507812,10.996268949890135,0.3208230224609374
1758278071733543000,71.81354296875,3.0660745010375976,10.811765784454344,0.3218704856872558
1758278071743627800,71.82362768554688,3.2691327293395998,10.557082582855225,0.3137900550842284
1758278071753713000,71.833712890625,3.4133833793640136,10.164583148193358,0.2331353866577148
1758278071763797800,71.8437978515625,3.444059088134765,9.567828384399414,0.0888847366333007
1758278071773883000,71.8538828125,3.3948283164978026,8.924685963439941,-0.0432452674865722
1758278071783967700,71.8639677734375,3.2773627975463864,8.412326808166503,-0.1324292793273925
1758278071794052900,71.87405297851562,3.079092972564697,8.244134141540528,-0.1191115325927734
1758278071804137700,71.8841376953125,2.8948890823364257,8.48445213317871,-0.0629974311828613
1758278071814224000,71.89422387695312,2.647538123321533,9.200019154357909,0.120009358215332
1758278071824309000,71.90430908203125,2.371756019592285,10.299256991577147,0.4059668190002441
1758278071834393900,71.91439379882813,1.981800424194336,11.698967137145996,0.8640075241088867
1758278071844478700,71.92447875976562,1.4502876556396485,13.172298983764648,1.5471031852722168
1758278071854563800,71.93456372070312,0.9849147079467772,14.438682024383544,2.4658780723571776
1758278071864648700,71.94464868164063,0.6477811866760254,15.176694686126709,3.456030096435547
1758278071874733800,71.95473388671876,0.5047276374816895,15.099930595397948,4.163965599822998
1758278071884818700,71.96481860351562,0.5155015449523925,14.321216505432128,4.470722687530517
1758278071894903800,71.97490380859375,0.8367734802246093,13.199383390045163,4.424035755157471
1758278071904988700,71.98498876953126,1.2765583976745605,12.304999432373046,4.143764523315429
1758278071915074800,71.99507470703125,1.5126865364074706,11.514463971710205,3.63933616104126
1758278071925159700,72.00515966796875,1.5723919403076172,10.6877162109375,3.1317654090881346
1758278071935244800,72.01524487304688,1.4229039741516112,9.818321733093262,2.8631659103393554
1758278071945330000,72.02532983398437,1.255010582733154,9.002347879791259,2.8446108474731444
1758278071955414800,72.03541479492188,1.0940005210876464,8.31835439300537,2.835183678436279
1758278071965500000,72.0455,0.8418611587524414,7.7778633682250975,2.870049240112305
1758278071975584800,72.05558471679687,0.5333084197998047,7.3283520065307615,2.774580448913574
1758278071985670000,72.065669921875,0.1587654975891113,7.001693117523193,2.6898855651855467
1758278071995754800,72.07575463867188,-0.1987187377929687,6.739976948547363,2.595763512420654
1758278072005841000,72.0858408203125,-0.4418798439025879,6.507440112304687,2.390759995269775
1758278072015926300,72.09592626953125,-0.5370493598937988,6.335805780792236,2.22166950302124
1758278072026011100,72.10601123046875,-0.6082768592834472,6.177938108825683,2.1154268043518063
1758278072036096300,72.11609619140626,-0.6675333503723144,6.097732353210449,2.02354931564331
1758278072046181000,72.12618115234375,-0.6913257293701172,6.064812080383301,1.8272247795104977
1758278072056266200,72.13626635742187,-0.5440823272705078,6.066158818817138,1.6579846496582031
1758278072066351400,72.14635131835938,-0.4177881896972656,6.354660118865967,1.6062100387573242
1758278072076436200,72.15643627929687,-0.5310638557434082,6.759429837036133,1.5887024391174316
1758278072086521300,72.16652124023437,-0.6266822845458984,7.2258502479553215,1.7833809616088867
1758278072096606200,72.17660620117188,-0.6253355461120605,7.793724954223633,2.194884371948242
1758278072106692400,72.1866923828125,-0.6305728622436523,8.397063772583007,2.7198130859375
1758278072116777500,72.19677758789062,-0.5041290870666504,9.083601098632812,3.3209073402404785
1758278072126862300,72.2068623046875,-0.3317465675354004,9.727042794799804,3.732710025787353
1758278072136947500,72.21694750976563,-0.3125929542541503,10.140192218780516,3.81815309753418
1758278072147032300,72.2270322265625,-0.2856581855773926,10.35507181777954,3.678690850830078
1758278072157117400,72.23711743164063,-0.1111807395935058,10.43213518371582,3.467252916717529
1758278072167202300,72.24720239257813,0.2693476867675781,10.294318950653077,3.289483443450928
1758278072177287400,72.25728735351562,0.6383540176391601,10.174908142852782,3.095403471374512
1758278072187372300,72.26737231445313,0.8363245674133301,10.244938541412353,2.995744827270508
1758278072197458200,72.27745825195312,0.97683427734375,10.542567735290527,2.9493571701049803
1758278072207543300,72.28754321289063,1.1317091972351074,11.212644924926757,2.962974192047119
1758278072217628200,72.29762817382813,1.2054805358886718,12.344054846954345,3.2276831130981445
1758278072227713300,72.30771337890624,1.1245265922546386,13.755137450408936,3.808127378082275
1758278072237798100,72.31779809570313,0.9211690887451172,15.249268923950195,4.539705622863769
1758278072247883300,72.32788330078125,0.7387608497619629,16.568474038696287,5.161000953674316
1758278072257968000,72.33796801757812,0.7413046890258789,17.05988392944336,5.321562102508545
1758278072268053200,72.34805322265625,1.0441711990356444,16.403723036956787,4.818779753875732
1758278072278138400,72.35813842773437,1.588403163909912,15.116390731811522,3.883844005584717
1758278072288224300,72.36822436523437,2.155529682159424,13.722366815185548,2.798372827911377
1758278072298309400,72.37830932617187,2.590077283477783,12.406902640533447,1.7923592178344725
1758278072308394200,72.38839428710938,2.7500398818969725,11.247809761810302,0.8355763793945312
1758278072318479400,72.39847924804687,2.462436407470703,10.280402653503415,-0.0410007034301757
1758278072328564500,72.408564453125,1.798494359588623,9.552714986419677,-0.7760206130981445
1758278072338649300,72.4186494140625,1.170764611816406,9.076867406463622,-1.2942156349182128
1758278072348734500,72.428734375,0.6325181510925293,8.786271179962158,-1.6569371864318847
1758278072358819300,72.4388193359375,0.0909796630859375,8.79150849609375,-1.7362451164245605
1758278072368904400,72.44890454101562,-0.5403413871765136,9.145999979400637,-1.4627075767517088
1758278072378989300,72.4589892578125,-1.1215338401794432,9.91543653793335,-0.7615057655334472
1758278072389075200,72.4690751953125,-1.662473777770996,10.937311734008787,0.3076549133300781
1758278072399160300,72.47916040039063,-2.1716905433654783,11.602450882720946,1.4266449142456057
1758278072409245200,72.4892451171875,-2.24740717086792,11.463736824035644,2.303670909881592
1758278072419330300,72.49933032226562,-1.8204910873413085,10.722432135009765,2.739116336822509
1758278072429415200,72.50941528320313,-1.346439158630371,9.62783306350708,2.5763106239318847
1758278072439500300,72.51950024414063,-0.964713631439209,8.63124662246704,2.262071656036377
1758278072449585200,72.52958520507812,-0.7787140899658203,7.828590515899657,2.0011036750793454
1758278072459670300,72.53967016601563,-0.9044096771240234,7.144896304321288,1.7477672119140624
1758278072469755400,72.54975537109375,-1.129165357971191,6.626102732086181,1.5084966835021971
1758278072479841300,72.55984130859375,-1.1490671592712405,6.195445708465575,1.2440870376586914
1758278072489926400,72.56992651367187,-1.0845733520507812,5.7843912109375,1.0069114356994628
1758278072500011300,72.58001123046876,-0.935833573913574,5.50337179107666,0.888697728729248
1758278072510096400,72.59009643554687,-0.6835445739746093,5.421520021820068,0.9190741622924804
1758278072520181500,72.60018139648437,-0.4296095603942871,5.552153649902343,1.1031284149169922
1758278072530266400,72.61026635742188,-0.1761234596252441,5.870732108306885,1.35347212600708
1758278072540351500,72.6203515625,0.0445920059204101,6.348076064300537,1.7111059989929198
1758278072550436400,72.63043627929687,0.230441909790039,6.938246773529053,2.154482218933105
1758278072560521500,72.640521484375,0.3746925598144531,7.545027256774902,2.5393501358032227
1758278072570607400,72.650607421875,0.5781997009277343,8.232013495635986,2.923170589447021
1758278072580692200,72.66069213867188,0.8556278182983398,8.930521829986573,3.3520319618225094
1758278072590777300,72.67077734375,1.1608885299682616,9.547328032684325,3.771316527557373
1758278072600862200,72.6808623046875,1.598578520965576,10.053252770996092,4.09228918762207
1758278072610947300,72.690947265625,2.093579714202881,10.31721350402832,4.219032238006592
1758278072621032200,72.7010322265625,2.5959131500244137,10.34923595123291,4.26422279434204
1758278072631117300,72.71111743164063,3.116203098297119,10.21411319503784,4.153640605163574
1758278072641202200,72.7212021484375,3.546560846710205,9.995791931152343,3.984400475311279
1758278072651287300,72.73128735351563,3.746327047729492,9.822062673187256,3.83087229385376
1758278072661372400,72.74137231445313,3.765480661010742,9.783156896209716,3.762188633728027
1758278072671458300,72.75145825195312,3.727173434448242,9.90122096557617,3.839551274871826
1758278072681543400,72.76154345703125,3.657891223907471,10.10622448272705,4.061463841247559
1758278072691628300,72.77162817382812,3.6551977470397943,10.204985301208495,4.1952398590087885
1758278072701713400,72.78171337890625,3.704129243469238,10.056245523071288,4.084208757019042
1758278072711798300,72.79179833984375,3.733907126617432,9.781361244964598,3.726574884033203
1758278072721883400,72.80188330078126,3.743035020446777,9.535357024383543,3.1940146522521973
1758278072731968500,72.81196850585937,3.707570908355713,9.408314698791504,2.6523265266418456
1758278072742053400,72.82205346679687,3.5595793182373043,9.370606022644042,2.0816087059021
1758278072752138500,72.83213842773438,3.2939725715637205,9.368810371398926,1.5746365043640136
1758278072762224000,72.84222412109375,2.9269115295410155,9.35354733581543,1.1294646331787108
1758278072772309200,72.85230932617188,2.5011925468444822,9.427169036865234,0.8432078971862792
1758278072782394400,72.86239428710938,2.116174992370605,9.714323598480224,0.7152677459716796
1758278072792479200,72.87247924804687,1.8397943382263184,10.117447303009032,0.7588122886657714
1758278072802564400,72.882564453125,1.6252140144348144,10.46894603424072,1.0105027381896972
1758278072812649200,72.89264916992188,1.4879963317871092,10.556484032440183,1.2912228828430174
1758278072822734300,72.902734375,1.479317350769043,10.422259101867676,1.3328221366882322
1758278072832819200,72.91281909179688,1.5626654960632322,10.191069004058836,1.080233861541748
1758278072842904300,72.922904296875,1.7254712089538573,9.862015913391112,0.7827543052673339
1758278072852989200,72.9329892578125,2.034772135925293,9.495852696990966,0.6016928047180176
1758278072863075300,72.94307543945312,2.384624853515625,9.04080474395752,0.3794809631347656
1758278072873160400,72.95316040039063,2.602197929382324,8.597129248809814,0.0936731399536132
1758278072883245300,72.96324536132812,2.7590181381225585,8.40215145111084,-0.0897825622558593
1758278072893330400,72.97333032226562,2.867954313659668,8.614038298034668,-0.0825999572753906
1758278072903415300,72.98341528320313,2.8926445182800293,9.20495719528198,0.0794575675964355
1758278072913500400,72.99350048828126,2.835183678436279,10.027964015960691,0.335786782836914
1758278072923585500,73.00358544921875,2.6927286796569825,10.858003804016112,0.5412392127990723
1758278072933670400,73.01367041015625,2.4938603042602536,11.573421187591553,0.680551821899414
1758278072943755300,73.02375537109376,2.225709718322754,12.09176584701538,0.7009025360107421
1758278072953840000,73.03384008789062,1.9832968002319336,12.42396132736206,0.6923731925964355
1758278072963926300,73.04392626953126,1.704222669219971,12.56506958770752,0.6790554458618163
1758278072974011400,73.05401147460938,1.430685129547119,12.480075428771972,0.7453449043273925
1758278072984096300,73.06409619140625,1.1385925270080566,12.093711135864256,0.8114847251892089
1758278072994181400,73.07418139648438,0.9238625656127928,11.488726303863524,0.9094973556518554
1758278073004266200,73.08426635742188,0.8227075454711914,10.771662906646728,0.9894038360595704
1758278073014351400,73.09435131835937,0.8246528343200683,9.986514399719235,1.1418845542907714
1758278073024436500,73.1044365234375,0.9056067779541016,9.277381795501707,1.4103344154357909
1758278073034521600,73.114521484375,0.8500912269592285,8.673444426727295,1.6557400856018063
1758278073044606500,73.1246064453125,0.6356605407714844,8.096142551422119,1.7675193756103516
1758278073054692600,73.13469262695313,0.4156932632446289,7.583484120941161,1.8432360031127928
1758278073064777500,73.14477758789063,0.1705868682861328,7.087435464477538,1.7944541442871094
1758278073074862600,73.15486254882812,-0.1227028350830078,6.682366471099853,1.785625525665283
1758278073084947700,73.16494775390625,-0.3711012573242187,6.389525680541992,1.7685668388366698
1758278073095032600,73.17503247070313,-0.6097732353210449,6.228964531707764,1.686116519165039
1758278073105117400,73.18511743164062,-0.8113350875854491,6.228216343688964,1.6259622024536131
1758278073115202300,73.19520239257812,-0.974290438079834,6.328922451019286,1.5581763679504397
1758278073125287400,73.20528735351563,-1.1647791076660157,6.517166556549072,1.4657003288269042
1758278073135372300,73.21537231445312,-1.3497311859130858,6.821230167388916,1.346439158630371
1758278073145457400,73.22545751953125,-1.5081974082946776,7.12454559020996,1.202787059020996
1758278073155543600,73.23554345703126,-1.5848118614196776,7.535300812530517,1.1148001480102538
1758278073165628400,73.24562841796875,-1.8100164550781248,8.07683930053711,1.1448773063659667
1758278073175713500,73.25571362304687,-2.022950765228271,8.653093712615966,1.340004741668701
1758278073185798400,73.26579833984376,-1.9984101982116695,9.277232157897949,1.608005690002441
1758278073195883500,73.27588354492187,-1.8887258346557616,9.859771349334716,1.8492215072631837
1758278073205968400,73.28596850585937,-1.7974468963623045,10.287734896087644,1.9244892219543457
1758278073216053500,73.29605346679688,-1.636885747528076,10.56022497253418,2.03043264541626
1758278073226138600,73.306138671875,-1.364246033477783,10.799495500946044,2.1959318351745605
1758278073236223500,73.31622338867187,-1.0422259101867677,11.14650510406494,2.3594857360839843
1758278073246309600,73.3263095703125,-0.6163572898864745,11.47870058441162,2.3745991340637205
1758278073256394500,73.33639453125,0.220865103149414,11.456853494262695,2.148197439575195
1758278073266479600,73.34647973632812,1.1059715293884276,10.807875206756592,2.1103391258239745
1758278073276564500,73.356564453125,1.8019360244750973,9.92770682144165,1.9349638542175287
1758278073286649300,73.3666494140625,2.4293664970397946,9.549273321533205,1.5384242042541505
1758278073296734500,73.376734375,2.4545056144714352,9.744999307250977,1.221940672302246
1758278073306819300,73.3868193359375,1.9213468322753904,10.628459719848632,1.1103110198974608
1758278073316904400,73.39690454101563,1.1414356414794922,12.368894689178466,1.4348749824523923
1758278073326989300,73.4069892578125,0.0350151992797851,14.928745176696776,2.289455337524414
1758278073337074400,73.41707446289062,-0.9018658378601072,17.867328439331054,3.672106796264648
1758278073347160600,73.42716064453126,-1.285087741088867,20.19209825134277,5.42645806274414
1758278073357245400,73.43724536132812,-1.0136451278686522,20.62739404067993,6.918344972229003
1758278073367330600,73.44733056640625,-0.0236427413940429,18.937686219024656,7.534702262115478
1758278073377415400,73.45741552734376,1.6277578536987305,16.198120969390867,6.839186679840087
1758278073387500500,73.46750048828125,3.294421484375,13.57946290359497,5.425859512329101
1758278073397585400,73.47758544921875,4.622754492950439,11.41420677719116,3.807977740478516
1758278073407670500,73.48767041015626,5.090970555114746,9.710881933593749,2.420837153625488
1758278073417755400,73.49775537109375,4.866364511871337,8.389881167602539,1.4193126716613769
1758278073427840500,73.50784057617187,4.072537023925781,7.628375402069091,0.8330325401306152
1758278073437926700,73.5179267578125,3.011456775665283,7.593809115600585,0.4367921653747558
1758278073448011500,73.52801147460937,1.901295393371582,8.065317205047608,0.1473930397033691
1758278073458096400,73.53809643554688,0.869544115447998,8.999205490112304,0.1297358024597167
1758278073468181200,73.54818115234374,-0.0010474632263183,10.171765753173828,0.4097077590942382
1758278073478266400,73.55826635742187,-0.5623381149291992,11.352556084442138,1.1501146224975585
1758278073488351500,73.5683515625,-0.9427169036865234,12.13740531616211,2.2840683837890623
1758278073498436400,73.57843627929688,-1.1010334884643551,12.017844870758056,3.267636353302002
1758278073508521500,73.588521484375,-0.6736684921264648,10.959757374572751,3.687070556640625
1758278073518606300,73.5986064453125,0.1063923362731933,9.446322650146485,3.53698404006958
1758278073528691500,73.60869140625,0.6814496475219726,8.013392956542969,3.1636382186889644
1758278073538777600,73.61877758789062,0.8758288948059082,6.812401548767089,2.681954772186279
1758278073548862500,73.62886254882812,0.7790133651733397,5.8831520294189446,2.182165175628662
1758278073558947600,73.63894750976563,0.4801870704650878,5.243600910949707,1.6719009468078612
1758278073569032400,73.64903247070312,0.1969230865478515,4.8971898582458495,1.137844338989258
1758278073579117600,73.65911767578125,0.0514753356933593,4.806060557556152,0.5322609565734863
1758278073589202400,73.66920239257813,0.091278938293457,4.964676417541504,-0.1476923149108886
1758278073599287600,73.67928759765626,0.2371756019592285,5.24105707168579,-0.7932289375305175
1758278073609372400,73.68937231445312,0.4993406837463379,5.595997467803954,-1.3257891693115234
1758278073619457500,73.69945751953125,0.7739256866455078,6.1179334297180175,-1.6768389877319334
1758278073629543400,73.70954345703124,1.095646534729004,6.658125179290771,-1.786972264099121
1758278073639628300,73.71962817382813,1.3379098152160644,7.119757186889648,-1.6238672760009765
1758278073649713400,73.72971337890625,1.5569792671203613,7.576900066375732,-1.2425906616210938
1758278073659798300,73.73979833984374,1.7161936775207518,8.098237477874756,-0.8221089950561523
1758278073669883400,73.74988330078125,1.820940000152588,8.693046952819824,-0.5039794494628906
1758278073679968300,73.75996826171875,1.8869301834106444,9.323470177459717,-0.2578255912780761
1758278073690053400,73.77005346679688,1.9482816009521484,9.836278245544433,-0.1300350776672363
1758278073700138500,73.78013842773437,1.9039888702392576,10.122834256744383,0.0876876358032226
1758278073710223400,73.79022338867188,1.7085621597290035,10.13869584274292,0.6159083770751953
1758278073720308500,73.80030859375,1.5384242042541505,9.981725996398923,1.4815619148254393
1758278073730394400,73.81039428710938,1.3521253875732422,9.669881230163574,2.546682378387451
1758278073740479500,73.8204794921875,1.2765583976745605,9.306261853027344,3.679439038848877
1758278073750564600,73.83056469726563,1.5301941360473632,9.009979397583008,4.730044654846191
1758278073760649500,73.8406494140625,2.103306158447265,8.856900128936767,5.3214124649047845
1758278073770734600,73.85073461914062,2.7693431327819824,8.805873706054687,5.523572867584228
1758278073780819500,73.8608193359375,3.3969232429504395,8.79150849609375,5.521627578735351
1758278073790904600,73.87090454101562,3.896712839508056,8.715193318176269,5.118054961395264
1758278073800989400,73.88098950195312,4.207809417724609,8.681075944519042,4.276642715454101
1758278073811074600,73.89107446289063,4.332158266448975,8.821136741638183,3.3310826972961425
1758278073821159400,73.90115942382812,4.276193802642822,9.023147506713867,2.2532430374145505
1758278073831245300,73.91124536132813,4.086303683471679,9.238924931335449,1.1774983039855955
1758278073841330400,73.92133032226562,3.878008139038086,9.56274070587158,0.3046621612548827
1758278073851415300,73.93141528320312,3.7300165489196777,10.141239682006836,-0.12764087600708
1758278073861500400,73.94150048828125,3.698443014526367,11.072584127807616,-0.0205003517150878
1758278073871585300,73.95158520507813,3.7274727096557614,12.11795242767334,0.469862075805664
1758278073881670400,73.96167041015624,3.821145849609375,12.828431770324704,0.968454571533203
1758278073891755500,73.97175561523437,4.038419650268555,12.93452483139038,1.3612532814025875
1758278073901840400,73.98184033203125,4.374954621124267,12.518083380126953,1.5409680435180664
1758278073911925500,73.99192553710938,4.690839602661133,11.706449017333984,1.4737807594299317
1758278073922010400,74.00201025390625,4.867860887908935,10.613795234680175,1.2623428253173827
1758278073932096500,74.01209643554688,4.92247861328125,9.411756363677975,1.019630632019043
1758278073942181600,74.022181640625,4.818330841064453,8.434323535919189,0.8515876029968261
1758278073952266500,74.0322666015625,4.621258116912841,7.927052059173583,0.7015010864257812
1758278073962351600,74.0423515625,4.461445156097412,7.949796974945068,0.6645405982971191
1758278073972436500,74.0524365234375,4.227112668609619,8.558373109436035,0.7128735443115234
1758278073982521600,74.062521484375,3.9009026924133297,9.597456629943848,0.8672995513916015
1758278073992606500,74.0726064453125,3.477428273773193,10.811017596435546,1.213560966491699
1758278074002691600,74.08269165039063,3.1049802780151365,12.019341246795651,1.79400523147583
1758278074012776000,74.09277587890625,2.6665420989990234,13.054983102416992,2.602946117401123
1758278074022861000,74.10286108398438,2.215983274078369,13.645153811645509,3.535487664031982
1758278074032947000,74.11294702148437,1.837849049377441,13.68765089111328,4.376151721954345
1758278074043031800,74.12303173828126,1.5662567985534668,13.47800860824585,4.9461213546752925
1758278074053117000,74.13311694335937,1.3651438591003415,13.105859887695312,5.147234294128418
1758278074063201800,74.14320190429687,1.3271359077453613,12.455085948944092,5.0191445053100585
1758278074073287000,74.15328686523438,1.1866261978149413,11.723806979370115,4.684704460906982
1758278074083371800,74.16337182617187,0.9382277755737304,10.982951203155515,4.2688615600585935
1758278074093457000,74.17345678710937,0.6733692169189452,10.333673640441894,3.8851907440185545
1758278074103541800,74.18354174804688,0.4700117134094238,9.60194575805664,3.5658640975952145
1758278074113627000,74.193626953125,0.3175309951782226,8.756194021606445,3.130717945861816
1758278074123711700,74.20371166992187,-0.1834557022094726,8.050503082275391,3.021781770324707
1758278074133798000,74.2137978515625,-0.8283937744140625,7.579593543243408,3.1784523414611816
1758278074143883000,74.22388305664063,-1.4725836585998535,7.448959915161132,3.446303652191162
1758278074153967900,74.2339677734375,-2.11961665725708,7.573458401489257,3.5721488769531247
1758278074164053000,74.24405297851563,-2.7296891677856445,7.760206130981444,3.5767876426696774
1758278074174137900,74.25413793945313,-3.2167595680236816,7.917624890136718,3.5693057624816893
1758278074184223000,74.26422290039062,-3.4528877067565915,8.060528801727294,3.490147470092773
1758278074194308000,74.27430810546875,-3.44106633605957,8.097938202667235,3.275567146301269
1758278074204393000,74.28439306640625,-3.272125481414794,8.118588191986083,2.884564087677002
1758278074214478000,74.29447802734374,-2.889801403808593,8.138190718078613,2.3120506156921383
1758278074224563700,74.30456372070313,-2.371756019592285,8.115745077514648,1.7993921852111816
1758278074234648800,74.31464892578126,-1.6434698020935057,7.996034994506836,1.5013140785217285
1758278074244734000,74.32473388671875,-0.8613140472412109,7.787140899658203,1.241692835998535
1758278074254818800,74.33481884765625,-0.3913023338317871,7.336133161926269,0.8906430175781249
1758278074264904000,74.34490405273438,-0.0974140800476074,6.846818197631835,0.7855974197387695
1758278074274988800,74.35498876953125,0.3642179275512695,6.623558892822265,1.1783961296081542
1758278074285074000,74.36507397460937,1.086518640899658,6.849362036895752,1.8914193115234372
1758278074295158800,74.37515869140626,2.053027923583984,7.510311332702636,2.749740606689453
1758278074305244000,74.38524389648437,3.188328423309326,8.63872850265503,3.6884172950744634
1758278074315328800,74.39532885742187,4.099322154998779,9.930400298309326,4.691737428283691
1758278074325415000,74.40541479492188,4.687697212982178,10.398915635681153,5.675455035400391
1758278074335500000,74.4155,5.226691861724853,9.841665199279785,6.541707123565674
1758278074345585000,74.4255849609375,5.749974562072754,8.977657675170898,7.120954287719727
1758278074355670000,74.435669921875,6.053439622497558,8.353968142700195,7.307702017211914
1758278074365755000,74.4457548828125,6.113743576812744,8.35681125717163,7.258022332763671
1758278074375840000,74.45584008789062,5.928192948150635,8.847024047088622,7.138761162567138
1758278074385924900,74.4659248046875,5.813121630859374,9.67751274795532,7.038204692840576
1758278074396010000,74.47601000976563,5.6964042999267575,10.822240416717529,6.9336080078125
1758278074406095000,74.48609521484374,5.434239218139648,11.916390575408936,6.8782420944213865
1758278074416180000,74.49617993164063,5.205144046783447,12.24499475326538,6.821230167388916
1758278074426265900,74.50626586914062,5.587917037200928,11.859827561187744,6.629544396972656
1758278074436350700,74.51635083007812,6.099976917266845,11.359439414215087,6.149955876922607
1758278074446435800,74.52643579101563,6.203077226257324,10.977264974212646,5.5641246582031245
1758278074456521000,74.53652099609376,6.251110897064208,10.414029033660889,4.929661218261718
1758278074466605800,74.54660571289062,6.380397786712647,9.808445651245115,4.374505708312988
1758278074476691000,74.55669091796875,6.255450387573242,9.361478128814698,3.8310219314575193
1758278074486775800,74.56677587890626,5.856516535949707,8.946233778381346,3.148075907897949
1758278074496861000,74.57686083984375,5.30495232849121,8.62600930633545,2.563441790008545
1758278074506945800,74.58694580078125,4.881328272247314,8.628553145599366,2.149095265197754
1758278074517032000,74.59703198242188,4.571428794860839,8.810213196563721,2.120215207672119
1758278074527117000,74.60711694335937,4.365228176879882,8.852859913635253,2.380285363006592
1758278074537202000,74.61720190429688,4.207809417724609,8.65758284072876,2.748992418670654
1758278074547287000,74.627287109375,4.276493077850342,8.372223930358887,2.9330466712951657
1758278074557372000,74.63737182617187,4.739771099090576,8.05708713684082,2.918082910919189
1758278074567457000,74.64745703125,5.299864649963379,7.731774986267089,3.008613661193848
1758278074577542000,74.6575419921875,5.670516994476318,7.372794374847412,3.186981684875488
1758278074587627000,74.667626953125,6.027552317047118,6.88871672668457,3.293074745941162
