time,seconds_elapsed,z,y,x
1758278283563889000,39.92588891601562,2.819322092437744,9.559747953796386,0.1770212852478027
1758278283573974000,39.93597412109375,2.711134104919433,10.485406170654295,0.3073556381225585
1758278283584059000,39.94605883789063,2.441786418151856,11.276240906524658,0.3625719139099121
1758278283594143700,39.95614379882812,2.025793879699707,11.880627188110353,0.4930559043884277
1758278283604228600,39.966228515625,1.6160861206054686,12.281057415771484,0.7022492744445801
1758278283614313700,39.976313720703125,1.2565069587707518,12.460173627471924,0.965910732269287
1758278283624398600,39.98639868164062,0.9311948081970214,12.502670706939696,1.1677718597412108
1758278283634482000,39.99648193359375,0.6935702934265137,12.243348739624023,1.2928688964843749
1758278283644566800,40.00656689453125,0.6501753883361816,11.73413197402954,1.4695909065246582
1758278283654652000,40.01665185546875,0.6209960556030273,10.996867500305177,1.6240169136047362
1758278283664736800,40.02673681640625,0.6247369956970215,10.29072764816284,1.8017863868713375
1758278283674822000,40.03682177734375,0.5008370597839356,9.643096099090576,1.8658312812805176
1758278283684906800,40.04690673828125,0.2436100189208984,9.07776523208618,1.9060837966918944
1758278283694992000,40.05699194335938,0.0734720634460449,8.614038298034668,2.0299837326049803
1758278283705077000,40.06707690429688,-0.0137666595458984,8.26732797012329,2.2123919715881346
1758278283715161900,40.07716186523437,-0.1020528457641601,7.971644065093994,2.32387198638916
1758278283725247000,40.0872470703125,-0.2847603599548339,7.683442040252685,2.330904953765869
1758278283735331800,40.097331787109376,-0.4189852905273437,7.446266438293456,2.264016944885254
1758278283745417000,40.1074169921875,-0.4815338088989258,7.276577395629882,2.160467723083496
1758278283755501800,40.11750170898438,-0.6388029304504395,7.206846272277832,2.0854992835998534
1758278283765587000,40.1275869140625,-0.8524854286193847,7.219565468597412,2.0081366424560545
1758278283775671800,40.137671875,-0.96411508102417,7.360673728942871,1.991227593231201
1758278283785757000,40.1477568359375,-1.004966146850586,7.671471031951904,1.95351891708374
1758278283795842000,40.15784204101563,-1.0064625228881836,8.333318153381347,1.901893943786621
1758278283805927000,40.16792700195312,-1.0654197387695312,9.171288734436034,1.9514239906311035
1758278283816012000,40.17801196289062,-1.048211414337158,10.22773021697998,2.28586403503418
1758278283826097000,40.18809692382813,-1.0245686729431152,11.39625026473999,2.903867338562012
1758278283836182800,40.19818286132813,-0.8173205917358398,12.069918756866455,3.7963060073852537
1758278283846267600,40.208267578125,-0.366462491607666,12.031312255096434,4.390965844726562
1758278283856352800,40.21835278320312,0.1818096885681152,11.54184765319824,4.420294815063476
1758278283866438000,40.22843798828125,0.6063315704345703,10.953173320007323,4.253748162078857
1758278283876522800,40.238522705078125,0.7875427085876464,10.341155520629885,4.108001136016846
1758278283886608000,40.24860791015625,0.8798691101074219,9.829245278167724,3.891774798583984
1758278283896692700,40.25869262695313,1.2403460975646972,9.465775538635253,3.4370261207580564
1758278283906777900,40.26877783203125,1.2695254302978516,8.761132062530518,3.1503204719543456
1758278283916862700,40.27886279296875,1.7687164764404295,8.104222982025146,3.548356497955322
1758278283926947800,40.28894775390625,2.823661582946777,8.034342221069336,3.749469437408447
1758278283937032700,40.29903271484375,3.635595220947265,8.438214113616944,3.5996821960449217
1758278283947117800,40.309117919921874,3.906439283752441,9.240271669769289,3.80498498840332
1758278283957203000,40.31920288085937,3.404105847930908,10.243891078186037,4.004152639007568
1758278283967287800,40.32928784179688,2.54099614944458,11.103559111785888,4.115333378601074
1758278283977373000,40.339373046875,1.9379566062927245,11.859827561187744,4.280832568359375
1758278283987457800,40.34945776367187,1.7325041763305664,12.74897420272827,4.497208543395995
1758278283997543000,40.35954296875,1.9334674781799317,13.82845987625122,4.5684360427856445
1758278284007628800,40.36962890625,2.2972364929199216,14.772074605560302,4.494963979339599
1758278284017713700,40.37971362304688,2.749590969085693,15.094543641662597,4.246565557098388
1758278284027798800,40.389798828125,3.257909909057617,14.476989250946044,3.595043430328369
1758278284037883600,40.39988354492188,3.7319618377685546,13.270760527038574,2.6521768890380857
1758278284047968800,40.40996875,3.922600144958496,12.12348901901245,1.632396619415283
1758278284058053600,40.4200537109375,3.7933132553100575,11.345972029876709,0.8795698348999023
1758278284068138800,40.430138671875,3.407996425628662,11.073332315826416,0.7435492530822754
1758278284078223600,40.4402236328125,2.8573300437927243,11.18002392730713,1.2140098793029783
1758278284088308700,40.450308837890624,2.2828712829589843,11.487529203033446,1.874510262298584
1758278284098393900,40.46039379882812,1.762581334686279,11.770942824554442,2.4144027366638183
1758278284108478700,40.470478759765626,1.3542203140258788,11.958738017272948,2.8151322395324705
1758278284118563800,40.48056372070312,1.0121487518310546,11.954548164367676,3.127874831390381
1758278284128648700,40.49064868164062,0.6542156036376953,11.68340482635498,3.337666751861572
1758278284138733800,40.50073388671875,0.3339911315917968,11.239878968811034,3.430292428588867
1758278284148818700,40.51081860351562,0.0007481880187988,10.609755019378662,3.478625374603271
1758278284158903800,40.52090380859375,-0.2774281173706054,9.76879168624878,3.417722869873047
1758278284168988700,40.53098876953125,-0.39579146194458,8.773551983642578,3.2664392524719235
1758278284179073800,40.54107373046875,-0.3353378700256347,7.784297785186767,3.150470109558105
1758278284189159000,40.55115893554687,-0.3559878593444824,6.816441764068603,3.120841864013672
1758278284199243800,40.56124389648438,-0.4583399803161621,5.953631340789794,3.2281320259094235
1758278284209328600,40.57132861328125,-0.6209960556030273,5.231629902648925,3.394529041290283
1758278284219413800,40.58141381835937,-0.769286920928955,4.623502680969238,3.4346319190979
1758278284229498600,40.59149853515625,-0.7652467056274413,4.1362826431274415,3.2131682655334477
1758278284239583700,40.601583740234375,-0.6001964286804199,3.83027374343872,2.772186247253418
1758278284249668600,40.61166870117187,-0.2516904495239258,3.687070556640625,2.2637176696777344
1758278284259753700,40.62175366210938,0.048482583618164,3.778050219726562,1.7286135986328124
1758278284269838600,40.63183862304688,0.2335842994689941,4.119373593902588,1.1189900009155274
1758278284279923700,40.641923828125,0.3116951286315917,4.778078325653076,0.4867711250305175
1758278284290008800,40.6520087890625,0.469263525390625,5.844844802856445,-0.0790086547851562
1758278284300093700,40.66209375,0.6575076309204101,7.242908934783935,-0.5624877525329589
1758278284310178800,40.6721787109375,0.8072948722839355,8.894908080291748,-1.036090768432617
1758278284320264700,40.6822646484375,1.045667575073242,10.616339073944092,-1.4254478134155273
1758278284330348800,40.692348876953126,1.377713417816162,12.149974874877929,-1.6992846282958984
1758278284340434700,40.7024345703125,1.6440683525085449,13.07593236694336,-1.9580080451965327
1758278284350519600,40.71251953125,1.7803882095336914,13.192948973083496,-2.173635832214355
1758278284360604700,40.72260473632812,1.7555483673095702,12.566715601348877,-2.0854992835998534
1758278284370689500,40.732689453125,1.755099454498291,11.6829559135437,-1.5474024604797365
1758278284380774700,40.742774658203125,1.8601450523376464,10.867430973052976,-0.6236895324707031
1758278284390859500,40.75285961914062,1.925536685180664,10.344597185516356,0.7698854713439941
1758278284400944600,40.76294458007813,1.99826056060791,10.088267970275878,2.20251588973999
1758278284411029500,40.77302954101562,2.2700024490356445,9.913790524291992,3.514089486694336
1758278284421114600,40.78311450195312,2.7289409797668456,9.65372036895752,4.675576567077637
1758278284431199700,40.79319970703125,3.386149335479736,9.143755415344238,5.629665928649902
1758278284441284600,40.80328466796875,4.164115237426757,8.48505068359375,6.092345399475097
1758278284451369700,40.81336962890625,4.838083004760742,7.857769848632812,5.706729294586181
1758278284461454600,40.82345458984375,5.205742597198486,7.540687766265869,4.683208084869385
1758278284471539700,40.83353979492188,5.181650942993164,7.776666267395019,3.4287960525512693
1758278284481624600,40.84362451171875,4.684105910491943,8.519168057250976,2.291400626373291
1758278284491709700,40.85370971679688,4.053383410644531,9.574562076568602,1.3416507553100585
1758278284501794600,40.863794677734376,3.5296517974853514,10.644470943450926,0.5572504364013672
1758278284511879700,40.87387963867187,3.2677859909057614,11.484386813354492,-0.1689408546447753
1758278284521964800,40.88396484375,3.3246482803344724,12.00258183517456,-0.9183259742736816
1758278284532049700,40.89404956054688,3.5314474487304683,12.198906371307372,-1.6234183631896972
1758278284542134800,40.904134765625,3.771316527557373,12.03370645675659,-2.093130801391601
1758278284552219600,40.9142197265625,3.9194577552795407,11.43395894088745,-2.2610241928100585
1758278284562304800,40.9243046875,3.974225118255615,10.436923587036132,-2.094776815032959
1758278284572389600,40.9343896484375,4.000262061309814,9.35938320236206,-1.6738462356567383
1758278284582474800,40.94447485351562,4.018218573760986,8.488043435668946,-1.0402806213378906
1758278284592559600,40.9545595703125,4.02839393081665,8.042721926879882,-0.2338835746765136
1758278284602644700,40.964644775390624,4.0547301490783685,8.02566324005127,0.6226420692443847
1758278284612729900,40.97472973632812,4.093785563659668,8.470535836029052,1.484853942108154
1758278284622814700,40.98481469726563,4.037821099853516,9.21887349243164,2.204461178588867
1758278284632899800,40.99489990234375,3.807528827667236,10.02257706222534,2.7124808433532714
1758278284642984700,41.00498461914062,3.4489971290588377,10.756399871063232,2.994996639251709
1758278284653069800,41.01506982421875,3.0437784980773923,11.3374426864624,3.127874831390381
1758278284663154700,41.02515478515625,2.5899276458740235,11.81059678955078,3.167678433990478
1758278284673239800,41.03523974609375,2.0757728393554684,12.204442962646484,3.123086428070068
1758278284683324700,41.04532470703125,1.5511434005737303,12.496984477996826,3.1573534393310547
1758278284693409800,41.055409912109376,1.0746972702026367,12.689418436431884,3.28798706741333
1758278284703495000,41.06549487304687,0.7263409286499023,12.61564709777832,3.4102409896850583
1758278284713579800,41.07557983398438,0.4897638771057128,12.223596575927736,3.508403257751465
1758278284723664600,41.08566455078125,0.3214215728759765,11.572373724365232,3.4352304695129394
1758278284733749500,41.09574951171875,0.1593640480041503,10.823736792755126,3.245789263153076
1758278284743834600,41.10583471679688,0.0333691856384277,10.142586420440674,2.953846298217773
1758278284753919500,41.11591943359375,-0.1818096885681152,9.548674771118163,2.6223990058898923
1758278284764004600,41.12600463867187,-0.441131655883789,9.04753843612671,2.313846266937256
1758278284774089500,41.13608935546875,-0.755220986175537,8.597727799224852,1.9601029716491696
1758278284784174600,41.14617456054688,-0.9671078330993652,8.182333811187744,1.6211737991333006
1758278284794259700,41.156259765625,-1.0491092399597168,7.825897039031981,1.3552677772521973
1758278284804344600,41.16634448242188,-1.1013327636718748,7.44357296142578,1.0910077690124511
1758278284814429700,41.1764296875,-1.0908581314086914,7.113173132324218,0.8927379440307617
1758278284824514600,41.1865146484375,-1.2012906829833985,6.902184111022949,0.7357680976867675
1758278284834599700,41.196599609375,-1.3199533027648924,6.7543421585083,0.5997475158691405
1758278284844684500,41.2066845703125,-1.2603975364685058,6.744466076660156,0.5850830307006836
1758278284854769700,41.216769775390624,-1.0660182891845702,6.857442467498779,0.637755467224121
1758278284864854500,41.2268544921875,-0.9798270294189452,7.114968783569336,0.6833949363708496
1758278284874939600,41.236939697265626,-0.9528922607421876,7.48906279296875,0.8574234695434569
1758278284885024800,41.24702465820312,-0.8089408859252929,8.045415403747558,1.153556287384033
1758278284895109600,41.25710961914063,-0.7372644737243652,8.744522288513183,1.5530886894226072
1758278284905194800,41.26719482421875,-0.8230068206787109,9.458742571258544,2.195632559967041
1758278284915279600,41.27727954101562,-0.8068459594726562,10.17685343170166,3.24339506149292
1758278284925364700,41.28736474609375,-0.6317699630737305,10.951976219177244,4.310011901092529
1758278284935449600,41.29744970703125,-0.1319803665161132,11.464784287261962,5.0766053451538085
1758278284945534700,41.30753466796875,0.6818985603332519,11.404330695343017,5.539284815979004
1758278284955619600,41.31761962890625,1.3931260910034178,10.565163013458251,5.370493598937988
1758278284965704700,41.32770458984375,1.6846201431274412,9.491812481689452,5.050119489288329
1758278284975789800,41.33778979492188,1.7896657409667969,8.625710031127928,5.183745869445801
1758278284985874700,41.34787475585937,1.9909283180236812,7.819761897277831,5.403713146972656
1758278284995959800,41.35795971679688,2.1384709953308105,7.374440388488769,5.334281298828125
1758278285006044700,41.368044677734375,2.4328081619262694,7.379378429412841,5.1045875770568845
1758278285016129800,41.3781298828125,2.9604303527832028,7.696011598968505,4.75623123550415
1758278285026214700,41.38821459960938,3.5028666664123533,8.106467546081543,4.251204322814941
1758278285036299800,41.3982998046875,3.733607851409912,8.671648775482177,3.708618371582031
1758278285046384600,41.40838452148437,3.6164416076660153,9.5377512260437,3.2788591735839843
1758278285056469800,41.4184697265625,3.183240744781494,10.822988604736327,3.178003428649902
1758278285066555000,41.42855493164063,2.6809073089599607,12.42261458892822,3.54970323638916
1758278285076639700,41.4386396484375,2.4651298843383787,13.702764289093016,4.198980799102783
1758278285086725600,41.4487255859375,2.6862942626953124,14.080898513793944,4.553771557617187
1758278285096809700,41.458809814453126,3.1331121475219725,13.174842823028564,4.466981747436523
1758278285106895600,41.4688955078125,3.662679627227783,11.4798976852417,3.9921816307067863
1758278285116980700,41.47898071289063,4.244021717834473,10.079738626861571,3.24967984085083
1758278285127065600,41.48906567382812,4.738424360656738,9.3852705078125,2.326565463256836
1758278285137150700,41.49915063476563,4.778826513671874,9.332897346496582,1.5384242042541505
1758278285147235600,41.50923559570312,4.397849174499512,9.738564890289306,1.288230130767822
1758278285157320700,41.51932080078125,3.8394016372680655,10.479420666503906,1.7170915031433105
1758278285167405600,41.52940551757813,3.3207577026367185,11.392658962249754,2.5659856292724608
1758278285177490700,41.53949072265625,2.7639561790466307,12.356474768066406,3.615843057250976
1758278285187575600,41.54957543945312,2.2539912254333494,12.930634253692626,4.630535648345947
1758278285197660700,41.55966064453125,2.0688895095825197,12.72458327331543,5.392191051483154
1758278285207745800,41.569745849609376,2.279579255676269,11.983428221893307,5.649118817138672
1758278285217830700,41.57983056640625,2.564638890838623,11.206060870361329,5.474342095947265
1758278285227915800,41.58991577148438,2.628983060455322,10.638036526489255,5.110722718811035
1758278285238001000,41.6000009765625,2.5014918220520017,10.315417852783202,4.516960707092285
1758278285248085800,41.61008569335937,2.224213342285156,10.173411766815184,3.805733176422119
1758278285258171000,41.6201708984375,1.843684915924072,10.011653517150878,3.122487877655029
1758278285268255700,41.630255859375,1.4963760375976562,9.76235726928711,2.479944007110596
1758278285278340900,41.6403408203125,1.0072107109069823,9.43524946746826,1.9948188957214357
1758278285288425700,41.65042578125,0.5638344909667968,9.062951109313964,1.7145476638793944
1758278285298510800,41.6605107421875,0.2485480598449707,8.761132062530518,1.5975310577392576
1758278285308595700,41.670595703125,-0.0401028778076171,8.493280751800537,1.5301941360473632
1758278285318680800,41.68068090820312,-0.21068974609375,8.318204755401611,1.4778209747314452
1758278285328766000,41.69076586914063,-0.1418564483642578,8.226776179504395,1.5382745666503903
1758278285338850800,41.70085083007813,-0.1032499465942382,8.194604094696045,1.532887612915039
1758278285348936000,41.71093603515625,-0.3199251968383789,8.128015361022948,1.364994221496582
1758278285359020800,41.72102075195313,-0.385616104888916,7.963563634490966,1.1391910774230956
1758278285369106000,41.73110595703125,-0.40222587890625,7.7204025283813476,0.842758984375
1758278285379190800,41.74119067382812,-0.4049193557739257,7.464522225952148,0.5648819541931152
1758278285389276000,41.75127587890625,-0.4571428794860839,7.261314360046386,0.3769371238708496
1758278285399360800,41.76136083984375,-0.3860650177001953,7.206546997070312,0.277727392578125
1758278285409446000,41.77144580078125,-0.3868132057189941,7.411700151824951,0.370951619720459
1758278285419530800,41.78153076171875,-0.5166986457824707,7.80195502243042,0.7423521522521972
1758278285429615600,41.79161572265625,-0.601992079925537,8.266579782104492,1.2942156349182128
1758278285439700700,41.80170068359375,-0.5641337661743163,8.598326349639892,1.8960580772399904
1758278285449785600,41.81178564453125,-0.3492541671752929,8.661323780822753,2.331802779388428
1758278285459870700,41.82187060546875,0.0623988807678222,8.532036891174316,2.8775311203002927
1758278285469955600,41.83195556640625,0.719457598876953,8.369231178283691,3.2767642471313474
1758278285480040700,41.84204077148438,1.458068811035156,8.418910862731932,3.4466029273986813
1758278285490125600,41.85212548828125,2.2322937728881835,8.808716820526122,3.6138977684020994
1758278285500210700,41.86221069335937,3.030610388946533,9.322721989440918,3.643526013946533
1758278285510295800,41.8722958984375,3.747973061370849,9.478045822143557,3.546560846710205
1758278285520380700,41.882380615234375,4.129399313354492,9.01536635131836,3.415927218627929
1758278285530465800,41.8924658203125,4.487332461547851,8.407089492034912,3.0726585556030277
1758278285540550700,41.90255053710938,4.63487513885498,8.285583757781982,2.4437317070007323
1758278285550635800,41.9126357421875,4.518307445526123,8.737040408325194,1.607556777191162
1758278285560720600,41.922720703125,4.247014469909668,9.577554828643798,0.6171054779052734
1758278285570805800,41.9328056640625,3.789422677612305,10.50306340789795,-0.5398924743652344
1758278285580890600,41.942890625,3.1235353408813475,11.205312682342528,-1.9170073417663571
1758278285590975700,41.95297583007813,2.4172458511352537,11.43979480743408,-3.286191416168213
1758278285601060900,41.96306079101562,1.900098292541504,11.011531985473631,-4.405779967498779
1758278285611145700,41.973145751953126,1.5996259841918945,10.15680199279785,-5.039345581817627
1758278285621230800,41.98323095703125,1.4246996253967283,9.485228427124024,-4.997147777557373
1758278285631315700,41.99331567382813,1.1846809089660644,9.273341580200194,-4.30282929611206
1758278285641400800,42.00340087890625,1.1394903526306153,9.184007930755614,-3.240103034210205
1758278285651485700,42.01348559570312,1.4369699089050292,8.966883767700194,-1.9922750564575196
1758278285661570800,42.02357080078125,1.930474726104736,8.574683608245849,-0.6202478675842285
1758278285671655700,42.03365576171875,2.428618309020996,8.217049735260009,0.6842927619934082
1758278285681740800,42.04374072265625,2.723554026031494,8.106018633270264,1.6608277641296385
1758278285691826000,42.05382592773437,2.8030115936279296,8.396914134979248,2.034772135925293
1758278285701910800,42.06391088867188,2.597259888458252,9.09153189163208,1.9521721786499024
1758278285711996000,42.073995849609375,2.095973915863037,10.04981110610962,1.6329951698303222
1758278285722080800,42.08408081054687,1.4395137481689453,11.097723245239257,1.395520292663574
1758278285732166000,42.09416577148438,0.7140706451416016,12.139949155426024,1.2945149101257325
1758278285742250800,42.10425073242188,0.1042974098205566,13.033435287475584,1.3817536331176756
1758278285752336000,42.1143359375,-0.3133411422729492,13.590236811065672,1.521964067840576
1758278285762420700,42.12442065429688,-0.5220855995178222,13.831003715515136,1.7212813560485838
1758278285772505900,42.134505859375,-0.6986579719543456,13.896694623565674,1.9621978981018064
1758278285782591000,42.14459106445312,-0.8180687797546387,13.875446083831786,2.2254104431152344
1758278285792675800,42.15467578125,-0.8436568099975585,13.79583887863159,2.323123798370361
1758278285802761000,42.164760986328126,-0.898274535369873,13.503895913696288,2.241720941925049
1758278285812845800,42.174845703125,-0.7594108390808105,12.932429904937743,2.235885075378418
1758278285822930700,42.1849306640625,-0.4442740455627441,12.135011114501951,2.2252608055114744
1758278285833015800,42.19501586914063,-0.261117618560791,11.09009172744751,2.233341236114502
1758278285843100700,42.2051005859375,-0.1171662437438964,10.024073438262938,2.2481553588867187
1758278285853185500,42.215185546875,0.0790086547851562,9.049783000183105,2.343474512481689
1758278285863270700,42.225270751953126,0.1759738220214843,8.071601984405516,2.4039281044006344
1758278285873355800,42.23535571289062,0.2377741523742675,7.141753914642334,2.4934113914489746
1758278285883440600,42.24544067382813,0.3205237472534179,6.318298181152343,2.663549346923828
1758278285893525800,42.25552587890625,0.4228758682250976,5.638494547271728,2.8836662620544438
1758278285903610600,42.26561059570312,0.4349965141296386,5.060294846343994,3.143736417388916
1758278285913695700,42.27569580078125,0.3877110313415527,4.474613265228271,3.376422891235352
1758278285923782000,42.285781982421874,0.4248211570739746,3.938012818145752,3.654449559020996
1758278285933866800,42.29586669921875,0.3067570877075195,3.5453637458801266,3.857358149719238
1758278285943952000,42.30595190429688,-0.2971802810668945,3.2618004867553707,3.799149121856689
1758278285954036700,42.31603662109375,-0.6646902359008788,3.21750775604248,3.6659716545104977
1758278285964121900,42.32612182617188,-0.6771101570129394,3.675548461151122,3.6586394119262695
1758278285974206700,42.336206787109376,-0.7020996368408202,4.536862508392334,3.665822016906738
1758278285984291800,42.34629174804687,-1.1239280418395996,5.998372984313964,3.870675896453857
1758278285994376700,42.35637670898438,-1.5403694931030272,8.17126062850952,4.254197074890136
1758278286004461800,42.3664619140625,-1.7694646644592285,10.949881292724609,5.032911164855957
1758278286014547000,42.376546875,-2.1253028861999512,13.473070567321775,5.981763210296631
1758278286024631800,42.3866318359375,-2.137722807312012,14.685584070587158,6.856095729064941
1758278286034717000,42.39671704101563,-1.386691674041748,14.618097511291504,7.687482255554198
1758278286044801800,42.4068017578125,0.0270844062805175,14.449455931854247,8.207472928619385
1758278286054887000,42.41688696289062,1.258452247619629,13.32388187637329,7.487716054534911
1758278286064971800,42.4269716796875,2.4396914916992185,11.697770036315918,6.026055941009521
1758278286075057000,42.43705688476562,3.3897406379699704,11.008539233398436,4.681562071228028
1758278286085141800,42.44714184570312,3.8474820678710935,11.142764163970948,3.668365856170654
1758278286095227000,42.45722680664063,4.00295553817749,11.46598138809204,2.938283987426757
1758278286105311700,42.46731176757813,4.106205484771729,11.54244620361328,2.6114754608154294
1758278286115396900,42.47739697265625,4.549581704711914,11.716774011993408,2.673724703979492
1758278286125481700,42.487481689453126,5.103390476226807,12.790723094177244,3.118148387145996
1758278286135566600,42.497566650390624,5.082291574096679,14.42910521774292,3.969287077331543
1758278286145651700,42.50765161132812,4.536563233184814,15.506047052001952,4.7280993659973145
1758278286155736600,42.517736572265626,4.144662348937988,15.453973165893554,5.115062209320068
1758278286165821700,42.52782177734375,4.00340445098877,14.221258586120603,5.118653511810303
1758278286175906600,42.53790649414063,4.144363073730468,12.46271746673584,4.514117592620849
1758278286185991700,42.54799169921875,4.346373838806152,10.94928274230957,3.418770333099365
1758278286196076800,42.55807690429688,4.050689933776855,9.826402163696288,2.1815666252136228
1758278286206162200,42.568162109375,3.3960254173278805,9.080458708953858,0.9867103591918944
1758278286216247300,42.57824731445312,2.702455123901367,8.608950619506835,-0.2510918991088867
1758278286226332200,42.58833227539063,1.993771432495117,8.328080837249756,-1.4221557861328125
1758278286236417300,42.598417236328125,1.4272434646606444,8.195202645111083,-2.40063607711792
1758278286246502100,42.60850219726562,1.0836755264282223,8.231564582824706,-3.008613661193848
1758278286256587300,42.61858715820313,0.6830956611633301,8.53562819366455,-3.0659248634338376
1758278286266672400,42.62867236328125,0.3229179489135742,9.160664464569091,-2.541594699859619
1758278286276757200,42.63875732421875,-0.0794575675964355,10.05594624786377,-1.553387964630127
1758278286286842400,42.64884228515625,-0.5957073005676269,10.927585289764403,-0.3380313468933105
1758278286296927200,42.65892724609375,-1.0654197387695312,11.348066956329346,0.9096469932556152
1758278286307012400,42.669012451171874,-1.3551181396484375,11.003451554870605,1.8198925369262693
1758278286317097200,42.67909716796875,-1.409137314605713,10.171316840362548,2.1664532272338866
1758278286327182300,42.68918237304688,-1.337460902404785,9.298031784820555,1.9747674568176268
1758278286337267200,42.69926708984375,-1.2648866645812988,8.60670605545044,1.5095441467285156
1758278286347352300,42.70935229492188,-1.2232874107360838,8.115894715118408,1.0494085151672363
1758278286357437400,42.7194375,-1.2159551681518554,7.749432223510742,0.6615478462219238
1758278286367522300,42.72952221679687,-1.258302610015869,7.359177352905273,0.4177881896972656
1758278286377607400,42.739607421875,-1.123030216217041,6.9707181335449215,0.3705027069091797
1758278286387692300,42.7496923828125,-1.0506056159973145,6.58884296875,0.4531026641845703
1758278286397777400,42.75977734375,-1.0579378585815429,6.230610545349121,0.6069301208496093
1758278286407862300,42.7698623046875,-1.1547533882141112,5.945850185394287,0.7990648040771484
1758278286417947400,42.77994750976563,-1.2439374000549317,5.811625254821777,1.0034697708129885
1758278286428032300,42.7900322265625,-1.4272434646606444,5.832125606536865,1.1231798538208009
1758278286438117400,42.80011743164062,-1.3977648567199703,6.049249769592285,1.259050798034668
1758278286448202500,42.81020239257813,-1.3233949676513672,6.535272706604004,1.4425065002441406
1758278286458287400,42.82028735351562,-1.279401512145996,7.273584643554687,1.8171990600585937
1758278286468372200,42.83037231445312,-1.20024321975708,8.153753028869628,2.418891864776611
1758278286478457000,42.84045703125,-0.995987890625,8.97047507019043,3.148075907897949
1758278286488542200,42.85054223632813,-0.8098387115478515,9.776273566436767,3.988590328216553
1758278286498627000,42.860626953125,-0.5511152946472168,10.55304236755371,4.69233597869873
1758278286508712200,42.870712158203126,-0.1096843635559082,11.021408067321778,5.181950218200683
1758278286518797000,42.880797119140624,0.5217863243103027,11.220426080322264,5.724087256622314
1758278286528882200,42.89088208007813,1.1387421646118163,11.347468405914306,6.291812325286865
1758278286538967300,42.90096728515625,1.8050784141540528,11.502343325805665,6.8016276412963865
1758278286549052200,42.91105224609375,2.5993548149108885,11.757625077819824,7.491307357025146
1758278286559137300,42.92113720703125,3.268234903717041,12.067225279998778,8.11409906387329
1758278286569222100,42.93122216796875,3.819050923156738,12.371737803649902,8.22946965637207
1758278286579307300,42.94130737304688,4.046948993682861,12.54561669921875,7.659350386047363
1758278286589392100,42.95139208984375,3.899406316375732,12.36650048751831,6.374711557769775
1758278286599477200,42.96147729492188,3.8607998146057128,12.054805358886718,4.504391148376465
1758278286609562000,42.97156201171875,3.738695529937744,11.922226441955566,2.3600842864990232
1758278286619647200,42.98164721679687,3.237259919738769,11.88736088027954,0.3761889358520507
1758278286629732400,42.991732421875,2.583343591308594,11.727547919464111,-1.0791863983154295
1758278286639817200,43.00181713867188,2.0573674140930174,11.449072338867186,-1.818845073699951
1758278286649902300,43.01190234375,1.5707459266662598,11.181669940948488,-1.9378069686889647
1758278286659987200,43.0219873046875,1.020827732849121,11.109694253540038,-1.661127039337158
1758278286670072300,43.032072265625,0.3896563201904297,11.1842137802124,-1.3039420791625975
1758278286680157200,43.0421572265625,-0.2377741523742675,11.33205573272705,-0.9555857376098632
1758278286690242300,43.0522421875,-0.6765116065979003,11.061810220336913,-0.716913759613037
1758278286700327200,43.0623271484375,-0.5345055206298828,10.39233158111572,-0.296881005859375
1758278286710412300,43.07241235351562,-0.014664485168457,9.654318919372558,0.3009212211608886
1758278286720497400,43.08249731445313,0.6634931350708008,9.006238457489014,0.8174702293395996
1758278286730582300,43.09258227539063,1.2605471740722656,8.404994565582275,1.223885961151123
1758278286740667400,43.10266748046875,1.6593313880920408,7.77621735458374,1.2835913650512694
1758278286750752300,43.11275219726563,1.9238906715393065,7.153724922943115,1.2126631408691406
1758278286760837400,43.12283740234375,2.0376152503967284,6.72920304107666,1.304989542388916
1758278286770922200,43.13292211914062,2.080710880279541,6.762721864318848,1.5358803649902344
1758278286781007400,43.14300732421875,2.109441300201416,7.361721192169189,1.582716934967041
1758278286791092200,43.15309228515625,2.0178630867004395,8.371026829528809,1.261444999694824
1758278286801177300,43.16317724609375,1.710357810974121,9.472658868408203,0.7246949150085449
1758278286811262500,43.17326245117187,1.3215993164062498,10.503512320709229,0.1159691429138183
1758278286821347300,43.18334741210938,0.9096469932556152,11.475408557128906,-0.3916016090393066
1758278286831432400,43.19343237304688,0.5702689079284667,12.42351241455078,-0.7541735229492187
1758278286841517300,43.20351733398437,0.2531868255615234,13.346327516937254,-0.958877764892578
1758278286851602400,43.2136025390625,-0.0294786079406738,14.17397310333252,-1.0527005424499511
1758278286861687300,43.223687255859375,-0.1610100616455078,14.791078581237793,-0.969053121948242
1758278286871772400,43.2337724609375,-0.167893391418457,14.993238983917236,-0.6450877098083496
1758278286881857300,43.24385717773438,-0.1566705711364746,14.765041638183591,-0.1238999359130859
1758278286891942100,43.253942138671874,-0.1725321571350097,14.170082525634763,0.4302081108093261
1758278286902027300,43.26402734375,-0.1623568000793457,13.243676120758057,0.8467991996765136
1758278286912112000,43.27411206054688,-0.0740706138610839,12.131419812011718,1.0173860679626463
1758278286922197200,43.284197265625,0.0366612129211425,11.068094999694823,1.0658686515808105
1758278286932282000,43.2942822265625,0.172981069946289,10.168773001098632,0.9865607215881348
1758278286942367200,43.3043671875,0.330699104309082,9.421033895111083,0.8789712844848633
1758278286952452000,43.3144521484375,0.5348047958374023,8.757091847229004,0.8607154968261719
1758278286962537200,43.324537109375,0.773776049041748,8.213458432769775,0.9988310050964356
1758278286972622000,43.3346220703125,0.7698854713439941,7.706336593627929,1.186177285003662
1758278286982707200,43.34470727539063,0.8903437423706054,7.261164722442627,1.3754688537597657
1758278286992792300,43.35479223632812,0.8575731071472168,6.884676511383057,1.5459060844421386
1758278287002877200,43.36487719726563,0.75971011428833,6.514024166870117,1.6831237670898436
1758278287012962300,43.37496240234375,0.8595183959960937,6.245723943328857,1.8351555725097652
1758278287023047200,43.38504711914062,0.7978677032470702,6.148758776092529,2.003946789550781
1758278287033132300,43.39513232421875,0.4312555740356445,6.184671800994873,2.1193173820495605
1758278287043217200,43.405217041015625,0.2048538795471191,6.33999563369751,2.238728189849853
1758278287053302300,43.41530224609375,0.007631517791748,6.533776330566406,2.4616882194519043
1758278287063387100,43.42538720703125,-0.3800795135498047,6.608295857238769,2.64289935760498
1758278287073472300,43.43547216796875,-0.7068880401611328,6.719476596832275,2.842964833831787
1758278287083557400,43.44555737304688,-0.9593266777038574,6.781576202392578,3.088669779205322
1758278287093643300,43.45564331054688,-1.2339116806030272,6.745064627075195,3.2529718681335447
1758278287103728400,43.46572827148437,-1.2589011604309082,6.6976295066833496,3.219004132080078
1758278287113813200,43.47581323242188,-0.9629179801940916,6.760477300262451,3.1543606872558594
1758278287123898400,43.4858984375,-0.4469675224304199,7.100005023193359,3.2213983337402343
1758278287133983500,43.4959833984375,0.0620996055603027,7.759906855773925,3.488950369262695
1758278287144068400,43.506068359375,0.5568015235900878,8.461108666992187,4.125957648468018
1758278287154153500,43.51615356445313,0.9560346504211426,8.968679418945312,5.077503170776367
1758278287164238300,43.52623828125,1.3654431343078612,9.150938020324707,6.116885966491699
1758278287174323200,43.5363232421875,2.054673937225341,8.834155213165282,6.824522194671631
1758278287184408000,43.546407958984375,3.164835319519043,8.13370158996582,6.855048265838622
1758278287194493200,43.5564931640625,4.291456838226318,7.721449991607666,6.6141317237854
1758278287204578000,43.566578125,4.840177931213379,8.128464273834227,6.667402710723876
1758278287214663000,43.57666284179688,5.048174200439453,9.187898508453369,6.678924806213378
1758278287224748000,43.586748046875,4.898835871887207,10.59718546066284,6.411971321105956
1758278287234833000,43.5968330078125,4.693981992340087,11.767501159667969,6.038026949310303
1758278287244918000,43.60691796875,4.758176524353027,12.27731647567749,5.538237352752685
1758278287255003000,43.6170029296875,4.992957924652099,12.32759471054077,4.957643450164794
1758278287265088000,43.627087890625,5.316025511169434,12.377723307800292,4.718672196960449
1758278287275172900,43.6371728515625,5.428253713989258,12.770671655273436,5.089025266265869
1758278287285258000,43.647258056640624,5.261108510589599,13.316549633789062,5.761945570373535
1758278287295342800,43.6573427734375,4.986673145294189,13.408277484893798,6.133944653320312
1758278287305428000,43.667427978515626,4.789899696350098,12.74194123535156,5.781099183654785
1758278287315513000,43.67751318359375,4.6651019348144525,11.506084265899656,4.662857370758056
1758278287325598000,43.68759790039063,4.517409619903564,10.225485652923584,3.2104747886657714
1758278287335683000,43.69768310546875,4.227262306213379,9.240870220184323,1.7910124794006346
1758278287345768000,43.70776782226562,3.7193922790527343,8.735693669891356,0.5559036979675293
1758278287355853000,43.71785302734375,3.1337106979370115,8.773103070831299,-0.2988262947082519
1758278287365938000,43.72793798828125,2.63676421585083,9.24446152267456,-0.7644985176086425
1758278287376023000,43.73802294921875,2.311900978088379,9.962273107910155,-0.854879630279541
1758278287386108000,43.74810791015625,2.0298340950012204,10.71255605316162,-0.5234323379516601
1758278287396193000,43.75819311523438,1.6660650802612305,11.315146683502196,0.1744774459838867
1758278287406278100,43.76827807617188,1.21296241607666,11.645995425415038,1.0447697494506836
1758278287416363000,43.77836303710937,0.7604583023071289,11.714379810333252,1.8543091857910157
1758278287426448100,43.7884482421875,0.3101987525939941,11.49770456008911,2.50253928527832
1758278287436533000,43.79853295898437,-0.0508767852783203,11.04564935913086,2.851643814849853
1758278287446618000,43.8086181640625,-0.2825157958984375,10.41253265762329,3.006369097137451
1758278287456703000,43.81870288085938,-0.4260182579040527,9.748291334533691,2.946214780426025
1758278287466788000,43.8287880859375,-0.4791396072387695,9.007285920715333,2.7334301078796384
1758278287476873000,43.838873046875,-0.5276221908569335,8.262988479614258,2.531868255615234
1758278287486958000,43.8489580078125,-0.5440823272705078,7.613710916900635,2.411260346984863
1758278287497043200,43.85904321289063,-0.5725134719848632,7.076811194610595,2.296189029693603
1758278287507128000,43.86912817382812,-0.6558616172790527,6.555773058319091,2.199523137664795
1758278287517213200,43.87921313476563,-0.7457938171386719,6.082319680023193,2.1341315048217773
1758278287527298000,43.889298095703126,-0.8336310905456542,5.727678559112548,2.0774188529968263
1758278287537383200,43.89938305664062,-0.948702407836914,5.411793577575684,1.9645920997619628
1758278287547468000,43.90946801757813,-0.9644143562316894,5.205443321990966,1.8365023109436036
1758278287557553200,43.91955322265625,-0.8604162216186523,5.1617491416931145,1.7510592391967772
1758278287567638000,43.92963793945312,-0.6877344268798827,5.402665683746338,1.8453309295654297
1758278287577723100,43.93972314453125,-0.6696282768249512,5.847239004516601,2.028188081359863
1758278287587808300,43.94980834960938,-0.4414309310913085,6.595726298522949,2.369960368347168
1758278287597893000,43.95989306640625,-0.2811690574645996,7.546822908020019,2.8526912780761715
1758278287607978000,43.96997802734375,0.0451905563354492,8.68885709991455,3.5275568710327145
1758278287618062800,43.98006274414063,0.2730886268615722,10.005518375396727,4.266467358398438
1758278287628148000,43.99014794921875,0.5593453628540038,11.241674620056152,5.002834006500244
1758278287638232800,44.00023291015625,0.8877999031066894,12.14294190750122,5.546018508148193
1758278287648318000,44.01031787109375,1.5243582695007325,12.581828999328613,5.853673421478272
1758278287658402800,44.02040283203125,2.4447791702270507,12.65335577392578,5.960514670562744
1758278287668488000,44.03048803710937,3.202992908477783,12.579734072875976,5.926247659301757
1758278287678573000,44.04057299804688,3.765929573822021,12.43009646911621,5.854720884704589
1758278287688658000,44.05065795898437,4.197634060668945,12.22569150238037,5.520580115509033
1758278287698743000,44.06074291992188,4.524592224884033,11.941679330444336,4.803815993499756
1758278287708828000,44.070827880859376,4.7286979164123535,11.56788459625244,3.749619075012207
1758278287718913000,44.0809130859375,4.635623326873779,11.098471433258055,2.4390929412841795
1758278287728998000,44.09099780273438,4.492719415283203,10.678289041900634,0.9961375282287596
1758278287739083000,44.1010830078125,4.306270960998535,10.411036281585693,-0.4613327323913574
1758278287749167900,44.11116796875,3.877110313415527,10.32275009536743,-1.6392799491882324
1758278287759253000,44.1212529296875,3.2851439529418944,10.443358003997805,-2.41320563583374
1758278287769338000,44.13133813476563,2.572270408630371,10.74427922515869,-2.945017679595947
1758278287779423000,44.141423095703125,2.01741417388916,11.289259378051756,-3.2583588218688964
1758278287789508000,44.15150805664062,1.546205359649658,11.972504676818849,-3.4488474914550777
1758278287799593000,44.16159301757813,0.9370306747436524,12.342109558105468,-3.671508245849609
1758278287809678000,44.171677978515625,0.5753565864562988,12.31532442703247,-3.679139763641357
1758278287819763000,44.18176293945312,0.471807364654541,11.831695691680908,-3.622576749420166
1758278287829848000,44.19184814453125,0.5559036979675293,11.10176346054077,-3.3904888259887693
1758278287839933000,44.201932861328125,0.8396165946960449,10.270676209259031,-2.851194902038574
1758278287850018000,44.21201806640625,1.1701660614013671,9.374496600341796,-2.075174288940429
1758278287860103200,44.22210327148437,1.386093123626709,8.488193073272704,-1.339555828857422
1758278287870188000,44.23218798828125,1.513584362030029,7.741202155303955,-0.608426496887207
1758278287880273200,44.242273193359374,1.589001714324951,7.212831776428223,0.0718260498046875
1758278287890358000,44.25235791015625,1.7247230209350586,7.036109766387939,0.5828384666442871
1758278287900443100,44.262443115234376,1.8809446792602535,7.255179218292236,0.8882488159179687
1758278287910528000,44.272528076171874,2.0081366424560545,7.86510209121704,0.930895532989502
1758278287920613000,44.28261303710938,1.9455881240844728,8.713547304534911,0.7647977928161621
1758278287930698000,44.29269799804688,1.720383530426025,9.670629418182372,0.5295674797058105
1758278287940783000,44.302783203125,1.3844471099853517,10.607959368133544,0.3266588890075683
1758278287950868200,44.3128681640625,1.0274117874145507,11.435904229736328,0.2539350135803223
1758278287960953000,44.322953125,0.6587047317504883,12.044181089019776,0.2805705070495605
1758278287971038200,44.3330380859375,0.3432686630249023,12.332682389068603,0.3694552436828613
1758278287981123000,44.343123046875,0.1375169578552246,12.237063960266113,0.4638765716552734
1758278287991208200,44.35320825195313,-0.0305260711669921,11.851298217773437,0.5660790550231933
1758278288001293000,44.36329296875,-0.1779191108703613,11.246313385772703,0.5906196220397949
1758278288011378200,44.37337817382812,-0.2937386161804199,10.512340939331054,0.5003881469726562
1758278288021463000,44.38346313476563,-0.3202244720458984,9.810091664886476,0.3682581428527832
1758278288031548000,44.3935478515625,-0.2644096458435058,9.18041662826538,0.2787748558044433
1758278288041633000,44.40363305664062,-0.2882020248413086,8.651896611785888,0.2135328605651855
1758278288051718000,44.4137177734375,-0.340275910949707,8.202085974884033,0.2446574821472167
1758278288061803000,44.42380297851562,-0.3589806114196777,7.818864071655273,0.3687070556640625
1758278288071888000,44.43388793945312,-0.2840121719360351,7.4956468475341795,0.5948094749450683
1758278288081973000,44.44397290039063,-0.2789244934082031,7.203404607391357,0.8369231178283691
1758278288092057900,44.45405786132813,-0.1900397567749023,7.005134782409668,1.07888712310791
1758278288102143000,44.46414306640625,-0.1857002662658691,6.873154415893555,1.2886790435791016
1758278288112227800,44.474227783203126,-0.1554734703063964,6.835296102142333,1.448492004394531
1758278288122313000,44.48431298828125,-0.20425532913208,6.937648223114013,1.6213234367370604
1758278288132398000,44.49439819335937,-0.2962824554443359,7.163451367187499,1.7357962036132812
1758278288142483000,44.50448291015625,-0.2051531547546386,7.660547486877441,1.86418526763916
1758278288152568000,44.514568115234376,-0.2503437110900878,8.479663729858398,2.048089882659912
1758278288162653000,44.52465283203125,-0.5210381362915039,9.501987838745116,2.3581389976501463
1758278288172738000,44.53473803710938,-0.6830956611633301,10.564414825439451,3.021183219909668
1758278288182823000,44.54482299804688,-0.6510732139587402,11.439944445037842,3.9649475868225097
1758278288192908000,44.55490795898437,-0.4055179061889648,11.54364330444336,4.484339709472656
1758278288202992600,44.56499267578125,-0.0139162971496582,10.830620122528076,4.18805725402832
1758278288213077500,44.57507739257812,0.2980781066894531,10.295366413879394,3.717746265411377
1758278288223162600,44.58516259765625,0.4468178848266601,10.398616360473632,3.4389714096069333
1758278288233247700,44.59524780273438,0.6003460662841796,10.64881043395996,3.1575030769348142
1758278288243332600,44.60533251953125,0.7267898414611816,10.733505317687989,2.8872575645446776
1758278288253417700,44.61541772460937,0.6419453201293945,10.68038396835327,2.725050402069092
1758278288263502600,44.62550268554688,0.9138368461608888,10.469394947052,2.450315761566162
1758278288273587700,44.635587646484375,1.432780055999756,10.29805989074707,2.348262915802002
1758278288283672600,44.64567260742187,1.5951368560791015,10.427197142791748,2.5745149726867678
1758278288293757700,44.6557578125,1.6186299598693847,10.842291855621337,2.8841151748657223
1758278288303842600,44.66584252929688,1.5898995399475098,11.343727465820312,3.397821068572998
1758278288313927700,44.675927734375,0.9913491249084472,11.70315699005127,3.74153864440918
1758278288324012800,44.6860126953125,0.4110544975280761,12.060491587829588,3.841496563720703
1758278288334097700,44.69609765625,0.2582745040893554,12.448950807189942,3.799149121856689
1758278288344182800,44.70618286132813,0.6203975051879882,12.71784958114624,3.401711646270752
1758278288354267600,44.716267578125,1.3997101455688477,12.879907106018065,2.8827684364318844
1758278288364352800,44.726352783203126,2.188898867797852,13.054085276794432,2.488622988128662
1758278288374437600,44.73643774414062,2.775927187347412,13.293804718017578,2.4768016174316405
1758278288384522800,44.74652270507813,3.0430303100585934,13.270910164642332,2.7768250129699705
1758278288394607600,44.756607666015626,3.140294752502441,12.491148611450194,2.9617770912170407
1758278288404692700,44.76669262695312,3.5057097808837887,11.152041695404051,2.70065947265625
1758278288414777900,44.77677783203125,4.069993184661865,9.9078050201416,2.032527571868896
1758278288424862700,44.78686279296875,4.428225608062744,9.062202921295166,1.1742062767028807
1758278288434947800,44.79694775390625,4.430021259307861,8.698882819366455,0.245106394958496
1758278288445032700,44.80703271484375,4.035576535797119,8.89386061706543,-0.5283703788757323
1758278288455117800,44.81711791992188,3.355922539520264,9.594164602661133,-0.9111433692932128
1758278288465202700,44.82720263671875,2.594416773986816,10.478373203277588,-0.8485948509216308
1758278288475287600,44.83728759765625,1.930474726104736,11.187505807495116,-0.4644751220703125
1758278288485372400,44.847372314453125,1.3441945945739746,11.578209590911865,0.086191259765625
1758278288495457500,44.85745751953125,0.8608651344299316,11.618611743927,0.7428010650634765
1758278288505542700,44.86754272460937,0.5568015235900878,11.398195553588868,1.381603995513916
1758278288515627500,44.87762744140625,0.4728548278808593,10.943596513366698,1.7751508934020994
1758278288525712600,44.88771264648437,0.3773860366821289,10.26528925552368,1.8134581199646
1758278288535797500,44.89779760742187,0.4905120651245117,9.431209252166749,1.6838719551086423
1758278288545882600,44.907882568359376,0.7773673515319823,8.639177415466309,1.5466542724609371
