time,seconds_elapsed,z,y,x
1758278378227447300,134.589447265625,1.7136386632919312,-1.7495887279510498,0.7755010724067688
1758278378237531100,134.59953125,1.9390017986297607,-0.8614210486412048,1.0771466493606567
1758278378247615200,134.609615234375,2.112059593200684,0.0160157177597284,1.339224100112915
1758278378257700000,134.6197001953125,2.192056894302368,0.8036735653877258,1.5432592630386353
1758278378267784400,134.6297844238281,2.193898200988769,1.4342209100723269,1.6852033138275146
1758278378277868300,134.6398684082031,2.151762008666992,1.8481559753417969,1.788174748420715
1758278378287953400,134.64995336914063,2.097220659255981,2.057860851287842,1.8646295070648196
1758278378298036500,134.66003637695312,2.045464038848877,2.0987844467163086,1.9089114665985107
1758278378308121600,134.67012158203124,1.983437418937683,1.9975391626358032,1.934674620628357
1758278378318205700,134.68020581054688,1.9264098405838013,1.84796404838562,1.937428593635559
1758278378328289800,134.69028979492188,1.87101149559021,1.718787431716919,1.931372880935669
1758278378338374700,134.70037475585937,1.808956742286682,1.6502472162246704,1.9167742729187007
1758278378348458500,134.71045849609374,1.7481343746185305,1.637953281402588,1.8859153985977173
1758278378358542600,134.72054248046874,1.6968879699707031,1.685544729232788,1.8308260440826416
1758278378368627500,134.73062744140626,1.6613091230392456,1.8110922574996948,1.769107222557068
1758278378378711800,134.7407119140625,1.619481086730957,2.0161752700805664,1.6861088275909424
1758278378388795600,134.7507956542969,1.5656068325042725,2.251790761947632,1.5480492115020752
1758278378398880800,134.760880859375,1.5057566165924072,2.505667924880981,1.3806180953979492
1758278378408964600,134.7709645996094,1.4356746673583984,2.740564584732056,1.1929470300674438
1758278378419049700,134.7810498046875,1.3714752197265625,2.8927698135375977,1.0066123008728027
1758278378429133600,134.79113354492188,1.3071718215942385,2.9703431129455566,0.8433663845062256
1758278378439217700,134.8012177734375,1.2516497373580933,2.963571310043335,0.7271753549575806
1758278378449302800,134.811302734375,1.1909658908843994,2.879801034927368,0.6506629586219788
1758278378459386600,134.82138671875,1.1315137147903442,2.741108655929565,0.5947030186653137
1758278378469470700,134.831470703125,1.0783860683441162,2.550846576690674,0.5431216359138489
1758278378479555600,134.8415556640625,1.0380769968032837,2.348959684371948,0.4934949278831482
1758278378489639700,134.8516396484375,1.0260344743728638,2.1292073726654053,0.4423409402370453
1758278378499724500,134.861724609375,1.044558882713318,1.863909721374512,0.3925938904285431
1758278378509808600,134.87180859375,1.1007510423660278,1.5469423532485962,0.3367213010787964
1758278378519892700,134.88189282226563,1.1939067840576172,1.2214542627334597,0.2666724324226379
1758278378529977600,134.8919775390625,1.293802261352539,0.9164294004440308,0.1718710958957672
1758278378540061700,134.90206176757812,1.3690637350082395,0.6220084428787231,0.051581434905529
1758278378550145500,134.9121455078125,1.3893541097640991,0.3430092930793762,-0.0907914191484451
1758278378560230700,134.92223071289064,1.3688493967056274,0.0941723063588142,-0.2309738248586654
1758278378570314800,134.93231469726564,1.290386438369751,-0.1301228553056717,-0.3904692232608795
1758278378580398600,134.9423986816406,1.120710849761963,-0.3448676466941833,-0.541028618812561
1758278378590483700,134.95248364257813,0.8180658221244812,-0.5591666102409363,-0.6607675552368164
1758278378600567600,134.96256762695313,0.4123494923114776,-0.7510798573493958,-0.7190689444541931
1758278378610652700,134.97265258789062,-0.0509734340012073,-0.9111603498458862,-0.7488846182823181
1758278378620736500,134.98273657226562,-0.5177565813064575,-1.025783896446228,-0.7859236001968384
1758278378630820900,134.99282080078126,-0.9363163113594056,-1.1418769359588623,-0.8058600425720215
1758278378640905700,135.00290576171875,-1.2441998720169067,-1.2431836128234863,-0.8081128001213074
1758278378650989600,135.01298950195311,-1.4565179347991943,-1.282147765159607,-0.831687867641449
1758278378661073700,135.02307373046875,-1.585884928703308,-1.2741827964782717,-0.8695758581161499
1758278378671158500,135.03315844726563,-1.67329204082489,-1.2242069244384766,-0.9257922768592834
1758278378681242600,135.04324267578124,-1.762794017791748,-1.132343292236328,-0.9996726512908936
1758278378691327500,135.05332739257813,-1.860445737838745,-0.9686084389686584,-1.0838208198547363
1758278378701411800,135.06341186523437,-1.9629970788955688,-0.7260599732398987,-1.1506799459457395
1758278378711495700,135.07349560546874,-2.0637741088867188,-0.4163855016231537,-1.1958717107772827
1758278378721580800,135.08358081054686,-2.144782543182373,-0.051313254982233,-1.2138395309448242
1758278378731664600,135.09366455078126,-2.1817026138305664,0.3424031436443329,-1.1868417263031006
1758278378741748500,135.10374853515626,-2.1714813709259038,0.7415928840637207,-1.1340879201889038
1758278378751833600,135.11383349609375,-2.127874851226806,1.0743253231048584,-1.0517257452011108
1758278378761917700,135.12391772460938,-2.056285858154297,1.331108570098877,-0.9489386081695556
1758278378772002800,135.1340029296875,-1.956720352172852,1.5410096645355225,-0.8151834607124329
1758278378782086700,135.14408666992188,-1.8323464393615725,1.6769843101501465,-0.6756447553634644
1758278378792170800,135.15417065429688,-1.6901549100875854,1.7501569986343384,-0.5422084331512451
1758278378802255600,135.16425561523437,-1.5486491918563845,1.7630051374435425,-0.4193503856658935
1758278378812339500,135.17433935546876,-1.4304269552230835,1.708638072013855,-0.3084776699542999
1758278378822423800,135.184423828125,-1.3640340566635132,1.5896466970443726,-0.2094765305519104
1758278378832508700,135.1945087890625,-1.355599045753479,1.4044153690338137,-0.1239187493920326
1758278378842592800,135.2045927734375,-1.393555760383606,1.1569615602493286,-0.044267863035202
1758278378852676600,135.21467651367186,-1.4613025188446045,0.8474343419075012,0.0461994521319866
1758278378862761700,135.22476171875,-1.5287737846374512,0.4909734427928924,0.1446975320577621
1758278378872845600,135.23484545898438,-1.581021785736084,0.0927669554948806,0.2397633194923401
1758278378882930700,135.2449306640625,-1.614998698234558,-0.3024986088275909,0.3296061158180237
1758278378893014800,135.25501489257812,-1.6404858827590942,-0.6592178344726562,0.4261947274208069
1758278378903098600,135.2650986328125,-1.673358917236328,-0.9508981704711914,0.5195987224578857
1758278378913183700,135.27518383789064,-1.7133750915527344,-1.1942496299743652,0.6144471764564514
1758278378923267600,135.285267578125,-1.7696764469146729,-1.4101275205612185,0.678210973739624
1758278378933351700,135.2953515625,-1.8355553150177,-1.6215460300445557,0.6976648569107056
1758278378943436500,135.3054365234375,-1.9004530906677248,-1.8333123922348025,0.6625675559043884
1758278378953520600,135.31552075195313,-1.944347023963928,-2.0655534267425537,0.5619205832481384
1758278378963604700,135.32560473632813,-1.9562095403671265,-2.3569495677948,0.3586140871047973
1758278378973689600,135.33568969726562,-1.924148797988892,-2.769003629684448,0.0620497874915599
1758278378983773700,135.34577368164062,-1.849851965904236,-3.3615293502807617,-0.2751633822917938
1758278378993858600,135.3558586425781,-1.777973771095276,-4.171889781951904,-0.6054853796958923
1758278379003942700,135.3659426269531,-1.7411571741104126,-5.167264461517334,-0.898402214050293
1758278379014026800,135.37602685546875,-1.7879917621612549,-6.237184524536133,-1.1653372049331665
1758278379024111900,135.38611181640624,-1.9000051021575928,-7.233963966369629,-1.4028632640838623
1758278379034195700,135.39619580078124,-2.0270020961761475,-8.04160213470459,-1.5922435522079468
1758278379044279600,135.40627954101564,-2.082078456878662,-8.61141300201416,-1.7041999101638794
1758278379054364700,135.41636474609376,-2.035670042037964,-8.925679206848145,-1.7685368061065674
1758278379064448500,135.42644848632813,-1.9131726026535036,-8.972138404846191,-1.8046362400054927
1758278379074533600,135.43653369140625,-1.749562382698059,-8.755733489990234,-1.8195466995239256
1758278379084617700,135.44661767578123,-1.5941061973571775,-8.302517890930176,-1.816382646560669
1758278379094701600,135.45670166015626,-1.4784387350082395,-7.605904579162598,-1.807996392250061
1758278379104786700,135.46678662109375,-1.4355884790420532,-6.647989749908447,-1.78536856174469
1758278379114870500,135.47687060546875,-1.508297562599182,-5.387241363525391,-1.767807960510254
1758278379124954600,135.48695458984375,-1.6724486351013184,-3.837567090988159,-1.7141492366790771
1758278379135039500,135.49703955078124,-1.8802531957626345,-2.169673442840576,-1.5844261646270752
1758278379145123800,135.50712377929688,-1.9049433469772337,-0.6943745017051697,-1.3531129360198977
1758278379155207700,135.51720776367188,-1.6748443841934204,0.3622828423976898,-1.0208234786987305
1758278379165292800,135.52729272460937,-1.321613073348999,1.0574419498443604,-0.6497934460639954
1758278379175376600,135.53737670898437,-0.965796947479248,1.5667963027954102,-0.2982077300548553
1758278379185461800,135.5474616699219,-0.6407155394554138,1.934367060661316,0.0040741036646068
1758278379195545600,135.5575456542969,-0.3390009701251983,2.131308078765869,0.2441261112689972
1758278379205629700,135.5676296386719,-0.0813699588179588,2.1549630165100098,0.4223475158214569
1758278379215714800,135.57771484375,0.1252700388431549,2.0156965255737305,0.5417549014091492
1758278379225798700,135.58779858398438,0.262262761592865,1.758622169494629,0.6285736560821533
1758278379235882800,135.5978828125,0.3461014926433563,1.425910234451294,0.698833167552948
1758278379245967600,135.60796752929687,0.3915475308895111,1.07398521900177,0.7561627626419067
1758278379256051500,135.61805151367187,0.4203320443630218,0.7343653440475464,0.7959490418434143
1758278379266135800,135.6281357421875,0.4408921599388122,0.4346928596496582,0.8314343690872192
1758278379276220700,135.638220703125,0.4466941356658935,0.2153634428977966,0.8642799258232117
1758278379286304800,135.6483046875,0.4548346102237701,0.1165037080645561,0.9067368507385254
1758278379296389600,135.6583896484375,0.4651066958904266,0.1732977479696273,0.951594054698944
1758278379306473700,135.6684736328125,0.4899244308471679,0.3698696494102478,0.9943516254425048
1758278379316557600,135.6785576171875,0.5384781360626221,0.6694614291191101,1.0471594333648682
1758278379326642700,135.688642578125,0.6223421096801758,1.0420582294464111,1.1051775217056274
1758278379336726800,135.69872680664062,0.7557188272476196,1.476575255393982,1.1702766418457031
1758278379346810600,135.708810546875,0.9460525512695312,1.946471691131592,1.2501221895217896
1758278379356895700,135.7188957519531,1.1982041597366333,2.4291274547576904,1.3673279285430908
1758278379366979600,135.7289794921875,1.4857066869735718,2.95282244682312,1.5133508443832395
1758278379377064700,135.73906469726563,1.759674072265625,3.4964871406555176,1.655664324760437
1758278379387148500,135.7491484375,1.9766786098480225,4.021029472351074,1.7676974534988403
1758278379397233000,135.75923291015624,2.1316468715667725,4.454987525939941,1.8412315845489504
1758278379407317800,135.76931787109376,2.2243218421936035,4.743156433105469,1.8779189586639404
1758278379417401900,135.77940185546876,2.278158187866211,4.87194299697876,1.8750054836273196
1758278379427485700,135.78948559570313,2.3195154666900635,4.860226154327393,1.8197948932647705
1758278379437570600,135.79957055664062,2.367250204086304,4.739965438842773,1.7244892120361328
1758278379447654700,135.80965454101562,2.434811592102051,4.556748390197754,1.6054770946502686
1758278379457738800,135.81973876953126,2.507088422775269,4.329977035522461,1.4722719192504885
1758278379467823600,135.82982373046875,2.5842878818511963,4.072669506072998,1.337952733039856
1758278379477907700,135.83990771484375,2.6466197967529297,3.8047854900360103,1.1996594667434692
1758278379487992800,135.84999291992187,2.693042993545532,3.5396785736083984,1.0578073263168335
1758278379498076700,135.86007666015624,2.7102606296539307,3.288156032562256,0.9116434454917908
1758278379508160500,135.87016040039063,2.7015187740325928,3.018068552017212,0.7616696357727051
1758278379518245600,135.88024560546876,2.6707141399383545,2.719650983810425,0.6105541586875916
1758278379528329700,135.89032983398437,2.613515853881836,2.407362937927246,0.4716743230819702
1758278379538413800,135.90041381835937,2.553997755050659,2.0522284507751465,0.3383450210094452
1758278379548498700,135.9104987792969,2.4943904876708984,1.6719589233398438,0.2165022045373916
1758278379558582800,135.9205827636719,2.438986301422119,1.3030420541763306,0.10401002317667
1758278379568666600,135.93066650390625,2.402158260345459,0.9586144089698792,0.0118539966642856
1758278379578751700,135.94075170898438,2.3857531547546387,0.642728328704834,-0.0708499401807785
1758278379588835800,135.9508359375,2.400158643722534,0.3545117378234863,-0.1269323825836181
1758278379598920700,135.96092065429687,2.438560724258423,0.1460980921983719,-0.1534896939992904
1758278379609004800,135.9710048828125,2.489924907684326,0.0395625904202461,-0.1659716665744781
1758278379619088600,135.98108862304687,2.5569217205047607,-0.0159781668335199,-0.1657298505306244
1758278379629173800,135.991173828125,2.6141202449798584,-0.0077154440805315,-0.166639044880867
1758278379639257600,136.00125756835936,2.64657998085022,0.082823246717453,-0.180273100733757
1758278379649341700,136.011341796875,2.625101089477539,0.2172750681638717,-0.1994060426950454
1758278379659426800,136.0214267578125,2.530810594558716,0.3693197071552276,-0.2296449095010757
1758278379669510700,136.0315107421875,2.3637912273406982,0.5729588866233826,-0.2531550228595733
1758278379679594800,136.0415947265625,2.134637355804444,0.8187723755836487,-0.2678748667240143
1758278379689679600,136.0516796875,1.8968247175216677,1.076218843460083,-0.2731263339519501
1758278379699763700,136.061763671875,1.643125057220459,1.307391881942749,-0.2825155854225158
1758278379709848600,136.0718486328125,1.392051100730896,1.5238125324249268,-0.3092140257358551
1758278379719932700,136.0819326171875,1.1443454027175903,1.7418216466903689,-0.3422431051731109
1758278379730016800,136.0920168457031,0.8771696090698242,1.9016765356063845,-0.3232571482658386
1758278379740101600,136.1021015625,0.5759834051132202,1.9734023809432983,-0.2582312822341919
1758278379750185700,136.11218579101563,0.2338540405035019,1.918611764907837,-0.203266829252243
1758278379760269600,136.12226953125,-0.1233416423201561,1.740546941757202,-0.1757838129997253
1758278379770354700,136.13235473632812,-0.4617942571640014,1.4394118785858154,-0.1246098354458808
1758278379780438800,136.14243872070313,-0.7369232773780823,1.0490247011184692,-0.0705857500433921
1758278379790522600,136.15252270507813,-0.9203943014144896,0.6168818473815918,-0.0182581003755331
1758278379800607700,136.16260766601562,-1.015994668006897,0.1547016948461532,0.0296191442757844
1758278379810691600,136.17269165039062,-1.068437576293945,-0.3367407321929931,0.0759754553437233
1758278379820776700,136.18277661132814,-1.1273123025894165,-0.8440265655517578,0.1325729638338089
1758278379830860500,136.19286059570314,-1.2527618408203125,-1.324519395828247,0.1963953524827957
1758278379840944600,136.20294458007814,-1.488207459449768,-1.720000147819519,0.2383217513561248
1758278379851029800,136.21302978515624,-1.8228999376297,-1.959762454032898,0.219967246055603
1758278379861113900,136.22311376953124,-2.1623566150665283,-2.0118846893310547,0.1757428050041198
1758278379871197700,136.23319775390624,-2.4131555557250977,-1.8942062854766848,0.1525653004646301
1758278379881282800,136.24328271484376,-2.5283634662628174,-1.6352962255477903,0.1682273596525192
1758278379891366700,136.25336669921876,-2.5125482082366943,-1.304587483406067,0.2336841225624084
1758278379901450800,136.26345068359376,-2.386457681655884,-0.9661388993263244,0.3253029882907867
1758278379911535600,136.27353564453125,-2.1916186809539795,-0.6651892066001892,0.4131052792072296
1758278379921619700,136.28361962890625,-1.9617201089859009,-0.4110043048858642,0.4777140915393829
1758278379931704800,136.29370483398438,-1.717848300933838,-0.1955098509788513,0.5026540756225586
1758278379941788700,136.30378857421874,-1.4906023740768433,-0.0403918959200382,0.5054365396499634
1758278379951872500,136.31387255859374,-1.309879183769226,0.0433773025870323,0.4725944399833679
1758278379961957600,136.32395751953126,-1.2271100282669067,0.0308521892875432,0.4183213412761688
1758278379972041700,136.33404174804687,-1.2463399171829224,-0.0720254555344581,0.3513436615467071
1758278379982125800,136.34412573242187,-1.343497633934021,-0.2475637197494506,0.2921282649040222
1758278379992210700,136.35421069335936,-1.489189386367798,-0.454313188791275,0.2442273199558258
1758278380002294800,136.36429467773436,-1.6351287364959717,-0.6440165042877197,0.2219180166721344
1758278380012378600,136.37437866210936,-1.7476403713226318,-0.777651309967041,0.2283261120319366
1758278380022463700,136.38446362304688,-1.812334895133972,-0.8352538347244263,0.2585852146148681
1758278380032547800,136.3945478515625,-1.8450618982315063,-0.8334546089172363,0.3039641380310058
1758278380042632700,136.4046328125,-1.8683075904846191,-0.8216488361358643,0.3387293219566345
1758278380052716800,136.414716796875,-1.910130739212036,-0.8035995364189148,0.3453057408332824
1758278380062800600,136.42480053710938,-1.9797683954238887,-0.7700218558311462,0.3307243883609772
1758278380072885800,136.4348857421875,-2.0748131275177,-0.7312254905700684,0.2873553335666656
1758278380082969600,136.44496948242187,-2.1901073455810547,-0.6891310214996338,0.2346753627061844
1758278380093053700,136.4550537109375,-2.3017590045928955,-0.6486173868179321,0.1782421767711639
1758278380103138600,136.465138671875,-2.3972692489624023,-0.6402857303619385,0.1303540170192718
1758278380113222700,136.47522265625,-2.4474518299102783,-0.6893198490142822,0.0667923465371131
1758278380123306800,136.485306640625,-2.4474236965179443,-0.8518314957618713,-0.0394057296216487
1758278380133391600,136.4953916015625,-2.4031801223754883,-1.1552542448043823,-0.2027722895145416
1758278380143475700,136.50547583007813,-2.3402018547058105,-1.6182903051376345,-0.3833612501621246
1758278380153559800,136.51555981445313,-2.3036906719207764,-2.214010000228882,-0.5464162230491638
1758278380163644700,136.52564477539062,-2.32188081741333,-2.86651611328125,-0.6836813688278198
1758278380173728800,136.53572875976562,-2.3890249729156494,-3.4719369411468506,-0.7994332909584045
1758278380183813600,136.54581372070314,-2.4640591144561768,-3.955399990081787,-0.8932204842567444
1758278380193897700,136.55589770507814,-2.4868757724761963,-4.289676189422607,-0.9515684843063354
1758278380203981600,136.56598168945314,-2.4343998432159424,-4.457220077514648,-0.999268352985382
1758278380214066700,136.57606665039063,-2.3203437328338623,-4.500613689422607,-1.0329807996749878
1758278380224150800,136.58615087890624,-2.178054094314575,-4.405690670013428,-1.0727527141571045
1758278380234234600,136.59623461914063,-2.032535552978516,-4.156866550445557,-1.1083085536956787
1758278380244319700,136.60631982421876,-1.9008554220199585,-3.774205923080444,-1.123070478439331
1758278380254403600,136.61640356445312,-1.7880955934524536,-3.3034017086029053,-1.1007728576660156
1758278380264487700,136.62648779296876,-1.682022213935852,-2.7706189155578613,-1.0185285806655884
1758278380274572500,136.6365725097656,-1.5439188480377195,-2.208425521850586,-0.8911946415901184
1758278380284656600,136.64665673828125,-1.366806983947754,-1.7046725749969482,-0.7270906567573547
1758278380294741800,136.65674169921874,-1.1567435264587402,-1.3063052892684937,-0.5339654088020325
1758278380304825900,136.66682592773438,-0.94000905752182,-1.0042232275009155,-0.3368262350559234
1758278380314910000,136.67690991210938,-0.7289085388183594,-0.7678838968276978,-0.1617572009563446
1758278380324994800,136.68699487304687,-0.5239095687866211,-0.5946213006973267,-0.0134356478229165
1758278380335079000,136.69707885742187,-0.3194693326950073,-0.5294574499130249,0.1130863428115844
1758278380345162800,136.70716284179687,-0.1290003210306167,-0.5696152448654175,0.2360058724880218
1758278380355247900,136.71724780273436,0.027573836967349,-0.6654400825500488,0.3490637242794037
1758278380365332000,136.72733203125,0.1451145857572555,-0.7398509383201599,0.4478720426559448
1758278380375415800,136.73741577148436,0.2267340719699859,-0.7616451382637024,0.5283048152923584
1758278380385501000,136.7475009765625,0.2835131883621216,-0.7265090346336365,0.6026379466056824
1758278380395584800,136.75758471679688,0.3280583024024963,-0.6281493902206421,0.6745717525482178
1758278380405668900,136.7676689453125,0.3605771064758301,-0.4503730237483978,0.7390921711921692
1758278380415753700,136.77775366210938,0.3914870619773865,-0.1598634272813797,0.808447003364563
1758278380425838000,136.78783813476562,0.4514423012733459,0.2614963054656982,0.8822624087333679
1758278380435923000,136.7979228515625,0.5288422703742981,0.7711523771286011,0.962888777256012
1758278380446007000,136.8080070800781,0.6532928347587585,1.3514381647109983,1.0485615730285645
1758278380456091000,136.8180908203125,0.8152329921722412,1.974340319633484,1.144063949584961
1758278380466175700,136.82817578125,1.028267741203308,2.6241018772125244,1.2439804077148438
1758278380476259800,136.838259765625,1.2835158109664917,3.3251101970672607,1.3402714729309082
1758278380486344000,136.84834399414063,1.557703733444214,4.083507537841797,1.409685730934143
1758278380496429000,136.85842895507812,1.8447242975234983,4.754766464233398,1.4437206983566284
1758278380506513000,136.86851293945313,2.120570421218872,5.263156414031982,1.4444003105163574
1758278380516596700,136.8785966796875,2.3616130352020264,5.580208778381348,1.4096252918243408
1758278380526681900,136.88868188476562,2.556105613708496,5.695327758789063,1.343947410583496
1758278380536765700,136.898765625,2.706986427307129,5.627953052520752,1.2491130828857422
1758278380546850800,136.90885083007814,2.82204270362854,5.40105676651001,1.1238605976104736
1758278380556935000,136.91893481445314,2.899637460708618,5.064445018768311,0.9710204601287842
1758278380567019000,136.92901904296875,2.965430498123169,4.651290893554688,0.8071308732032776
1758278380577104000,136.93910375976563,3.037583351135254,4.202324867248535,0.6725291013717651
1758278380587188000,136.94918798828124,3.0996344089508057,3.7417283058166495,0.5616766214370728
1758278380597271800,136.95927172851563,3.129389762878418,3.279381036758423,0.4440581500530243
1758278380607356700,136.96935668945312,3.1046156883239746,2.8602890968322754,0.3304237127304077
1758278380617441000,136.97944091796876,3.027940273284912,2.495381116867065,0.2152590453624725
1758278380627524900,136.98952490234376,2.9079349040985107,2.1231799125671387,0.092745117843151
1758278380637610000,136.99960986328125,2.7669591903686523,1.7768315076828003,-0.0378011763095855
1758278380647693800,137.00969384765625,2.6101412773132324,1.5049227476119995,-0.1641415357589721
1758278380657777700,137.01977758789062,2.453585386276245,1.2794395685195925,-0.2826330363750458
1758278380667862800,137.02986279296874,2.310612678527832,1.097901463508606,-0.3922585844993591
1758278380677947000,137.03994677734374,2.1775591373443604,0.9542681574821472,-0.4839256703853607
1758278380688032000,137.05003198242187,2.079368829727173,0.834136962890625,-0.5534509420394897
1758278380698115800,137.06011572265626,2.0080156326293945,0.7362151741981506,-0.6046164035797119
1758278380708200000,137.07019995117187,1.9690262079238887,0.6188278198242188,-0.6611489057540894
1758278380718284800,137.08028491210936,1.9562249183654783,0.4953082799911499,-0.7170912623405457
1758278380728369000,137.09036889648436,1.9630253314971924,0.3855178654193878,-0.7502646446228027
1758278380738453000,137.10045288085936,1.9968410730361936,0.3769877552986145,-0.7721889019012451
1758278380748537900,137.11053784179688,2.055163621902466,0.4723856449127197,-0.7733705043792725
1758278380758622000,137.1206220703125,2.133308172225952,0.5650261044502258,-0.7689542174339294
1758278380768705800,137.13070581054689,2.208872079849243,0.6807758808135986,-0.7576738595962524
1758278380778791000,137.140791015625,2.2627222537994385,0.7896552085876465,-0.747166097164154
1758278380788874800,137.15087475585938,2.2888853549957275,0.8215044736862183,-0.7522093057632446
1758278380798958800,137.16095874023438,2.261631488800049,0.8294960856437683,-0.7728732824325562
1758278380809044000,137.1710439453125,2.168292760848999,0.9036206603050232,-0.7744259238243103
1758278380819127800,137.1811279296875,2.02738356590271,1.016676902770996,-0.7245081663131714
1758278380829213000,137.191212890625,1.8536168336868288,1.1348514556884766,-0.6458900570869446
1758278380839296800,137.201296875,1.6314308643341064,1.214382529258728,-0.546252429485321
1758278380849380900,137.211380859375,1.3620015382766724,1.2167173624038696,-0.4481647312641144
1758278380859465700,137.2214658203125,1.0545979738235474,1.1447888612747192,-0.3979849219322204
1758278380869550000,137.23155004882813,0.699647843837738,1.0159538984298706,-0.3894439041614532
1758278380879634000,137.24163403320313,0.277120292186737,0.8335928320884705,-0.3998238444328308
1758278380889719000,137.25171899414062,-0.1763364225625991,0.5971672534942627,-0.3777875006198883
1758278380899803000,137.26180297851562,-0.5935501456260681,0.3050858676433563,-0.2950135171413421
1758278380909886700,137.27188671875,-0.9180267453193665,-0.0204839687794446,-0.2194370180368423
1758278380919971800,137.28197192382814,-1.1184911727905271,-0.378217339515686,-0.197955697774887
1758278380930056000,137.29205590820314,-1.211691975593567,-0.7380871176719666,-0.2251361757516861
1758278380940140000,137.30214013671875,-1.2237869501113892,-1.079361915588379,-0.2784883379936218
1758278380950225000,137.31222485351563,-1.2078849077224731,-1.3882513046264648,-0.3310229182243347
1758278380960308700,137.32230883789063,-1.2201639413833618,-1.6429389715194702,-0.3515233993530273
1758278380970393900,137.33239379882812,-1.3209683895111084,-1.8230754137039185,-0.3514802753925323
1758278380980477700,137.34247778320312,-1.539547085762024,-1.887080192565918,-0.3582809269428253
1758278380990562000,137.35256201171876,-1.842226505279541,-1.8020482063293457,-0.391323834657669
1758278381000647000,137.36264697265625,-2.1567575931549072,-1.570492148399353,-0.4237302243709564
1758278381010731000,137.37273095703125,-2.391440391540528,-1.210135579109192,-0.4185229539871216
1758278381020814800,137.38281494140625,-2.5152690410614014,-0.7613591551780701,-0.3357130289077759
1758278381030900000,137.39289990234374,-2.5214455127716064,-0.2957584261894226,-0.1884668469429016
1758278381040983800,137.40298388671874,-2.4413304328918457,0.1327657699584961,-0.0264635644853115
1758278381051068000,137.41306787109374,-2.318794012069702,0.4708732366561889,0.1094769611954689
1758278381061153000,137.42315307617187,-2.185973644256592,0.7085611820220947,0.2108278125524521
1758278381071236900,137.43323681640624,-2.0741658210754395,0.8650059103965759,0.3000200092792511
1758278381081321000,137.44332104492187,-2.0054636001586914,0.9327601790428162,0.3685620427131653
1758278381091405800,137.45340576171876,-1.9823601245880127,0.875313401222229,0.4116218984127044
1758278381101489700,137.46348974609376,-1.9999098777771,0.6990680694580078,0.4448003768920898
1758278381111574800,137.47357470703125,-2.047160625457764,0.4299380481243133,0.4661887288093567
1758278381121659000,137.48365893554688,-2.1104743480682373,0.0766425803303718,0.4713004231452942
1758278381131743000,137.49374291992189,-2.1824071407318115,-0.339369535446167,0.4577054977416992
1758278381141827800,137.50382788085938,-2.251801013946533,-0.7546564936637878,0.4277524054050445
1758278381151912000,137.51391186523438,-2.30808162689209,-1.1026363372802734,0.4087475538253784
1758278381161995800,137.52399584960938,-2.344273567199707,-1.3796145915985107,0.3886556029319763
1758278381172081000,137.53408081054687,-2.3549163341522217,-1.5917085409164429,0.3834392726421356
1758278381182165000,137.5441650390625,-2.3595495223999023,-1.7579206228256226,0.3802197575569153
1758278381192248800,137.55424877929687,-2.371697902679444,-1.8800913095474243,0.3840147852897644
1758278381202334000,137.564333984375,-2.387235403060913,-1.9397990703582764,0.365745484828949
1758278381212417800,137.57441772460936,-2.412243366241455,-1.945353984832764,0.3438377976417541
1758278381222502000,137.584501953125,-2.439964771270752,-1.8959728479385376,0.2968069016933441
1758278381232586800,137.59458666992188,-2.465848684310913,-1.806651711463928,0.2399982213973999
1758278381242671000,137.60467114257813,-2.493496894836426,-1.7136168479919434,0.1850329637527465
1758278381252756000,137.614755859375,-2.4998788833618164,-1.6856019496917725,0.1342169195413589
1758278381262839800,137.62483984375,-2.488833427429199,-1.7910799980163574,0.0613347291946411
1758278381272924000,137.634923828125,-2.4396486282348637,-2.067513465881348,-0.0620322115719318
1758278381283008800,137.6450087890625,-2.360684871673584,-2.4880406856536865,-0.231753334403038
1758278381293092400,137.65509228515626,-2.258317470550537,-3.0419979095458984,-0.4020489156246185
1758278381303176400,137.66517651367187,-2.174192428588867,-3.679588556289673,-0.5646748542785645
1758278381313261300,137.67526123046875,-2.152634859085083,-4.290600299835205,-0.73492830991745
1758278381323345400,137.6853454589844,-2.200206756591797,-4.786221504211426,-0.8967824578285217
1758278381333429200,137.69542919921875,-2.271814346313477,-5.135091304779053,-1.0380690097808838
1758278381343514000,137.70551416015624,-2.310740232467652,-5.334993362426758,-1.1314996480941772
1758278381353598500,137.71559838867188,-2.270224332809448,-5.365071296691895,-1.1837735176086426
1758278381363682300,137.72568237304688,-2.1223955154418945,-5.23317813873291,-1.2087877988815308
1758278381373767400,137.73576733398437,-1.899027943611145,-4.93247127532959,-1.2039791345596311
1758278381383851300,137.74585131835937,-1.6515140533447266,-4.484842300415039,-1.169469714164734
1758278381393935000,137.75593505859376,-1.416715383529663,-3.893270492553711,-1.094382882118225
1758278381404020200,137.76602026367186,-1.2061432600021362,-3.1946518421173096,-0.9839943647384644
1758278381414104300,137.77610424804686,-1.037466049194336,-2.44743013381958,-0.8501467704772949
1758278381424189400,137.786189453125,-0.8926391005516052,-1.7133904695510864,-0.6947028636932373
1758278381434273300,137.79627319335938,-0.7593896985054016,-1.038426637649536,-0.5079960823059082
1758278381444357400,137.806357421875,-0.6236398816108704,-0.4337189495563507,-0.3047274053096771
1758278381454442200,137.81644213867187,-0.4680494964122772,0.0647787302732467,-0.1043724790215492
1758278381464526300,137.8265263671875,-0.2721063494682312,0.4372330009937286,0.0880001634359359
1758278381474610400,137.8366103515625,-0.036341231316328,0.6572121977806091,0.2729436457157135
1758278381484695300,137.8466953125,0.2028298079967498,0.7399385571479797,0.4460933208465576
1758278381494779400,137.856779296875,0.4078269004821777,0.7330909967422485,0.6046009659767151
1758278381504863200,137.86686328125,0.5589935183525085,0.6722502708435059,0.7337152361869812
1758278381514948400,137.8769482421875,0.6565909385681152,0.5844570398330688,0.8464508652687073
1758278381525032200,137.8870322265625,0.7012467980384827,0.4876189231872558,0.9389885067939758
1758278381535116300,137.8971162109375,0.7257508039474487,0.4207964837551117,1.0098541975021362
1758278381545201400,137.90720141601562,0.7359986305236816,0.418342113494873,1.052302598953247
1758278381555285200,137.91728515625,0.7558173537254333,0.4913550913333893,1.076676368713379
1758278381565370400,137.92737036132812,0.7960087060928345,0.6484794616699219,1.0965882539749146
1758278381575454200,137.9374541015625,0.8716363906860352,0.8907386660575867,1.1209162473678589
1758278381585538300,137.94753833007812,0.9941710829734802,1.2062007188796997,1.1667438745498655
1758278381595623200,137.957623046875,1.171885967254639,1.5974407196044922,1.233789563179016
1758278381605707500,137.96770751953125,1.4042435884475708,2.0509257316589355,1.3302435874938965
1758278381615791400,137.97779125976564,1.6875990629196167,2.554676055908203,1.461997151374817
1758278381625876500,137.98787646484374,1.9992879629135127,3.075606346130371,1.5987714529037476
1758278381635960300,137.99796020507813,2.299323081970215,3.562686920166016,1.6983132362365725
1758278381646044200,138.00804418945313,2.554939031600952,3.976072311401367,1.7418851852416992
1758278381656129300,138.01812939453126,2.749228239059448,4.269932746887207,1.7275803089141846
1758278381666213400,138.02821337890626,2.897254705429077,4.421087265014648,1.6782106161117554
1758278381676297500,138.03829736328126,3.001386404037476,4.436662673950195,1.5808007717132568
1758278381686382300,138.04838232421875,3.081737279891968,4.31773042678833,1.436804175376892
1758278381696466200,138.0584660644531,3.1391735076904297,4.066245079040527,1.2703735828399658
1758278381706550300,138.06855029296875,3.1762819290161133,3.7424612045288086,1.1397490501403809
1758278381716635100,138.07863525390624,3.203032970428467,3.385218858718872,1.0236499309539795
1758278381726719500,138.08871948242188,3.198406457901001,3.026177406311035,0.909240186214447
1758278381736804400,138.09880444335937,3.162004947662353,2.7004966735839844,0.7961874008178711
1758278381746888400,138.10888842773437,3.083436965942383,2.434657573699951,0.688827395439148
1758278381756972300,138.11897216796876,2.9769415855407715,2.2478621006011963,0.5889862775802612
1758278381767057400,138.12905737304686,2.8542699813842773,2.119012355804444,0.4901140630245209
1758278381777141200,138.13914135742186,2.735363245010376,2.004868507385254,0.3762556612491607
1758278381787225300,138.14922534179686,2.6215198040008545,1.9053471088409424,0.2569681406021118
1758278381797310500,138.159310546875,2.522002458572388,1.772810935974121,0.1346201300621032
1758278381807394300,138.16939428710938,2.4416158199310303,1.6161954402923584,0.0180620905011892
1758278381817478400,138.179478515625,2.3779046535491943,1.5346708297729492,-0.0674259141087532
1758278381827563300,138.18956323242188,2.326540470123291,1.5231560468673706,-0.1354595571756363
1758278381837647000,138.19964721679688,2.2935800552368164,1.4943643808364868,-0.2180577665567398
1758278381847731500,138.2097314453125,2.261561632156372,1.4170246124267578,-0.294236958026886
1758278381857816300,138.21981640625,2.220668077468872,1.3107069730758667,-0.3496650457382202
1758278381867900400,138.229900390625,2.183387756347656,1.202062964439392,-0.3925307691097259
1758278381877984300,138.239984375,2.1550302505493164,1.1607869863510132,-0.4298650920391083
1758278381888069400,138.2500693359375,2.1395792961120605,1.171680569648743,-0.4571276009082794
1758278381898153200,138.2601533203125,2.107322931289673,1.1340813636779783,-0.4917114078998565
1758278381908238300,138.27023828125,2.060596227645874,1.0724607706069946,-0.5304753184318542
1758278381918322400,138.28032250976565,1.9958258867263796,1.0477559566497805,-0.5608201622962952
1758278381928406300,138.29040625,1.898431658744812,0.9706244468688964,-0.5823579430580139
1758278381938491400,138.30049145507812,1.7426601648330688,0.829135537147522,-0.6102873086929321
1758278381948575200,138.3105751953125,1.5454353094100952,0.7241433262825012,-0.6144341230392456
1758278381958659300,138.32065942382812,1.3231929540634155,0.6275891065597534,-0.592658519744873
1758278381968744200,138.330744140625,1.1007840633392334,0.5252707004547119,-0.5286670327186584
1758278381978828500,138.34082861328125,0.9104772210121156,0.4094746112823486,-0.4276602566242218
1758278381988912400,138.35091235351564,0.6805372834205627,0.2501605749130249,-0.3837649822235107
1758278381998997200,138.36099731445313,0.3532054722309112,-0.0105261439457535,-0.409375786781311
1758278382009081300,138.37108129882813,-0.042952261865139,-0.3053487241268158,-0.5034724473953247
1758278382019165200,138.38116528320313,-0.4515389502048492,-0.5754462480545044,-0.519813060760498
1758278382029250300,138.39125024414062,-0.808585524559021,-0.8524600267410278,-0.3910109102725982
1758278382039334400,138.40133447265626,-1.080397605895996,-1.1034488677978516,-0.2439173310995102
1758278382049418200,138.41141821289062,-1.2555203437805176,-1.3492701053619385,-0.1310075521469116
1758278382059503400,138.42150341796875,-1.3469361066818235,-1.5896391868591309,-0.1007953211665153
1758278382069587200,138.43158715820311,-1.392805576324463,-1.8097678422927856,-0.1705906391143798
1758278382079671300,138.44167138671875,-1.4241725206375122,-1.972521424293518,-0.2374322563409805
1758278382089756200,138.45175610351563,-1.4746687412261963,-1.9734870195388796,-0.2453818023204803
1758278382099840500,138.46184057617188,-1.5792070627212524,-1.81003737449646,-0.2073124349117279
1758278382109925400,138.47192529296876,-1.7398489713668823,-1.5302855968475342,-0.1946091651916504
1758278382120009500,138.48200952148437,-1.922174096107483,-1.2088439464569092,-0.2114573866128921
1758278382130093300,138.49209326171874,-2.071928739547729,-0.8708805441856384,-0.2260381877422332
1758278382140178200,138.50217822265626,-2.157230854034424,-0.5287072658538818,-0.1974430382251739
1758278382150262300,138.51226220703126,-2.1765296459198,-0.2128475606441497,-0.1512441188097
1758278382160346400,138.52234643554686,-2.1345374584198,0.0320681892335414,-0.0976186990737915
1758278382170431500,138.53243139648438,-2.032416343688965,0.1782650798559188,-0.0518991500139236
1758278382180515300,138.54251538085938,-1.8658578395843504,0.2193270325660705,-0.0277687795460224
1758278382190599200,138.55259912109375,-1.6579149961471558,0.1666965782642364,-0.0433184467256069
1758278382200684300,138.56268432617188,-1.4382377862930298,0.0288761220872402,-0.0911623984575271
1758278382210768100,138.57276806640624,-1.247424602508545,-0.2624931335449219,-0.1898863166570663
1758278382220852500,138.5828525390625,-1.1289498805999756,-0.71690434217453,-0.3133387565612793
1758278382230937300,138.59293725585937,-1.1142388582229614,-1.2367136478424072,-0.4405033588409424
1758278382241021400,138.603021484375,-1.2120466232299805,-1.752497911453247,-0.553654134273529
1758278382251105300,138.61310522460937,-1.380468726158142,-2.1635544300079346,-0.6564492583274841
1758278382261190400,138.6231904296875,-1.5880661010742188,-2.4006457328796387,-0.7025661468505859
1758278382271274200,138.63327416992186,-1.7958496809005735,-2.462515592575073,-0.6855471730232239
1758278382281359000,138.64335913085938,-1.9862207174301147,-2.391266345977783,-0.6208531260490417
1758278382291443500,138.653443359375,-2.1447131633758545,-2.2086665630340576,-0.5397870540618896
1758278382301527300,138.66352734375,-2.268696546554565,-1.9391207695007324,-0.4816350638866424
1758278382311612200,138.67361206054687,-2.3840019702911377,-1.6216213703155518,-0.4689445793628692
1758278382321696000,138.68369604492187,-2.495195150375366,-1.2853965759277344,-0.5130153894424438
1758278382331780000,138.69378002929687,-2.6135616302490234,-0.9804856181144714,-0.5881572365760803
1758278382341865000,138.70386499023436,-2.719939947128296,-0.8102587461471558,-0.7066718935966492
1758278382351949300,138.71394921875,-2.774403810501098,-0.8066107630729675,-0.855294942855835
1758278382362033200,138.724033203125,-2.762185573577881,-0.9987322688102722,-0.991869330406189
1758278382372118300,138.7341181640625,-2.712411642074585,-1.3963731527328491,-1.0853774547576904
1758278382382202000,138.7442021484375,-2.6744182109832764,-1.8899489641189573,-1.1610910892486572
1758278382392286000,138.7542858886719,-2.67269229888916,-2.378068447113037,-1.2261558771133425
1758278382402371000,138.76437109375,-2.709460020065308,-2.78736424446106,-1.2869949340820312
1758278382412455200,138.774455078125,-2.759099006652832,-3.129730463027954,-1.3374919891357422
1758278382422539300,138.78453930664062,-2.770958185195923,-3.3577585220336914,-1.369863510131836
1758278382432624000,138.7946240234375,-2.7086665630340576,-3.476395845413208,-1.380872130393982
1758278382442708200,138.80470825195312,-2.603864908218384,-3.5782506465911865,-1.3986541032791138
1758278382452792000,138.8147919921875,-2.491206645965576,-3.5949063301086426,-1.441820502281189
1758278382462877000,138.824876953125,-2.4072060585021973,-3.472052574157715,-1.4747313261032104
1758278382472961300,138.83496118164064,-2.3520843982696533,-3.2819626331329346,-1.4996541738510132
1758278382483045000,138.84504516601564,-2.287916421890259,-3.071686029434204,-1.479467749595642
1758278382493130200,138.85513012695313,-2.216487169265747,-2.8329548835754395,-1.4161449670791626
1758278382503214000,138.86521411132813,-2.090575933456421,-2.610051393508911,-1.320653796195984
1758278382513299200,138.87529931640626,-1.912007451057434,-2.456556558609009,-1.1962482929229736
1758278382523383000,138.88538305664062,-1.683288812637329,-2.405733823776245,-1.0451490879058838
1758278382533467100,138.89546704101562,-1.423011064529419,-2.3922839164733887,-0.9052079319953918
1758278382543552300,138.90555224609375,-1.1496953964233398,-2.368173837661743,-0.7868671417236328
1758278382553636000,138.9156359863281,-0.921778917312622,-2.311971664428711,-0.6944488286972046
1758278382563720200,138.92572021484375,-0.7237718105316162,-2.2186198234558105,-0.6011937260627747
1758278382573805000,138.93580517578124,-0.5328575372695923,-2.1155552864074707,-0.4902152419090271
1758278382583889200,138.94588916015624,-0.3418201804161072,-2.015456438064575,-0.3531111776828766
1758278382593973200,138.95597314453124,-0.1465974301099777,-1.9128657579422,-0.2038394063711166
1758278382604058400,138.96605834960937,0.0360014103353023,-1.8231651782989504,-0.0741900727152824
1758278382614142200,138.97614208984376,0.1911137700080871,-1.7365461587905884,0.039966057986021
1758278382624226000,138.98622607421876,0.282724916934967,-1.6023273468017578,0.1401272863149643
1758278382634311200,138.99631127929686,0.2934483885765075,-1.3746232986450195,0.2465996593236923
1758278382644395000,139.00639501953123,0.2501592338085174,-1.0435301065444946,0.3784128129482269
1758278382654479400,139.01647924804686,0.1935644000768661,-0.6178163290023804,0.5390975475311279
1758278382664564200,139.02656420898438,0.1694281697273254,-0.1461564153432846,0.7167626619338989
1758278382674648000,139.03664794921875,0.1989085674285888,0.3312543630599975,0.8746145963668823
1758278382684732200,139.04673217773438,0.2752424776554107,0.8028128147125244,1.0086631774902344
1758278382694817000,139.05681713867187,0.3884659707546234,1.258855938911438,1.1071993112564087
1758278382704901000,139.06690112304688,0.5105921626091003,1.6917482614517212,1.183297634124756
1758278382714985200,139.07698510742188,0.6380249261856079,2.095843315124512,1.23725163936615
1758278382725070300,139.0870703125,0.7610286474227905,2.4740779399871826,1.2894080877304075
1758278382735154200,139.097154296875,0.8839257955551147,2.814300060272217,1.3524363040924072
1758278382745239300,139.1072392578125,1.0223454236984253,3.135106086730957,1.4249347448349
1758278382755323100,139.1173232421875,1.1818634271621704,3.4338934421539307,1.511995792388916
1758278382765407000,139.1274069824219,1.3748347759246826,3.723902940750122,1.602766513824463
1758278382775492000,139.1374921875,1.5950944423675537,4.012788772583008,1.6791174411773682
1758278382785576200,139.147576171875,1.832354187965393,4.294522285461426,1.7403666973114014
1758278382795660300,139.15766040039065,2.074610948562622,4.55927848815918,1.7605979442596436
1758278382805745200,139.1677451171875,2.314370632171631,4.783120155334473,1.734933376312256
1758278382815829000,139.1778291015625,2.5453364849090576,4.9465861320495605,1.6666929721832275
1758278382825913000,139.1879130859375,2.765089273452759,5.019695281982422,1.565390944480896
1758278382835998000,139.197998046875,2.961040735244751,4.991175174713135,1.438830018043518
1758278382846082300,139.20808227539064,3.112405300140381,4.8601579666137695,1.3014873266220093
1758278382856166100,139.21816625976564,3.1966748237609863,4.619479656219482,1.1531620025634766
1758278382866251300,139.22825122070313,3.216358423233032,4.317953586578369,0.9986489415168762
1758278382876335000,139.23833520507813,3.184295654296875,3.969604015350342,0.8648043274879456
1758278382886419000,139.2484189453125,3.1132638454437256,3.620904684066773,0.7177889943122864
1758278382896504000,139.25850415039062,3.036283493041992,3.2675552368164062,0.5857511162757874
1758278382906588200,139.26858813476562,2.972983837127685,2.9472150802612305,0.4679056704044342
1758278382916672300,139.27867236328126,2.928706169128418,2.6399145126342773,0.3415155112743377
1758278382926757000,139.2887570800781,2.8876795768737797,2.345926284790039,0.2149115055799484
1758278382936841200,139.29884130859375,2.841371297836304,2.073245048522949,0.0913325771689415
1758278382946926000,139.30892602539063,2.7812302112579346,1.827295184135437,-0.0226816106587648
1758278382957010000,139.31901000976563,2.7232227325439453,1.5882503986358645,-0.1182243749499321
1758278382967094300,139.32909423828124,2.666297435760498,1.3580046892166138,-0.199027881026268
1758278382977179100,139.33917919921876,2.614745855331421,1.1669715642929075,-0.2704786360263824
1758278382987263200,139.34926318359376,2.576425313949585,1.0175917148590088,-0.3280332684516907
1758278382997347000,139.35934716796876,2.5354325771331787,0.8807105422019958,-0.3789326548576355
1758278383007432200,139.36943212890623,2.485860586166382,0.7819197773933411,-0.421821266412735
1758278383017516000,139.37951611328126,2.424898624420166,0.6887578964233398,-0.4528156816959381
1758278383027600100,139.38960009765626,2.3604865074157715,0.6196006536483765,-0.4745393395423889
1758278383037685200,139.39968530273438,2.3021047115325928,0.572559118270874,-0.4601010084152221
1758278383047769000,139.40976904296875,2.2430548667907715,0.4912906289100647,-0.4274477362632751
1758278383057853200,139.4198532714844,2.165840148925781,0.3560129702091217,-0.373693436384201
1758278383067938000,139.42993798828124,2.066938638687134,0.2566389739513397,-0.3187835812568664
1758278383078022100,139.44002221679688,1.930546998977661,0.2222048342227935,-0.2584704458713531
1758278383088106200,139.45010620117188,1.75615131855011,0.280742198228836,-0.1954464614391327
1758278383098191400,139.46019140625,1.5642420053482056,0.3985327184200287,-0.1166557744145393
1758278383108275200,139.47027514648437,1.3801419734954834,0.48162442445755,-0.030947795137763
1758278383118359000,139.48035913085937,1.2299596071243286,0.5470290184020996,0.0868419557809829
1758278383128444200,139.4904440917969,1.1086137294769287,0.6847490668296814,0.1827344000339508
1758278383138528000,139.50052807617186,0.8920606970787048,0.7819392681121826,0.084040842950344
1758278383148612400,139.5106123046875,0.5421186685562134,0.8027830123901367,-0.0413149483501911
1758278383158697200,139.520697265625,0.1441632956266403,0.7569260597229004,-0.027812723070383
1758278383168781000,139.53078100585938,-0.2832753956317901,0.5840895175933838,0.1455681174993515
1758278383178865200,139.540865234375,-0.6869075298309326,0.1954331398010254,0.3970488309860229
1758278383188950000,139.55094995117187,-0.9541203379631042,-0.2516298294067383,0.5482838749885559
1758278383199034000,139.5610341796875,-1.0214269161224363,-0.5668980479240417,0.5456367135047913
