time,seconds_elapsed,z,y,x
1758280803337918700,52.31035473632812,0.4293102851867675,8.14028564453125,-1.642721614074707
1758280803348003600,52.32043969726563,0.8400655075073241,8.377610884094238,-1.5306430488586424
1758280803358087700,52.33052368164062,1.269076517486572,8.442703241729737,-1.4613608383178711
1758280803368172500,52.340608642578125,1.6141408317565915,8.390629355621337,-1.4992191520690916
1758280803378257700,52.35069360351562,1.8088193542480469,8.387786241149902,-1.5367781906127929
1758280803388342500,52.36077856445312,1.923591396331787,8.674641527557373,-1.492036547088623
1758280803398427600,52.37086376953125,1.992574331665039,9.370007472229004,-1.506102481842041
1758280803408512500,52.38094848632812,1.974168906402588,10.423306565093991,-1.703324843597412
1758280803418597600,52.39103369140625,2.0412065528869627,11.762563118743897,-1.917755529785156
1758280803428682800,52.40111889648438,2.1083938369750976,13.359046713256836,-2.194285821533203
1758280803438767600,52.411203613281245,2.187552129364013,14.853178186798097,-2.513462830352783
1758280803448852700,52.42128881835937,2.084451820373535,16.002095708465575,-2.8932430686950683
1758280803458937600,52.43137353515625,1.81300920715332,16.61785444793701,-3.32015915222168
1758280803469021700,52.44145776367187,1.5679028121948242,16.596456270599365,-3.614346681213379
1758280803479106600,52.451542480468746,1.474379309844971,16.40237629852295,-3.845686416625977
1758280803489191700,52.46162768554687,1.3881880500793455,16.485724443817137,-4.151246403503418
1758280803499276500,52.47171264648437,0.969801309967041,16.717064179229734,-4.632181661987304
1758280803509361700,52.481797607421875,0.3844190040588379,16.678906590270994,-5.001038355255127
1758280803519446500,52.491882568359365,-0.168491941833496,16.384569423675536,-5.436334144592285
1758280803529531600,52.5019677734375,-0.60648120803833,15.768212133789062,-6.02066898727417
1758280803539616500,52.512052490234375,-0.5783493385314941,14.439729487609862,-6.595875936126709
1758280803549701600,52.5221376953125,-0.2373252395629882,12.544868511199953,-6.797886701202392
1758280803559786800,52.53222290039062,-0.2576759536743164,10.82239005432129,-6.548291178131104
1758280803569870000,52.54230615234375,-0.6266822845458984,9.648632690429688,-6.045209554290771
1758280803579955200,52.552391113281246,-0.898274535369873,8.796596174621582,-5.608118113708496
1758280803590040000,52.56247607421875,-0.8863035270690918,8.044966490936279,-5.41388850402832
1758280803600125200,52.57256127929687,-0.7739256866455078,7.432200503540039,-5.402815321350097
1758280803610210300,52.582646240234375,-0.6364087287902832,7.185897007751464,-5.459677610778808
1758280803620295200,52.592731201171866,-0.5455787033081054,7.280467973327636,-5.496039548492432
1758280803630380000,52.60281616210937,-0.4704606262207031,7.592612014770507,-5.522675041961669
1758280803640465000,52.612900878906245,-0.3984849388122558,7.886649906158447,-5.541080467224121
1758280803650550000,52.62298608398438,-0.316633169555664,8.020126648712157,-5.510404758453369
1758280803660635000,52.63307080078125,-0.1873462799072265,7.844751377105712,-5.441122547912597
1758280803670719200,52.6431552734375,-0.0984615432739257,7.372345462036132,-5.16489153137207
1758280803680804000,52.653240234375,-0.0393546897888183,6.8128504615783685,-4.621407754516602
1758280803690889200,52.663325195312495,-0.0196025260925292,6.267421395874023,-3.89461791305542
1758280803700974000,52.67341015625,-0.0947206031799316,5.876119062042236,-3.1658827827453613
1758280803711059200,52.6834951171875,-0.2347814002990722,5.7070285697937,-2.57945301361084
1758280803721144000,52.693580078124995,-0.2787748558044433,5.770474913787841,-2.0403087272644043
1758280803731229200,52.70366528320313,-0.3021183219909668,6.025906303405761,-1.6713023963928222
1758280803741314000,52.71375,-0.1312321784973144,6.335506505584717,-1.626710390472412
1758280803751399200,52.72383520507813,0.2003647514343261,6.500257507324219,-1.719784980010986
1758280803761484000,52.73392016601562,0.5153519073486328,6.3980550239562985,-1.9259855979919436
1758280803771569000,52.7440048828125,0.6329670639038085,6.09728344039917,-2.1829133636474607
1758280803781653200,52.75408935546875,0.4897638771057128,5.715408275604248,-2.344521975708008
1758280803791738000,52.764174072265625,0.1928828712463378,5.3293432579040525,-2.450914311981201
1758280803801823200,52.774259277343745,-0.129586164855957,5.118803149414062,-2.473958502960205
1758280803811908000,52.78434423828125,-0.3265092514038086,5.128828868865966,-2.428618309020996
1758280803821993200,52.79442919921875,-0.4132990615844726,5.334879849243164,-2.2937948280334477
1758280803832078000,52.804514160156245,-0.479438882446289,5.6115597785949705,-2.0745757385253905
1758280803842163200,52.81459912109375,-0.5349544334411621,5.805041200256348,-1.9448399360656736
1758280803852248000,52.82468408203125,-0.6016928047180176,5.902455280303955,-1.894860976409912
1758280803862333200,52.834769287109374,-0.528669654083252,5.928492223358154,-1.9696797782897948
1758280803872418000,52.84485400390625,-0.3375824340820312,5.8732759475708,-2.229151383209228
1758280803882502100,52.854938232421866,-0.1476923149108886,5.753715502166748,-2.6479870361328124
1758280803892587300,52.86502319335937,-0.1156698677062988,5.751770213317871,-3.0940567329406736
1758280803902672100,52.87510815429688,-0.2795230438232421,5.993285305786133,-3.475183709716797
1758280803912757200,52.885193359375,-0.5123591552734374,6.465840858459472,-3.816955996704101
1758280803922842000,52.89527807617187,-0.5337573326110839,7.07980394668579,-4.286518797302246
1758280803932927200,52.90536328125,-0.1107318267822265,7.905504244232177,-4.821622868347168
1758280803943012000,52.9154482421875,0.6169558403015136,9.087042763519287,-5.23492192993164
1758280803953097200,52.925533203125,1.5370774658203123,10.717194818878172,-5.510404758453369
1758280803963182000,52.9356181640625,2.173186919403076,12.590807255554198,-5.444264937591552
1758280803973267200,52.945703125,2.3745991340637205,14.056507584381103,-5.047874925231933
1758280803983351000,52.955787109374995,2.4838345848083496,14.439879125213622,-4.271255761718749
1758280803993436200,52.96587231445313,2.899677485656738,13.935301125335693,-3.369539561462402
1758280804003521000,52.97595703125,3.3852515098571776,13.340342012786865,-2.84760359954834
1758280804013606100,52.98604223632813,3.7933132553100575,13.137433422088622,-2.8386253433227537
1758280804023691300,52.99612719726562,3.915567177581787,13.108403726959228,-3.2103251510620114
1758280804033776000,53.00621215820313,3.8413469261169433,12.792668383026122,-3.602525310516357
1758280804043861200,53.01629736328125,3.6354455833435058,12.146233934783934,-3.90688819656372
1758280804053946000,53.02638208007812,3.346495370483398,11.43455749130249,-4.074931225585937
1758280804064031200,53.03646728515625,2.984522006988525,10.863690032958983,-4.159476471710205
1758280804074116000,53.046552246093746,2.510470078277588,10.53329020385742,-4.306719873809814
1758280804084201200,53.05663720703125,2.0120272201538083,10.397568897247314,-4.484788622283936
1758280804094285000,53.066721191406245,1.5556325286865234,10.35567036819458,-4.604947618103027
1758280804104370200,53.07680615234375,1.1655272956848144,10.312275463104248,-4.655824403381347
1758280804114455000,53.08689111328125,0.8964788841247558,10.204985301208495,-4.644601583099365
1758280804124540200,53.09697607421875,0.7324760704040527,10.126275921630858,-4.491671952056884
1758280804134625000,53.10706103515625,0.6940192062377929,10.02392380065918,-4.179976823425292
1758280804144710100,53.117146240234376,0.6908768165588378,9.815927531433104,-3.7400422683715817
1758280804154795300,53.127231201171874,0.7196072364807129,9.457844745635986,-3.1471780822753903
1758280804164880100,53.13731616210937,0.6813000099182128,9.080757984161377,-2.4244284561157223
1758280804174965200,53.1474013671875,0.5773018753051757,8.77220524520874,-1.6467618293762205
1758280804185050000,53.157486083984374,0.4614823699951171,8.575581433868408,-0.8514379653930664
1758280804195134200,53.1675703125,0.328155265045166,8.418761225128174,-0.1167173309326171
1758280804205219000,53.17765502929687,0.0820014068603515,8.225579078674317,0.5027823486328125
1758280804215304200,53.187740234375,-0.218919814300537,7.939471980285644,0.9145850341796874
1758280804225389000,53.1978251953125,-0.4779425064086914,7.606079399108887,1.1691185981750487
1758280804235474200,53.20791015625,-0.7050923889160156,7.311442957305908,1.271769994354248
1758280804245559000,53.2179951171875,-0.9071031539916992,7.104045238494873,1.2057798110961913
1758280804255644200,53.228080078125,-1.173458088684082,6.987028632354736,1.0408791717529295
1758280804265729000,53.2381650390625,-1.4200608596801756,6.936301484680175,0.7959224143981933
1758280804275814100,53.24825024414062,-1.6174328590393066,7.020397817993164,0.5301660301208496
1758280804285899300,53.258335205078126,-1.702726293182373,7.197119828033447,0.3001730331420898
1758280804295983000,53.26841918945313,-1.671452033996582,7.460033097839355,0.1035492218017578
1758280804306068200,53.278504150390624,-1.5936404800415038,7.785494886016846,-0.043394905090332
1758280804316153000,53.28858911132812,-1.4405612113952635,8.110657398986817,-0.1910872200012207
1758280804326238200,53.29867431640625,-1.282693539428711,8.457667002105712,-0.3259107009887695
1758280804336323000,53.30875903320313,-1.2294225524902342,8.846275859069824,-0.3504512680053711
1758280804346408200,53.31884423828125,-1.401356159210205,9.30237127532959,-0.3604769874572753
1758280804356493000,53.32892919921875,-1.7221791816711425,9.820267021942138,-0.4156932632446289
1758280804366578200,53.339014160156246,-2.11961665725708,10.366593913269044,-0.5168482833862305
1758280804376663000,53.34909912109375,-2.292747364807129,10.857105978393554,-0.739957950592041
1758280804386748200,53.35918408203125,-2.2330419609069825,11.125106926727296,-1.0972925483703613
1758280804396833300,53.369269287109375,-1.9680337646484372,11.099967809295654,-1.3949217422485352
1758280804406917000,53.379353271484376,-1.6250643768310546,10.715099892425537,-1.5508441253662109
1758280804417002000,53.38943798828125,-0.9395745140075684,10.019434672546389,-1.5409680435180664
1758280804427087000,53.39952319335937,-0.2980781066894531,9.553014261627196,-1.330427935028076
1758280804437172200,53.409608154296876,-0.1101332763671874,9.381080654907226,-1.0720037933349609
1758280804447257000,53.419693115234374,-0.0855927093505859,9.44826793899536,-0.8764274452209472
1758280804457342200,53.4297783203125,-0.043993455505371,9.78674819869995,-0.835726016998291
1758280804467427000,53.439863037109376,0.1113303771972656,10.478223565673828,-1.1022305892944335
1758280804477512200,53.449948242187496,0.369604881286621,11.435754592132568,-1.5773299812316894
1758280804487597000,53.460033203125,0.9760860893249512,12.445958055114746,-2.0458453186035155
1758280804497682200,53.4701181640625,1.9901801300048827,13.3056260887146,-2.575861711120605
1758280804507766000,53.4802021484375,3.2344168052673337,13.973309076690674,-3.143137866973877
1758280804517851100,53.490287109375,3.938312093353271,14.330344399261474,-3.520523903656006
1758280804527936000,53.5003720703125,3.864391117095947,14.40336754989624,-3.630208267211914
1758280804538021000,53.51045727539062,3.347243558502197,14.330643674468991,-3.5871126373291014
1758280804548106000,53.520541992187496,2.7263971405029297,14.278569788360596,-3.465606903076172
1758280804558191000,53.53062719726562,2.173486194610596,14.357578443145751,-3.425354387664795
1758280804568276200,53.54071215820312,1.7334020019531249,14.25627378540039,-3.4932898597717283
1758280804578361000,53.550797119140626,1.721131718444824,13.816937780761718,-3.67749375
1758280804588446200,53.560882324218746,1.9279308868408205,13.23439858932495,-3.861847277832031
1758280804598531000,53.57096704101562,1.9424457344055173,12.997671900177002,-3.785232824707031
1758280804608616200,53.58105224609375,1.541117681121826,13.577218339538572,-3.347093920898437
1758280804618700000,53.591135986328126,0.5746083984375,14.34605634765625,-2.895038719940185
1758280804628785200,53.601221191406246,-0.712424631500244,14.376582418823242,-2.6259903083801266
1758280804638870000,53.61130615234375,-1.654094071960449,13.99470725402832,-2.673126153564453
1758280804648955100,53.62139111328125,-1.874510262298584,13.46992817764282,-3.1165023735046384
1758280804659040300,53.631476318359375,-1.6115969924926756,12.415731259155272,-4.029291756439209
1758280804669125000,53.64156103515625,-1.3067851936340331,10.73859299621582,-5.180603479766845
1758280804679210200,53.65164624023437,-1.1924620643615722,8.908674739837647,-6.165218912506103
1758280804689295000,53.661731201171875,-0.9757868141174316,7.240814008331299,-6.849661312103272
1758280804699380200,53.671816162109366,-0.6956652198791503,5.9211599807739255,-7.220463294219971
1758280804709465000,53.68190112304687,-0.5844844802856445,5.141398427581787,-7.166144844055175
1758280804719550200,53.691986328125,-0.5574000740051269,4.953004684448242,-6.628945846557617
1758280804729634000,53.702070068359376,-0.6610989334106445,5.396680179595947,-5.887192244720459
1758280804739719200,53.712155273437496,-0.8708908538818358,6.424690517425537,-5.118503874206542
1758280804749804000,53.72223999023437,-1.300500414276123,7.519139951324463,-4.523544761657715
1758280804759889200,53.7323251953125,-1.7767969070434568,8.445845631408691,-4.408174169158936
1758280804769974000,53.742410156249996,-1.6840215927124025,8.93770443496704,-4.926818103790283
1758280804780059100,53.7524951171875,-0.958279214477539,8.757540760040282,-5.884349130249023
1758280804790144300,53.76258032226562,-0.2880523872375488,8.117540728759765,-6.967126831054687
1758280804800229000,53.772665039062495,-0.1734299827575683,7.475894683837891,-7.623287723541259
1758280804810314200,53.782750244140615,-0.5547065971374512,7.109282554626464,-7.559392466735839
1758280804820399000,53.79283520507812,-1.04701431350708,7.035062303161621,-6.852205151367187
1758280804830483200,53.80291918945312,-1.411531516265869,7.034763027954101,-5.920711067962646
1758280804840568000,53.813004150390626,-1.34060329208374,6.842628344726562,-5.12044916305542
1758280804850653200,53.82308911132813,-1.0128969398498535,6.40329234008789,-4.589834220123291
1758280804860738000,53.83317407226562,-0.7953238639831542,6.020968262481689,-4.243123892211914
1758280804870823200,53.84325927734375,-0.6821978355407714,5.93133533782959,-3.9772178703308105
1758280804880908000,53.853343994140616,-0.4848258361816406,5.972036766052246,-3.749469437408447
1758280804890993200,53.86342919921875,-0.2599205177307129,6.222829389953613,-3.5072061569213866
1758280804901078300,53.87351440429687,-0.0839466957092285,6.543203499603271,-3.1465795318603518
1758280804911163100,53.883599121093745,0.1686415794372558,6.682067195892333,-2.6414029815673827
1758280804921248300,53.893684326171865,0.5363011718749999,6.544999150848389,-2.042254016113281
1758280804931333000,53.90376904296875,0.843357534790039,6.169109490203857,-1.3949217422485352
1758280804941417200,53.91385327148437,1.0574889457702636,5.608417388916015,-0.7820061172485351
1758280804951502000,53.923938232421875,1.061828436279297,5.111021994018555,-0.3495534423828125
1758280804961587200,53.934023193359366,0.8559270935058593,4.802319617462158,-0.0579097526550293
1758280804971672000,53.94410815429687,0.636558366394043,4.891653266906738,0.1858499038696289
1758280804981757200,53.954193115234375,0.4495113616943359,5.223399834442138,0.5113116920471191
1758280804991842000,53.964278076171865,0.3847182792663574,5.569212336730956,0.8339303657531738
1758280805001927200,53.97436328125,0.4710591766357421,5.806986489105224,0.9701005851745604
1758280805012012000,53.98444799804688,0.5777507881164551,5.95662409286499,0.87463179397583
1758280805022097200,53.994533203125,0.6346130775451659,6.143970372772216,0.5264250900268554
1758280805032182300,54.00461840820312,0.6575076309204101,6.53766690826416,0.0372597633361816
1758280805042266000,54.0147021484375,0.6579565437316894,7.117063710021972,-0.5363011718749999
1758280805052351000,54.024787109375,0.7065887649536132,7.880514764404296,-1.1614870803833006
1758280805062436000,54.034872070312495,0.8011597305297851,8.77863966217041,-1.9211971946716304
1758280805072521200,54.044957275390615,0.9380781379699706,9.58967547454834,-2.794182975006103
1758280805082606000,54.05504223632812,1.113004496765137,10.204835663604737,-3.769371238708496
1758280805092691200,54.065127197265625,1.459415549468994,10.608707556152345,-4.696974744415283
1758280805102776000,54.07521215820313,1.8840870689392089,10.867580610656738,-5.350591797637939
1758280805112861200,54.08529711914063,2.283320195770264,11.06989065093994,-5.502473965454101
1758280805122946000,54.09538208007813,2.6212019050598143,11.200225003814696,-5.102492650604248
1758280805133031200,54.10546728515625,2.8549358421325683,11.318737985992431,-4.456956027984619
1758280805143116000,54.11555200195313,3.041533934020996,11.406126346588136,-3.916165727996826
1758280805153200000,54.12563623046875,3.329885596466064,11.550676271820068,-3.552845626068115
1758280805163285000,54.135720947265625,3.6360441337585447,11.764807682800292,-3.285592865753173
1758280805173370000,54.145806152343745,3.8711248092651367,11.885116316223144,-3.1673791587829587
1758280805183455200,54.155891357421865,3.880851253509521,11.891101820373535,-3.191470812988281
1758280805193540000,54.16597607421875,3.734056764221191,11.813739179229737,-3.306392492675781
1758280805203625200,54.17606127929688,3.3643022453308102,11.70210952682495,-3.4243069244384765
1758280805213710000,54.18614599609375,2.9492075325012204,11.857882272338866,-3.483413777923584
1758280805223795200,54.19623120117188,2.476502342224121,12.304251244354248,-3.743932846069336
1758280805233880000,54.206316162109374,1.952920366668701,13.104962062072753,-4.351760792541504
1758280805243965200,54.21640112304687,1.4438532386779783,14.127735083770752,-5.374982727050781
1758280805254049000,54.226485107421865,0.9138368461608888,14.800954663085935,-6.712443629455566
1758280805264134100,54.23657006835937,0.1933317840576171,14.672715236663818,-8.11469761428833
1758280805274219000,54.24665502929688,-0.5587468124389648,13.529633581542967,-9.030629386901856
1758280805284304100,54.256740234375,-1.1113584831237793,11.5940711769104,-9.140014475250243
1758280805294389000,54.26682495117187,-1.555333253479004,9.758167416381836,-8.475174601745605
1758280805304474000,54.27691015625,-1.956362031555176,8.643067993164061,-7.304709265136719
1758280805314559200,54.28699536132813,-2.365321602630615,8.093748349761963,-5.959916120147705
1758280805324644000,54.297080078125,-2.6081834335327145,7.749881136322021,-4.751592469787598
1758280805334729200,54.307165283203126,-2.782660879516601,7.43788673248291,-3.802291511535645
1758280805344814000,54.31725,-2.8483517875671387,7.20160895614624,-3.01983648147583
1758280805354899200,54.32733520507812,-2.726546778106689,7.13112964477539,-2.382081014251709
1758280805364983000,54.33741918945313,-2.4979005195617674,7.1954738143920896,-1.828571517944336
1758280805375068200,54.34750415039063,-2.195632559967041,7.364713944244384,-1.269675067901611
1758280805385153000,54.35758911132813,-1.8460791175842284,7.657704372406005,-0.7088333290100097
1758280805395238100,54.36767407226562,-1.419761584472656,8.013093681335448,-0.0622492431640624
1758280805405323000,54.37775903320313,-0.9274538681030272,8.299799330139159,0.6187514915466308
1758280805415408000,54.38784423828125,-0.5596446380615234,8.388085516357421,1.167622222137451
1758280805425493000,54.39792895507812,-0.3110965782165527,8.457068451690674,1.5402198554992674
1758280805435578000,54.40801416015625,-0.2959831802368164,8.709806364440917,1.762730972290039
1758280805445663200,54.418099365234376,-0.4936544548034667,9.324667278289796,1.7961001579284668
1758280805455748000,54.42818408203125,-0.8406640579223632,10.225635290527345,1.7362451164245605
1758280805465832000,54.43826806640625,-1.327285545349121,11.231349625396728,1.7525556152343749
1758280805475917000,54.44835302734375,-1.860893240356445,12.076353173828124,1.8671780197143557
1758280805486002200,54.45843823242188,-2.2987328689575195,12.371139253234862,2.0642507438659665
1758280805496087000,54.468523193359374,-2.5287258659362792,11.978340543365478,2.1371242568969726
1758280805506172200,54.47860815429687,-2.5549124465942383,11.219677892303466,2.0120272201538083
1758280805516257000,54.488693115234376,-2.5296236915588377,10.531344915008544,1.6448165405273436
1758280805526342100,54.498778076171874,-2.5139117431640625,10.096198763275146,0.939724151611328
1758280805536427000,54.50886303710937,-2.5954642372131347,9.86291373901367,0.1943792472839355
1758280805546512100,54.5189482421875,-2.711433380126953,9.596858079528808,-0.6986579719543456
1758280805556597000,54.529032958984374,-2.710236279296875,9.260323108673097,-1.647958930206299
1758280805566682400,54.53911840820313,-2.559251937103271,8.853009551239014,-2.5472809288024902
1758280805576766200,54.5492021484375,-2.278531792449951,8.316109828948974,-3.2499791160583493
1758280805586851000,54.559287109375,-1.9186533554077148,7.715464487457275,-3.611503566741943
1758280805596936200,54.569372314453126,-1.6117466300964354,7.213579964447021,-3.6768951995849606
1758280805607021300,54.579457275390624,-1.4329296936035156,6.962039152526855,-3.4796728378295896
1758280805617106200,54.58954223632812,-1.3069348312377929,6.95874712524414,-3.1196447631835937
1758280805627191300,54.59962744140625,-1.1911153259277345,7.198616204071045,-2.6951228813171384
1758280805637276200,54.60971215820313,-1.0568903953552244,7.654113069915771,-2.222866603851318
1758280805647361300,54.61979736328125,-0.9720458740234376,8.131606663513184,-1.7432780838012694
1758280805657446100,54.629882080078126,-0.9029133010864258,8.547748839569092,-1.3215993164062498
1758280805667531300,54.639967285156246,-0.8113350875854491,8.953117108154297,-0.9753379013061524
1758280805677615000,54.650051025390624,-0.619948592376709,9.440636421203612,-0.7351695472717285
1758280805687700200,54.66013623046875,-0.4282628219604492,9.897779300689695,-0.5765536872863769
1758280805697785000,54.67022119140625,-0.2130839477539062,10.251223320770263,-0.5530605834960938
1758280805707870200,54.680306152343746,0.0351648368835449,10.41791961135864,-0.5596446380615234
1758280805717955300,54.69039135742187,0.229843359375,10.302549018859862,-0.5774515129089355
1758280805728040200,54.70047631835937,0.3468599655151367,10.039486111450197,-0.4936544548034667
1758280805738125300,54.710561279296876,0.3546411209106445,9.728988083648682,-0.4207809417724609
1758280805748210200,54.72064624023437,0.2699462371826172,9.438092581939696,-0.4947019180297851
1758280805758295300,54.7307314453125,0.1358709442138671,9.311948081970217,-0.6866869636535644
1758280805768380200,54.740816162109375,-0.055515550994873,9.386617246246338,-0.9777321029663084
1758280805778465300,54.750901367187495,-0.225952781677246,9.635165306091308,-1.2931681716918944
1758280805788549000,54.760985107421874,-0.3107973030090332,9.905410818481444,-1.5806220085144045
1758280805798634200,54.7710703125,-0.2624643569946289,10.070161820220946,-1.8044798637390136
1758280805808719000,54.781155029296876,-0.0442927307128906,10.283395405578611,-2.018611274719238
1758280805818804200,54.791240234374996,0.3375824340820312,10.571298155212402,-2.3765444229125974
1758280805828889000,54.8013251953125,0.9560346504211426,10.860996556091308,-2.972700636291504
1758280805838974200,54.81141015625,1.6925509361267088,10.949432379913327,-3.753659290313721
1758280805849059300,54.821495361328125,2.3950994857788084,10.630704283905027,-4.516212519073486
1758280805859144200,54.83158032226562,2.9212253005981443,10.303147569274902,-4.823867432403564
1758280805869229300,54.84166528320312,2.952499559783935,10.325293934631349,-4.853046765136718
1758280805879314200,54.851750244140625,2.8229133949279785,10.754903495025632,-4.782118540954589
1758280805889398300,54.861834228515626,2.717568521881103,11.347468405914306,-4.608538920593261
1758280805899483100,54.87191918945313,2.597259888458252,11.88810906829834,-4.371213681030273
1758280805909568300,54.88200439453125,2.5354595581054684,12.151620888519286,-4.086902233886718
1758280805919653000,54.892089111328126,2.549525492858886,11.774234851837155,-3.808127378082275
1758280805929738200,54.902174316406246,2.675370717620849,10.728268001556396,-3.6764462867736816
1758280805939823000,54.91225903320312,2.983923456573486,9.431358889770507,-3.641281449890137
1758280805949908200,54.92234423828125,3.202543995666504,8.221538863372801,-3.5773861930847164
1758280805959993000,54.932429199218745,3.0843302886962887,7.084293074798584,-3.441664886474609
1758280805970078200,54.94251416015625,2.6247932075500486,6.096086339569092,-3.2870892417907718
1758280805980163300,54.95259936523437,2.006640266418457,5.273977344512939,-3.129520845031738
1758280805990247200,54.96268310546875,1.4432546882629391,4.691288515472412,-2.9637223800659176
1758280806000332300,54.972768310546876,1.1194389137268066,4.48209514541626,-2.821267381286621
1758280806010417200,54.98285327148437,1.0184335311889647,4.662558095550537,-2.666242823791504
1758280806020502300,54.99293823242187,1.047762501525879,5.228936425781249,-2.47725053024292
1758280806030587100,55.003023193359375,1.1088146438598632,6.074837799835205,-2.344970888519287
1758280806040672300,55.013108398437495,1.156848314666748,6.9810431282043455,-2.3620295753479
1758280806050757000,55.02319311523437,1.0781389350891113,7.6930188468933105,-2.54084651184082
1758280806060842200,55.0332783203125,0.8780734588623046,8.054992210388184,-2.799569928741455
1758280806070927000,55.043363037109366,0.6619967590332031,8.223633789825438,-2.909403929901123
1758280806081012200,55.0534482421875,0.4608838195800781,8.457816639709472,-2.7766753753662106
1758280806091097300,55.06353344726563,0.340275910949707,8.801085302734375,-2.419041502380371
1758280806101181200,55.0736171875,0.3818751647949218,9.198672415924072,-1.8766051887512205
1758280806111266000,55.083702148437496,0.6001964286804199,9.527875144195557,-1.2880804931640624
1758280806121351200,55.093787109375,0.9071031539916992,9.77926631851196,-0.6959644950866699
1758280806131436300,55.10387231445312,1.260696811676025,9.949853186798094,-0.213832135772705
1758280806141521200,55.113957275390625,1.6692074699401855,10.059238275146484,0.0432452674865722
1758280806151606300,55.12404223632812,2.1122844146728514,10.13824692993164,0.0415992538452148
1758280806161691100,55.13412719726562,2.4899697265625,10.362404060363769,-0.0058358665466308
1758280806171776300,55.14421240234375,2.739565249633789,10.733355680084228,0.0115220954895019
1758280806181861000,55.154297119140615,2.7564742988586426,11.091288828277587,0.0315735343933105
1758280806191946200,55.16438232421875,2.653673265075684,11.384877806854249,0.1675941162109374
1758280806202030000,55.17446606445312,2.4003368019104,11.640907746887208,0.5032312614440918
1758280806212115200,55.18455126953125,2.06873987197876,11.944672082519531,0.8393173194885254
1758280806222200000,55.19463598632813,1.7536030784606933,12.119748078918455,1.1804910560607909
1758280806232285200,55.20472119140625,1.4704887321472166,11.97684416732788,1.437119546508789
1758280806242370000,55.21480615234375,1.1441291183471678,11.464185736846924,1.5246575447082518
1758280806252455200,55.224891113281245,0.7471405555725097,10.720935758972168,1.4092869522094726
1758280806262540300,55.234976318359365,0.3640682899475097,10.11954222946167,1.1339537612915038
1758280806272625200,55.24506127929688,-0.012120645904541,9.821464122772216,0.7395090377807617
1758280806282710300,55.255146240234374,-0.469862075805664,9.660753336334228,0.1922843208312988
1758280806292795100,55.265231201171865,-1.029207438659668,9.542389991760253,-0.4581903427124023
1758280806302879200,55.27531518554688,-1.5804723709106443,9.395595502471924,-1.0401309837341308
1758280806312964000,55.28540014648437,-2.073079362487793,9.173084385681152,-1.593939755249023
1758280806323049200,55.2954853515625,-2.448071197509765,8.801534215545654,-2.1484967147827145
1758280806333134000,55.305570068359366,-2.627636322021484,8.457218089294432,-2.6177602401733395
1758280806343219200,55.3156552734375,-2.637362766265869,8.230367481994628,-3.037044805908203
1758280806353304000,55.325739990234375,-2.5650878036499023,8.144176222229003,-3.430741341400146
1758280806363389200,55.335825195312495,-2.480991470336914,8.151658102416992,-3.922749782562256
1758280806373474000,55.34591015625,-2.3039701850891112,8.168567151641845,-4.530877004241943
1758280806383559200,55.3559951171875,-1.9023428565979004,8.154351579284668,-5.226093311309814
1758280806393644300,55.366080322265624,-1.3907318893432616,8.098536753082275,-5.94330634613037
1758280806403728100,55.376164062499996,-0.8897451919555663,7.892635410308838,-6.542455311584472
1758280806413813200,55.38624926757812,-0.4572925170898437,7.671171756744385,-6.859387756347656
1758280806423898000,55.39633422851562,-0.1122282028198242,7.480234174346923,-6.88856708908081
1758280806433983200,55.40641918945313,0.2644096458435058,7.404517546844482,-6.687005236816406
1758280806444068000,55.416504150390615,0.6599018325805663,7.4034700836181635,-6.335207230377197
1758280806454153200,55.42658935546875,1.0058639724731444,7.46347476272583,-5.847089366912842
1758280806464238000,55.436674072265625,1.3443442321777344,7.528118207550048,-5.308992543792725
1758280806474323200,55.44675927734375,1.624914739227295,7.554903338623046,-4.726303714752197
1758280806484408000,55.45684399414063,1.868075845336914,7.561188117980957,-4.177582621765136
1758280806494493200,55.46692919921875,2.009782656097412,7.535151174926757,-3.665822016906738
1758280806504577300,55.47701342773437,2.1206641204833985,7.589319987487793,-3.1452327934265134
1758280806514662100,55.487098144531245,2.1646575759887696,7.783399959564209,-2.608632346343994
1758280806524747000,55.49718310546875,2.1996727752685548,8.08806212081909,-2.046743144226074
1758280806534832000,55.50726806640625,2.171391268157959,8.49762024230957,-1.4657003288269042
1758280806544917200,55.517353271484374,2.13862063293457,9.105747463989257,-0.8960299713134765
1758280806555002000,55.527438232421865,2.095525003051758,10.03634372177124,-0.3220201232910156
1758280806565087200,55.53752319335938,2.013972509002685,11.315296321105956,0.1565209335327148
1758280806575172400,55.5476083984375,1.8555062866210936,12.622979340362548,0.5900210716247558
1758280806585257500,55.557693603515624,1.6487071182250976,13.37550684967041,0.9542389991760252
1758280806595342300,55.5677783203125,1.5141829124450683,13.320889124298096,1.2565069587707518
1758280806605426400,55.57786254882812,1.4942811111450194,12.833369811248778,1.511788710784912
1758280806615511300,55.587947265625,1.5084966835021971,12.568361614990234,1.6172832214355468
1758280806625596400,55.59803247070313,1.2996025886535645,12.788628167724609,1.463306127166748
1758280806635681300,55.60811743164062,0.8324339897155761,13.034482750701905,0.9249100288391112
1758280806645766400,55.61820239257813,0.2971802810668945,12.917615782165528,0.2190694519042968
1758280806655851300,55.628287353515624,-0.1191115325927734,12.43578269805908,-0.4352957893371582
1758280806665936400,55.63837231445312,-0.4963479316711425,11.91175180969238,-0.978031378173828
1758280806676021200,55.648457275390626,-0.8928875816345214,11.508927380371093,-1.4915876342773438
1758280806686106400,55.658542480468746,-1.296759474182129,11.341333264160156,-1.9470845001220705
1758280806696191500,55.66862744140625,-1.5720926651000977,11.4140571395874,-2.306514024353027
1758280806706275600,55.678711669921874,-1.7871219017028808,11.61382334060669,-2.553116795349121
1758280806716360400,55.68879638671875,-1.9823989746093749,11.737872914123534,-2.70050983505249
1758280806726445300,55.69888134765625,-2.1868039413452145,11.59287407608032,-2.687341725921631
1758280806736530400,55.708966552734374,-2.3569418968200684,11.17882682647705,-2.61117618560791
1758280806746615300,55.71905126953125,-2.361431024932861,10.69983685684204,-2.5061305877685545
1758280806756700400,55.729136474609376,-2.2993314193725585,10.25227078399658,-2.4423849685668944
1758280806766785300,55.73922143554688,-2.2909517135620114,9.861267725372311,-2.3431752372741697
1758280806776870400,55.74930639648437,-2.331802779388428,9.585784896850583,-2.1260510742187497
1758280806786955300,55.759391357421876,-2.410362521362305,9.39813934173584,-1.852663172149658
1758280806797040400,55.769476318359374,-2.5674820053100587,9.260323108673097,-1.4987702392578124
1758280806807124500,55.779560546875,-2.699462371826172,9.165153592681884,-1.1761515655517578
1758280806817209600,55.78964575195313,-2.784606168365478,9.18715032043457,-0.9790788414001464
1758280806827294500,55.79973046875,-2.773233710479736,9.30910496749878,-0.8553285430908203
1758280806837379300,55.8098154296875,-2.712630480957031,9.450662140655515,-0.9243114784240722
1758280806847464400,55.819900390625,-2.6405051559448243,9.59536170349121,-1.1724106254577635
1758280806857549300,55.8299853515625,-2.597559163665772,9.664195001220705,-1.504755743408203
1758280806867634400,55.840070556640626,-2.5185505088806157,9.68559317855835,-1.87690446395874
1758280806877719300,55.8501552734375,-2.542043612670898,9.692326870727538,-2.277783604431152
1758280806887804400,55.86024047851562,-2.673126153564453,9.7415576423645,-2.596362062835693
1758280806897889300,55.870325195312496,-2.8392238937377927,9.649680153656004,-2.8948890823364257
1758280806907973600,55.88040966796875,-2.9385832626342774,9.4113074508667,-3.1425393165588376
1758280806918058500,55.89049462890625,-3.041384296417236,9.177573513793943,-3.2900819938659667
1758280806928143600,55.90057958984375,-3.165433869934082,9.070582627105711,-3.3815105697631838
1758280806938228500,55.91066455078125,-3.3851018722534176,9.260472746276855,-3.412335916137695
1758280806948313600,55.920749755859376,-3.8521208335876462,9.575160626983642,-3.4573768348693847
1758280806958398500,55.93083447265625,-4.48179587020874,9.994744467926024,-3.611353929138184
1758280806968483300,55.94091943359375,-5.111470906829834,10.385897164154052,-4.07343484954834
1758280806978568400,55.951004394531246,-5.6115597785949705,10.752958206176755,-4.950161569976807
1758280806988653300,55.96108935546875,-5.75251840133667,10.740089372253417,-6.0154316711425775
1758280806998738400,55.97117456054687,-5.1042883018493646,10.05504842224121,-7.020846730804443
1758280807008822500,55.98125854492187,-3.8896798721313472,9.186102857208253,-7.500285613250732
1758280807018907600,55.99134375,-2.784905443572998,8.4911858253479,-7.410951963806152
1758280807028992500,56.00142846679688,-1.9666870262145997,8.149413538360594,-6.810905172729492
1758280807039077600,56.011513671875,-1.2828431770324706,8.09569363861084,-5.7968111320495606
1758280807049162500,56.0215986328125,-0.5494692810058593,8.258499351501465,-4.595819724273682
1758280807059247600,56.031683593749996,0.0688332977294921,8.720280996704101,-3.443759812927246
1758280807069332500,56.0417685546875,0.3238157745361328,9.34067850189209,-2.5285762283325197
1758280807079417300,56.051853271484376,0.404769718170166,10.078691163635254,-1.874360624694824
1758280807089502200,56.06193823242187,0.8788216468811034,10.84049620437622,-1.521365517425537
1758280807099587300,56.0720234375,1.569099913024902,11.68355446395874,-1.7913117546081545
1758280807109671400,56.082107421875,2.0629040054321286,12.77516078338623,-2.377142973327637
1758280807119756500,56.09219262695312,2.1532851181030277,13.532925608825682,-3.033902416229248
1758280807129841400,56.102277343749996,1.8468273056030275,12.73715283203125,-3.663727090454101
1758280807139926500,56.11236254882813,1.6949451377868652,10.712406415557862,-4.030339219665527
1758280807150011600,56.12244775390625,1.8293197059631348,8.979752601623535,-3.942352308654785
1758280807160096500,56.132532470703126,1.952920366668701,7.875277448272705,-3.61344885559082
1758280807170181600,56.142617675781246,1.962646810913086,7.030273899841308,-3.310133432769775
1758280807180266500,56.15270263671875,1.7196353424072264,6.426336531066895,-3.113060708618164
1758280807190351400,56.162787353515625,1.2825439018249511,6.184971076202392,-3.095253833770752
1758280807200436500,56.172872558593745,0.7805097412109374,6.2858268211364745,-3.1968577667236326
1758280807210520600,56.182956542968746,0.1919850456237793,6.7082537765502925,-3.4968811622619627
1758280807220605400,56.19304150390625,-0.3393780853271484,7.478887435913085,-3.812167593383789
1758280807230690600,56.20312670898437,-0.6539163284301758,8.34498988647461,-4.131344602203369
1758280807240775400,56.213211425781246,-0.6943184814453125,9.043498220825194,-4.436605313873291
1758280807250860500,56.22329663085937,-0.5201403106689453,9.417143317413329,-4.630086735534667
1758280807260945700,56.23338159179687,-0.3308487419128418,9.380781379699709,-4.492420140075684
1758280807271030500,56.243466552734375,-0.2328361114501953,9.1684456199646,-4.149450752258301
1758280807281115600,56.253551757812495,-0.2334346618652343,9.038111267089842,-3.6385879730224606
1758280807291200500,56.26363647460937,-0.3031657852172851,9.02658917160034,-3.1561563385009763
1758280807301284600,56.273720703125,-0.2593219673156738,9.045593147277833,-2.7910405853271483
1758280807311369500,56.283805419921876,-0.1213560966491699,9.080907621765135,-2.595164962005615
1758280807321454600,56.293890624999996,0.0894832870483398,9.170540546417236,-2.533813544464111
1758280807331539500,56.3039755859375,0.2498947982788086,9.471910680389405,-2.563890702819824
1758280807341624600,56.314060546875,0.3438672134399413,9.825953250885007,-2.7066449768066403
1758280807351709400,56.324145507812496,0.3339911315917968,10.105476294708252,-2.851194902038574
1758280807361794600,56.334230712890616,0.3592798866271972,10.2410479637146,-2.986168020629883
1758280807371879400,56.3443154296875,0.5054758255004882,10.219051235961912,-3.12159005203247
1758280807381964500,56.354400634765625,0.6358101783752441,10.191817192077636,-3.20508783493042
1758280807392049700,56.36448559570313,0.7441478034973145,10.160094020080566,-3.19206936340332
1758280807402133500,56.37456958007813,0.7790133651733397,10.062380664825438,-3.181295455932617
1758280807412218400,56.384654296875,0.8057984962463378,9.902866979217528,-3.0633810241699218
1758280807422303500,56.394739501953126,0.7891887222290038,9.733028298950195,-2.970156797027588
1758280807432388600,56.404824707031246,0.6854898628234863,9.4603885848999,-2.914042695617676
1758280807442473500,56.41490942382812,0.6196493171691894,9.075221392822264,-2.863315547943115
1758280807452558600,56.42499462890625,0.5915174476623535,8.699930282592772,-2.7967268142700195
1758280807462643500,56.435079589843745,0.5960065757751465,8.362796761322022,-2.690334477996826
1758280807472728600,56.44516455078125,0.6392518432617187,8.010100929260254,-2.580650114440918
1758280807482813400,56.45524951171875,0.6751648681640625,7.659948936462402,-2.4690204620361325
1758280807492898600,56.46533471679688,0.7432499778747558,7.430105577087402,-2.3274632888793945
1758280807502982400,56.475418457031246,0.9183259742736816,7.392097625732421,-2.254290500640869
1758280807513067500,56.48550366210937,1.156698677062988,7.654262707519531,-2.2979846809387205
1758280807523152400,56.49558837890625,1.4695909065246582,8.251765659332275,-2.437596565246582
1758280807533237500,56.505673583984375,1.861791065979004,9.09078370361328,-2.6671406494140624
1758280807543322600,56.515758544921866,2.230647759246826,9.976488680267334,-2.8330887519836425
1758280807553407500,56.52584350585937,2.6274866844177245,10.645668044281006,-2.883965537261963
1758280807563492600,56.5359287109375,3.0762498580932616,11.01916350326538,-2.791339860534668
1758280807573577000,56.54601293945312,3.519177165222168,11.1596732131958,-2.5740660598754883
1758280807583662000,56.55609814453125,3.8515222831726073,11.304522413635253,-2.296338667297363
1758280807593747000,56.56618286132813,3.966294325256348,11.679364611053463,-2.014271784210205
1758280807603831000,56.576267089843746,3.7089176467895504,12.090718383789062,-1.8525135345458985
1758280807613916000,56.58635205078125,3.215113554382324,12.175862180328368,-1.668160006713867
1758280807624001000,56.59643701171875,2.644246096038818,11.765855146026611,-1.706317595672607
1758280807634086000,56.606521972656246,2.246658982849121,11.17239240951538,-1.7763479942321776
1758280807644171000,56.61660693359375,1.8825906929016112,10.962750126647949,-1.606359676361084
1758280807654255900,56.62669189453125,1.5451578964233397,11.123760188293456,-1.4309844047546385
1758280807664341000,56.636777099609375,1.1896189498901366,11.635520793151857,-1.2797007873535156
1758280807674425900,56.64686181640625,0.6587047317504883,12.47483811264038,-1.2063783615112305
1758280807684511000,56.65694702148437,0.0369604881286621,13.63019005126953,-1.5613187576293943
1758280807694594800,56.66703076171875,-0.7110778930664062,14.76758547744751,-2.552967157745361
1758280807704680000,56.677115966796876,-1.4531307701110838,15.159935274505614,-3.8233904136657713
1758280807714764800,56.687200927734374,-2.3220763351440428,14.449306294250489,-4.601057040405273
1758280807724850000,56.69728588867187,-3.228431301116943,13.10660807571411,-4.697124382019043
1758280807734935000,56.70737109375,-4.065504056549072,11.815834105682372,-4.601356315612793
1758280807745020000,56.717456054687496,-4.786458031463623,10.579528223419189,-4.599560664367676
1758280807755105000,56.727541015625,-5.283554151153564,9.4749034324646,-4.704606262207031
1758280807765190000,56.7376259765625,-5.537189889526367,8.604311853790282,-4.875193130493164
1758280807775275000,56.747710937499996,-5.652111569213867,7.967154936981201,-4.960486564636231
1758280807785360000,56.7577958984375,-5.663484027099609,7.535001537322998,-4.868758713531494
1758280807795444000,56.7678798828125,-5.591059426879882,7.170783609771728,-4.675127654266357
1758280807805528800,56.77796484375,-5.6580970733642575,6.909366716003418,-4.426729232025147
1758280807815614000,56.788050048828126,-5.729923123168945,6.655730977630615,-4.265719170379638
1758280807825698800,56.798134765625,-5.610661952972412,6.467636509704589,-4.220827889251709
1758280807835784000,56.80821997070312,-5.267842202758788,6.341192734527588,-4.248810121154785
1758280807845868800,56.818304931640625,-4.668842874908447,6.303633695983886,-4.274547789001464
1758280807855954000,56.82838989257813,-3.831470844268799,6.410325307464599,-4.165312338256836
1758280807866039000,56.83847509765625,-2.9152397964477537,6.685359223175048,-3.934870428466797
1758280807876124000,56.84856005859375,-2.025644242095947,6.969221757507324,-3.5308488983154294
1758280807886208000,56.85864404296875,-1.2862848419189452,7.126341241455077,-2.9691093338012693
1758280807896292900,56.868729003906246,-0.6994061599731445,7.100603573608398,-2.309955689239502
1758280807906378000,56.87881396484375,-0.3347393196105956,6.99076957244873,-1.5740379539489746
1758280807916462800,56.88889892578125,-0.1539770942687988,7.06753366317749,-0.8239046463012695
1758280807926548000,56.898983886718746,-0.1138742164611816,7.498789237213134,-0.1182137069702148
1758280807936632800,56.90906884765625,0.065092357635498,8.294711651611328,0.6105214233398437
1758280807946718000,56.91915405273437,0.2736871772766113,9.32077670059204,1.237951895904541
1758280807956802800,56.929238769531246,0.484526560974121,10.423605840301514,1.7051204948425291
1758280807966888000,56.939323974609366,0.8060977714538574,11.059715293884278,1.9228432083129885
1758280807976973000,56.9494091796875,0.997184991455078,10.863540395355225,1.9174562545776368
1758280807987057000,56.95949291992187,1.0657190139770507,10.084377392578125,1.484405029296875
1758280807997141800,56.969577880859376,1.0375871444702147,9.34561654281616,0.8782230964660644
1758280808007227000,56.97966284179688,1.0384849700927734,8.983942454528808,0.4623801956176757
1758280808017312000,56.989748046875,1.0437222862243651,9.274239405822753,0.0974140800476074
1758280808027396900,56.9998330078125,0.927004955291748,10.351031602478027,-0.2871545616149902
1758280808037482000,57.009917968749996,0.6400000312805175,12.035801383209227,-0.706139852142334
1758280808047566800,57.0200029296875,-0.0218470901489257,13.849259503173828,-1.5001169776916503
1758280808057652000,57.030087890625,-0.8031050193786621,15.244480520629882,-2.77727392578125
1758280808067736800,57.040172851562495,-1.7106570861816406,15.837943257141111,-4.139425032806396
1758280808077821000,57.050257080078126,-2.5363573837280278,15.966481958770752,-5.578938780975341
1758280808087905800,57.060341796875,-3.0539538551330563,15.944634868621826,-6.845920372009277
1758280808097991000,57.07042700195312,-3.219303407287597,15.786617559051512,-7.88500389251709
1758280808108075800,57.080511718749996,-3.2631472251892086,15.25899536819458,-8.56765064086914
1758280808118161000,57.09059692382813,-3.240701584625244,14.244452414703368,-8.72671541366577
1758280808128245800,57.10068188476562,-2.925265515899658,13.156736672973633,-8.39526812133789
1758280808138331000,57.110766845703125,-2.475155603790283,12.009914077758788,-7.745541645812988
1758280808148416000,57.120852050781245,-2.294991928863525,10.92414362487793,-6.93959351196289
1758280808158500900,57.13093701171875,-2.653822902679443,10.270975484466552,-6.06466244277954
1758280808168586000,57.14102197265625,-2.986766571044922,10.196605595397948,-5.225494760894775
1758280808178669800,57.15110595703125,-2.9300539192199704,10.486902546691894,-4.659266068267822
1758280808188755000,57.161190917968746,-2.614318575286865,10.753407118988036,-4.381538675689697
1758280808198839800,57.17127587890625,-2.006490628814697,10.894814654541015,-4.432714736175537
1758280808208925000,57.18136108398437,-1.280000062561035,11.052682326507568,-4.519205271148682
1758280808219009800,57.191445800781246,-0.5834370170593262,11.075576879882812,-4.60270305404663
1758280808229095000,57.201531005859366,-0.0915782135009765,10.691157875823974,-4.7004164093017575
1758280808239179800,57.21161572265625,0.2705447875976562,9.934590151214598,-4.605845443725586
1758280808249265000,57.221700927734375,0.4364928901672363,9.16799670715332,-4.069993184661865
1758280808259350000,57.2317861328125,0.4064157318115234,8.544905725097657,-3.3535283378601077
1758280808269433900,57.24186987304688,0.3333925811767578,8.143128759002686,-2.532766081237793
1758280808279518700,57.25195483398437,0.2422632804870605,7.843554276275634,-1.9066823471069332
1758280808289603800,57.262039794921876,0.0420481666564941,7.485172215270996,-1.5116390731811522
1758280808299689000,57.272124999999996,-0.1068412490844726,7.100453936004638,-1.3727753768920898
1758280808309773800,57.2822099609375,-0.0941220527648925,6.644807432556152,-1.6219219871520996
