time,seconds_elapsed,z,y,x
1759645009633439200,0.035439208984375,0.05830547397434711,0.05199556017518043,0.23070918242409824
1759645009643396400,0.045396240234375,0.17254560113847256,0.021733692902326584,0.2029115133076906
1759645009653354500,0.0553544921875,0.23743805228769777,-0.032362054422497746,0.12774331346824763
1759645009663311400,0.065311279296875,0.12149930451214312,-0.08507190034687519,0.08473594639077782
1759645009673269500,0.07526953125,0.0023228899896144866,-0.07734569000899791,0.05043459446877241
1759645009683226400,0.085226318359375,-0.016991466811299323,-0.04217442338466644,0.05918927107155323
1759645009693183500,0.09518359375,-0.060623687788844104,-0.09440262327194213,0.05377908259108662
1759645009703141400,0.105141357421875,-0.05251578465700149,-0.0993318963676691,0.02874649427384138
1759645009713098200,0.11509814453125,-0.03567804710268974,-0.09650222589969634,0.06682414986416697
1759645009723056400,0.125056396484375,0.01222936697602272,-0.09784311911463738,0.06961085797324776
1759645009733013500,0.135013427734375,0.013562661406397818,-0.08286006951630115,0.07530541635304688
1759645009742971400,0.144971435546875,0.06716331869065761,-0.09425883088707923,0.1018554234959185
1759645009752928500,0.154928466796875,0.04645663074851036,-0.06298690978884697,0.13497691798359154
1759645009762886400,0.164886474609375,-0.01710311049222946,-0.06188450150489807,0.09639204352349043
1759645009772843300,0.17484326171875,-0.03747720547914505,-0.059090486872196195,0.0583856996037066
1759645009782800400,0.18480029296875,-0.029517186385393142,-0.07194996844530105,-0.01692468518540263
1759645009792758500,0.194758544921875,-0.01915712041258812,-0.06913608006834983,-0.04293284053653478
1759645009802715400,0.20471533203125,-0.022477789267897605,-0.04260638506114483,-0.025055969192832706
1759645009812673300,0.21467333984375,-0.008751461732387542,-0.04440963509082794,-0.02163841583430767
1759645009822630400,0.22463037109375,-0.027732641056179997,-0.030173604467511175,-0.011093348683416843
1759645009832588500,0.234588623046875,-0.02852291465103626,-0.01884732381105423,-0.02258753325268626
1759645009842545400,0.24454541015625,-0.03352349941730499,-0.05633095903098583,0.016825754855573177
1759645009852503300,0.25450341796875,-0.029607202756404875,-0.06522212149500846,0.043249797531217334
1759645009862460400,0.26446044921875,0.03417056514918804,-0.065638885602355,0.0813989109225571
1759645009872417500,0.27441748046875,0.05319850622415542,-0.07834113078713417,0.14006035872772335
1759645009882375400,0.28437548828125,0.06093640699982643,-0.06244447347521782,0.13382716342657805
1759645009892332300,0.294332275390625,0.048184477454423905,-0.10675123271346092,0.06378185955882072
1759645009902290400,0.30429052734375,0.03074234426617622,-0.10233107818365096,-0.005374094253778458
1759645009912247300,0.314247314453125,0.047769466912746424,-0.07159282557070255,0.009376023371517658
1759645009922205400,0.324205322265625,0.09185644592046738,-0.03871580736339092,0.028049451920390128
1759645009932162300,0.334162353515625,0.09797989723682403,-0.061577042990922926,0.017625234670192003
1759645009942120200,0.3441201171875,0.07391863816976547,-0.05983049158453941,0.0054736091054975984
1759645009952077300,0.354077392578125,0.05092296250760555,-0.02819967404603958,0.016878069564700126
1759645009962035500,0.364035400390625,0.05515782359838486,-0.022657237488031386,0.02596183199137449
1759645009971992600,0.37399267578125,-0.010169511836767196,-0.030961539974808692,0.030723201174288985
1759645009981949400,0.383949462890625,-0.09495558097958565,-0.08274784131348133,0.011342793399840593
1759645009991907300,0.3939072265625,-0.1257183835119009,-0.07214578327834606,0.03181114254146814
1759645010001863200,0.40386328125,-0.08836451215147971,-0.04028700220286846,0.06867620747163891
1759645010011821300,0.4138212890625,0.008784194958209991,-0.03384147932529449,0.08536489194408059
1759645010021778400,0.4237783203125,0.0477402408182621,-0.03471826215982437,0.05844707440212368
1759645010031736300,0.433736328125,0.08368892155587673,-0.03690262046158314,0.019574907433241605
1759645010041693200,0.443693115234375,0.08119476665258407,-0.03612812895774841,-0.005491875414550304
1759645010051651300,0.4536513671875,0.06118541332483291,-0.02766074486374855,0.013310294080525635
1759645010061608200,0.463608154296875,0.0320808993935585,-0.04035539126396179,0.025053923366218804
1759645010071566300,0.47356640625,-0.003393149569630623,-0.050099371165037154,0.04666004436612129
1759645010081523500,0.4835234375,-0.05165653747916221,-0.06161912856698036,0.04475508752763271
1759645010091481000,0.493481201171875,-0.03745148651599884,-0.059175827068090436,0.09349866016954184
1759645010101438200,0.503438232421875,0.011606266641616821,-0.03129062579870224,0.10887538526058196
1759645010111396400,0.513396240234375,0.007441548177599906,-0.01285071374475956,0.13710136279165744
1759645010121353500,0.523353515625,-0.03906710501909256,-0.013566168537735939,0.09653481299504638
1759645010131311400,0.533311279296875,-0.03410568321943283,-0.006523848810791969,0.02828662167713046
1759645010141268200,0.543268310546875,-0.005824176108837127,0.0027197803527116773,0.04158712501600385
1759645010151225300,0.553225341796875,-0.015317980641126631,0.010850479838252066,0.029777737017720934
1759645010161183200,0.563183349609375,-0.016258476361632346,-0.014937456890940665,0.0190327633805573
1759645010171140000,0.57314013671875,-0.05327098693847656,-0.0328565599411726,-0.010796703824400901
1759645010181098200,0.58309814453125,-0.056930093967914576,-0.029362872606515884,-0.0321963424667716
1759645010191055400,0.593055419921875,-0.017716273954510687,-0.029365795215964316,-0.024237054025381802
1759645010201013200,0.60301318359375,0.02667524095773697,-0.022359131324291227,0.002249970883876085
1759645010210970400,0.612970458984375,0.031000118419528006,-0.031467735931277274,-0.005274433271586895
1759645010220928300,0.62292822265625,-0.013080430847406387,-0.0375619611531496,-0.0177973763667047
1759645010230885400,0.632885498046875,-0.049424248382449146,-0.03410568321943283,0.02636938987895846
1759645010240843300,0.64284326171875,-0.051661213654279704,0.007197218027710914,0.09998553797081113
1759645010250800400,0.65280029296875,-0.031876316732168196,0.0156330379396677,0.1392350138194859
1759645010260758300,0.66275830078125,0.013579028019309044,-0.006228080734610557,0.14927812279760835
1759645010270715100,0.672715087890625,0.021309914532303808,0.0005512041419744491,0.1260486383795738
1759645010280673300,0.68267333984375,-0.01728138966858387,0.01602642117142677,0.09118921418339014
1759645010290630400,0.69263037109375,-0.06308394042253494,0.046156771019101143,0.04835837271660566
1759645010300588300,0.70258837890625,-0.08663198927044868,0.035278818652033805,0.021419658517092464
1759645010310545200,0.712545166015625,-0.0930839418888092,0.03335164998173713,-0.007120207268744707
1759645010320503300,0.72250341796875,-0.08480769645273685,0.029341245296597478,0.0007385434076189995
1759645010330460400,0.73246044921875,-0.07769698766469955,0.031246786656975743,0.033863837287575006
1759645010340418300,0.742418212890625,-0.08786474593579768,0.024227263283729553,0.06580211334004998
1759645010350375400,0.75237548828125,-0.05901099189519882,-0.03917173443734646,0.04724222816824913
1759645010360333300,0.762333251953125,-0.0382066887974739,-0.05224690458774566,0.05763721932396292
1759645010370290200,0.772290283203125,-0.00846972218155861,-0.021464812833070755,0.0982281729094684
1759645010380248300,0.782248291015625,-0.008922726646065712,-0.027883447703719137,0.07631283982992172
1759645010390205400,0.792205322265625,-0.012532149314880371,-0.057086161312460894,0.06221461024209857
1759645010400163300,0.802163330078125,-0.03987257618308067,-0.05597147806882858,0.02945946484878659
1759645010410120200,0.8121201171875,-0.05851531733274459,-0.059250645869970316,-0.00985650036484003
1759645010420078300,0.822078369140625,-0.07542319751381873,-0.0324292744398117,0.016328180596977472
1759645010430035500,0.832035400390625,-0.07426701321601867,0.009414894077181815,0.07484247501641511
1759645010439993300,0.841993408203125,-0.07771452332139014,0.025130349603295323,0.10362330995127558
1759645010449950200,0.8519501953125,-0.04109364241063595,0.025156068566441533,0.1093374498143792
1759645010459908400,0.861908447265625,-0.0007400047123432159,0.008083353212475776,0.038748102197796105
1759645010469865200,0.871865234375,0.00549509028494358,-0.003269230929017067,-0.08502119307294488
1759645010479823400,0.8818232421875,0.005965630406141281,0.004782558101415634,-0.12473200282305479
1759645010489780500,0.891780517578125,0.0008194996893405913,0.030568741264939307,-0.0965843512251973
1759645010499738000,0.901738037109375,-0.011019406664371489,0.04868775080144405,-0.026824294039607045
1759645010509695200,0.9116953125,-0.024657471394538878,0.04034136273860931,0.06647460577413439
1759645010519653400,0.9216533203125,-0.01590016444325447,0.02613222012221813,0.14362901099473238
1759645010529610500,0.931610595703125,-0.023973580783605574,-0.0076899699807167045,0.1503476517252624
1759645010539568400,0.941568359375,0.005702595555782318,-0.016830723291635513,0.07738894462883472
1759645010549525200,0.951525146484375,-0.0122258598446846,-0.030202246040105817,0.060410629560053344
1759645010559483400,0.9614833984375,-0.04312719406485557,-0.018723405170440674,0.04069295265525579
1759645010569440300,0.971440185546875,-0.0641530309587717,0.008287351351976394,0.053233869798481465
1759645010579398400,0.9813984375,-0.04266191464066505,0.0123129536062479,0.04146145280972123
1759645010589355300,0.991355224609375,-0.0269832839936018,0.021837737798690793,0.06481091034561395
1759645010599313200,1.001313232421875,-0.019998247411847112,0.03704582832455635,0.06543985589891672
1759645010609271300,1.011271240234375,-0.032575404912233354,0.012116554251313208,0.023265432514250277
1759645010619228400,1.021228515625,-0.06544540885686874,0.014549334356188773,0.033129093272238966
1759645010629186300,1.031186279296875,-0.06733925977945328,-0.0007581248909235,0.01383183373659849
1759645010639143200,1.04114306640625,-0.07001286290287971,-0.026910218757390976,0.031042350126057862
1759645010649101300,1.051101318359375,-0.1175052664399147,-0.02074000568985939,0.0633861382395029
1759645010659058400,1.061058349609375,-0.1490542509138584,-0.04797521861791611,0.09970628263801336
1759645010669016300,1.071016357421875,-0.11155132647156715,-0.056954643887281414,0.12623948477655647
1759645010678973200,1.08097314453125,-0.07093173131346703,-0.03728489777743816,0.16681085687875746
1759645010688931300,1.090931396484375,-0.04858312138319015,-0.038414194068312646,0.15903715413734315
1759645010698888200,1.10088818359375,-0.052371992272138596,-0.020758125868439673,0.06367986048907041
1759645010708846300,1.110846435546875,-0.09816109902262687,-0.01310030459165573,-0.020063275472074746
1759645010718803500,1.120803466796875,-0.06704115361571311,-0.02372282089293003,-0.035313451573997734
1759645010728761000,1.130760986328125,-0.013140636602044104,-0.038725159713625903,0.013485066125541924
1759645010738718200,1.14071826171875,0.01779459988772869,-0.07162731236219405,0.03709229781478643
1759645010748676400,1.15067626953125,0.0402893402904272,-0.06523731906414032,0.07296586748957634
1759645010758634200,1.16063427734375,0.03658931672871112,-0.058135962626338,0.12212708102166651
1759645010768591400,1.17059130859375,0.002645546072721481,-0.04504559490680694,0.09851955707147717
1759645010778549200,1.18054931640625,-0.020713702204823492,-0.023598902252316475,0.08657748260423541
1759645010788506400,1.19050634765625,-0.05846154131889343,-0.031394086173176766,0.0468970679923892
1759645010798464300,1.20046435546875,-0.03553951541483402,-0.048721068549156185,0.017613836493343114
1759645010808421400,1.21042138671875,-0.041942368194460865,-0.04502747472822666,0.05901113802567124
1759645010818379500,1.220379638671875,-0.01341360832452774,-0.052689387658238405,0.0755890556000173
1759645010828336000,1.230336181640625,0.012243980023264885,-0.06499298891425133,0.1234421091429889
1759645010838294300,1.240294189453125,0.021861703196167946,-0.06356617098152637,0.15905819692537188
1759645010848252400,1.25025244140625,0.014473931032419203,-0.04357786044180393,0.1549174438588321
1759645010858209300,1.260209228515625,-0.005930559092760085,-0.06920563817322253,0.10029942622557282
1759645010868167400,1.27016748046875,0.032901568126678465,-0.08220189786851406,0.09033318187594414
1759645010878124300,1.280124267578125,0.05283493360877037,-0.07140227143466472,0.0725545102097094
1759645010888082200,1.290082275390625,0.05541676679551601,-0.05008475811779499,0.11925707854330539
1759645010898039300,1.300039306640625,0.020932897913455963,-0.0594604892283678,0.11897709255814552
1759645010907997400,1.30999755859375,-0.025046762973070142,-0.055578094837069505,0.15683277596086262
1759645010917954300,1.319954345703125,-0.04149930060207844,-0.05159866981208324,0.13754574555829166
1759645010927912200,1.329912109375,0.026772856113314626,-0.08853226993381977,0.05964636718928813
1759645010937870300,1.339870361328125,0.06486030244529246,-0.04485445624887943,0.060306000141799446
1759645010947827500,1.349827392578125,0.06287877323925495,0.017063363003730774,0.06777399793490767
1759645010957785300,1.359785400390625,0.03216507054567337,0.03107669078707695,0.06650631608664989
1759645010967742200,1.3697421875,-0.03267068198025226,0.04123685027360916,0.058605918225646016
1759645010977700400,1.379700439453125,0.03247603619098663,0.011074351722002029,0.04782499649226665
1759645010987657200,1.3896572265625,0.0771802703142166,0.00856675281524658,0.05777092870622873
1759645010997616400,1.399616455078125,0.0652338119328022,-0.006860533419251442,0.04488470525667071
1759645011007574300,1.40957421875,0.02089899564385414,0.001748304972052574,0.04579115257710218
1759645011017531400,1.419531494140625,-0.029196283867955208,0.015351298388838768,0.08083353212475776
1759645011027489500,1.429489501953125,-0.024786066210269925,0.04508183526396751,0.12397095532268285
1759645011037446400,1.4394462890625,-0.003877718216180801,0.004563362392783165,0.1394200149975717
1759645011047404300,1.449404296875,0.03784896140098572,-0.04550210650265216,0.14087035993635655
1759645011057361400,1.459361328125,0.057795186364650725,-0.08707797947227955,0.08700067645236849
1759645011067319300,1.4693193359375,0.06697802525162697,-0.09279752616286277,0.0317203955180943
1759645011077277400,1.47927734375,0.03268880215883255,-0.07175824526548386,0.017527619514614342
1759645011087234600,1.489234619140625,-0.02086976954936981,-0.05232698408663273,0.04469400499016046
1759645011097192200,1.499192138671875,-0.02999474076926708,-0.041077860319614405,0.09789236508384347
1759645011107149300,1.5091494140625,-0.03554302254617214,-0.03755845402181148,0.1485891176201403
1759645011117107500,1.519107421875,0.0002899228572845459,-0.062059858071804044,0.17460867114812134
1759645011127064600,1.529064697265625,0.029739304703474044,-0.07994388980865479,0.09215645178034901
1759645011137022500,1.5390224609375,0.01248772565126419,-0.0677823273718357,0.042513738341629505
1759645011146980400,1.54898046875,-0.002493570381402969,-0.03084522011876106,0.02735562443733215
1759645011156937500,1.5589375,-0.032006080591678615,-0.012259762114286423,0.05786649803519248
1759645011166895400,1.568895263671875,-0.04038812448978424,0.007383095988631248,0.10941606800854206
1759645011176852500,1.5788525390625,-0.0666933630913496,0.019807693275809286,0.142461282389611
1759645011186810400,1.588810302734375,-0.053742696103453634,0.016038111609220505,0.15192834504544733
1759645011196768300,1.598768310546875,-0.07208148587048054,0.002819733595848083,0.12600567602068186
1759645011206725400,1.608725341796875,-0.08170213165283202,-0.03880290112495422,0.030095424664765596
1759645011216683300,1.618683349609375,-0.04747136074900627,-0.03647650400400162,-0.023186083667725323
1759645011226640400,1.628640380859375,-0.03545475974082946,0.02409925298988819,0.024546412235498426
1759645011236598500,1.6385986328125,-0.02964695024490356,0.04453004660010337,0.06680588355511427
1759645011246556200,1.64855615234375,-0.02385316927433014,0.02083937441110611,0.10266995474919677
1759645011256513300,1.65851318359375,-0.04917524205744266,0.009306173005700111,0.09745689627602695
1759645011266471400,1.668471435546875,-0.06539689354002476,0.006368950510025024,0.06964855963513254
1759645011276428500,1.678428466796875,-0.10145955604612826,0.03418576271831989,0.07703267853707074
1759645011286386400,1.688386474609375,-0.09202420370280742,0.09419219539165496,0.07437471137419342
1759645011296344300,1.69834423828125,-0.08115501916408538,0.07767477583289147,0.08262319202050566
1759645011306301400,1.708301513671875,-0.07004267351925372,0.03909750015735626,0.08828472491353749
1759645011316259300,1.71825927734375,-0.04880582422316074,0.02230067913532257,0.09224266875907779
1759645011326217500,1.728217529296875,-0.015910101315379142,0.01549976694881916,0.10019888846054673
1759645011336174600,1.738174560546875,-0.05848433767259121,-0.018176877203583717,0.11725845207199453
1759645011346132200,1.74813232421875,-0.15444295821487902,-0.024780220991373062,0.15017112611457706
1759645011356089300,1.75808935546875,-0.17886662085354327,-0.01249298634827137,0.15779285316467284
1759645011366047500,1.768047607421875,-0.17090017201900481,-0.01045125138759613,0.18515841447412967
1759645011376005400,1.77800537109375,-0.14372925649881363,-0.010730652850866317,0.13431596985682845
1759645011385962500,1.78796240234375,-0.07718202387988567,-0.00641921939253807,0.09334113152027129
1759645011395920400,1.79792041015625,-0.014160042777657507,-0.003796469673514366,0.07768485883548855
1759645011405877200,1.807877197265625,0.0016243863314390182,-0.009575637596845626,0.045502983285486694
1759645011415835400,1.81783544921875,-0.04463467601835727,-0.03083645229041576,0.05414236294552684
1759645011425793500,1.82779345703125,-0.06015431671142578,-0.03350479471683502,0.06124123516529798
1759645011435750400,1.83775048828125,-0.07481178761720657,-0.01487842018008232,0.06699146925508975
1759645011445708300,1.847708251953125,-0.08692834186851978,0.020727146208286286,0.12385697355419396
1759645011455666200,1.857666259765625,-0.08853869967460631,0.03658756316304207,0.14949191167876125
1759645011465623300,1.867623291015625,-0.11373977642655372,0.03633914135992527,0.13906433342769742
1759645011475581400,1.87758154296875,-0.11317980445623398,0.05853226846754551,0.11362243365719914
1759645011485538600,1.88753857421875,-0.08554302498996258,0.038711715710163117,0.05361673163622618
1759645011495496400,1.897496337890625,-0.06155424663722515,0.016114683976769448,-0.0032576866216957566
1759645011505454300,1.907454345703125,-0.057747255569696426,0.031953473621606825,0.004244651832431555
1759645011515411500,1.917411376953125,-0.017865911558270452,0.04285480686426162,0.05120367914512753
1759645011525369300,1.927369384765625,-0.02206979298889637,0.015231471401453017,0.09688888712972402
1759645011535327500,1.937327392578125,-0.057202481168508526,0.006821954974532127,0.09717106507197022
1759645011545284600,1.94728466796875,-0.04513853388726711,-0.009882511588931083,0.10479220760017632
1759645011555242200,1.9572421875,-0.03044190001487732,0.006223404559493065,0.12210998375639319
1759645011565199400,1.967199462890625,-0.03602525310516357,-0.01949555858671665,0.10527034650593996
1759645011575157500,1.977157470703125,-0.07140344047844409,-0.018337620723247527,0.08605404325202107
1759645011585115400,1.987115478515625,-0.08100888869166374,-0.011827800437808036,0.06642842854484915
1759645011595072500,1.997072509765625,-0.04611176283359527,-0.022903905725479123,0.10340031485036015
1759645011605030400,2.007030517578125,-0.02884966238737106,-0.005754618003964424,0.15422113215774297
1759645011614988300,2.01698828125,-0.031084289571642873,-0.010943418818712233,0.152233903863281
1759645011624945400,2.0269453125,-0.013628712379932403,-0.04271101447939873,0.12284706585928797
1759645011634903600,2.036903564453125,0.01275134502351284,-0.026576456758379934,0.09430223163738846
1759645011644861400,2.046861328125,-0.006075520521402359,-0.0032727380603551864,0.07940437610447407
1759645011654818300,2.056818359375,0.015944003584980965,-0.018083353701233863,0.041764819670468564
1759645011664776400,2.0667763671875,0.006992050844430923,-0.027273206850886342,0.03700710374936461
1759645011674734300,2.076734375,0.014410802668333052,0.0077472531259059904,0.05086027253493666
1759645011684691500,2.08669140625,-0.0072784665703773494,0.005960369709134101,0.03230111801549792
1759645011694649300,2.0966494140625,-0.04848433718383312,0.005555880561470985,0.029700433997809885
1759645011704607500,2.106607421875,-0.044159459722042084,0.014148352339863775,0.06513634290769696
1759645011714564400,2.116564453125,-0.028881226569414137,-0.013138883036375046,0.06520093257650733
1759645011724522200,2.126522216796875,-0.0186263745367527,-0.026022330006957053,0.06968319255709647
1759645011734479400,2.136479248046875,-0.0060381111204624175,-0.02310147412419319,0.08054726252928376
1759645011744437500,2.1464375,0.029638182416558263,-0.021413374906778335,0.0852313286922872
1759645011754395400,2.1563955078125,0.02674187645316124,-0.03878770355582237,0.06970116660520434
1759645011764352300,2.166352294921875,0.024237200155854222,-0.035119828698039056,0.07292012865170835
1759645011774310400,2.176310302734375,-0.018487842848896978,-0.03385083167552948,0.060970747660845516
1759645011784268300,2.186268310546875,-0.028248773884773253,-0.06146832191944122,0.04172390313819051
1759645011794225400,2.196225341796875,-0.0035457097828388213,-0.0570119270324707,0.04812207974269986
1759645011804183600,2.20618359375,-0.003936754927039147,-0.04404313986599445,0.07309358552247286
1759645011814141200,2.21614111328125,0.019611293920874594,-0.04301087420880794,0.08627470026537776
1759645011824098300,2.226098388671875,0.028920974057912826,-0.03671381989121437,0.05931099775508046
1759645011834056400,2.236056396484375,-0.008043605723977089,-0.03185761203169823,0.04034121660813689
1759645011844014300,2.246014404296875,-0.027917934495210645,-0.022629764959216116,0.01576513988673687
1759645011853971500,2.255971435546875,-0.014559271228313445,-0.026401684713363648,0.010733137068897485
1759645011863929600,2.2659296875,0.0011783961296081542,-0.01830138036608696,0.018014964640140532
1759645011873887200,2.27588720703125,0.025505028134584426,-0.01184767418205738,0.04535860637873411
1759645011883844400,2.28584423828125,0.007848959934711457,-0.023049451676011082,0.06498144460693002
1759645011893802500,2.295802490234375,0.008066986599564552,-0.040676293781399725,0.07435878315269946
1759645011903760400,2.305760498046875,0.011025251883268356,-0.05302899487614631,0.06765870099216699
1759645011913717500,2.315717529296875,0.0030050270348787305,-0.02184241397380829,0.08585399063527584
1759645011923675400,2.32567529296875,-0.005329670590162277,-0.026039281141757964,0.11674275763481855
1759645011933633300,2.33563330078125,-0.041321605947613714,-0.05864215858280658,0.08821911233142017
1759645011943590400,2.34559033203125,-0.009051905983686447,-0.07214461423456668,0.03712240069210529
1759645011953548500,2.355548583984375,0.06979308267235755,-0.06526771420240401,0.02844736519679427
1759645011963506400,2.36550634765625,0.08715747444927692,-0.05863982049524784,0.0438166376337409
1759645011973464600,2.375464599609375,0.06893383549451827,-0.033687165546417236,0.08543795718029142
1759645011983421400,2.38542138671875,0.020513211196660993,-0.025082418808341025,0.113263683347404
1759645011993379300,2.39537939453125,0.006910217779874802,-0.026215806752443314,0.11368132423758506
1759645012003336400,2.40533642578125,-0.02337912202179432,-0.054720016703009605,0.10054550994113087
1759645012013293600,2.41529345703125,0.03324468247592449,-0.06107318512201309,0.023250381075590847
1759645012023251200,2.425251220703125,0.0811368989855051,-0.03438625372648239,-0.019033347902446984
1759645012033209300,2.435209228515625,0.038650925433635706,-0.016325111857056616,0.002852612952142954
1759645012043166500,2.44516650390625,-0.0689198069691658,-0.008254618126153945,0.073841189019382
1759645012053124400,2.455124267578125,-0.11573358059227466,-0.017099603360891343,0.1719708699904382
1759645012063082500,2.46508251953125,-0.12930208721756933,-0.017343348988890648,0.2435917526118457
1759645012073039400,2.475039306640625,-0.07917991969883441,-0.007315875971317291,0.24782471400648354
1759645012082997200,2.484997314453125,-0.024034955582022666,-0.03912380364239216,0.10980229084715247
1759645012092955400,2.494955322265625,0.04988777424097061,-0.04408405639827251,-0.0057807753585278985
1759645012102912500,2.50491259765625,0.07354454416036606,-0.005445990446209907,-0.06988426808714866
1759645012112870400,2.514870361328125,0.05426175154149532,-0.005292845711112022,-0.07638298245668411
1759645012122828500,2.52482861328125,0.02092471460700035,-0.017692308557033538,-0.004806669629365205
1759645012132786200,2.5347861328125,-0.027991584253311157,0.019315525844693184,0.07088949960693716
1759645012142743300,2.544743408203125,-0.08166881390511989,-0.0040092356413602825,0.07885434100627899
1759645012152701400,2.554701416015625,-0.10328910956084728,-0.020742343777418137,0.0023274200342595576
1759645012162659300,2.564659423828125,-0.05494622667431831,-0.01016542018353939,-0.05789703930392861
1759645012172616400,2.574616455078125,-0.06284311740398407,0.030938743621110914,-0.07078676988482475
1759645012182574600,2.58457470703125,-0.09981061979532241,0.031057986086606978,-0.07604805141389369
1759645012192532200,2.5945322265625,-0.10853753160834312,0.03690612759292126,-0.04499751798138022
1759645012202489300,2.6044892578125,-0.09151274704933166,0.018327099329233168,0.007188742460310459
1759645012212447500,2.614447509765625,-0.05901917520165443,-0.0015969138026237486,0.07294584761485456
1759645012222405400,2.6244052734375,-0.023790040910243986,-0.025181787529587746,0.0961813233822584
1759645012232363500,2.634363525390625,-0.005371756166219711,-0.05270809235870838,0.068541767437011
1759645012242320400,2.6443203125,-0.007428104174137115,-0.05578560010790824,0.07043459544628858
1759645012252278300,2.6542783203125,-0.02934942860305309,-0.05373042114377021,0.09221519623026252
1759645012262236400,2.664236328125,-0.024770868641138075,-0.041969840723276135,0.08253522147610783
1759645012272193500,2.674193603515625,-0.005192892467975616,-0.04503974968791008,0.08069792304635047
1759645012282151400,2.6841513671875,0.016061492484807968,-0.06194120012819767,0.10907733757346869
1759645012292109600,2.694109619140625,0.00550035098195076,-0.054820554468035694,0.12733297910168767
1759645012302066400,2.70406640625,-0.012635609689354895,-0.05429214667975902,0.13172887597307562
1759645012312024300,2.7140244140625,-0.012364391532540321,-0.039483284604549404,0.10865502050817012
1759645012321982500,2.723982421875,-0.013528759136795996,-0.012810966256260872,0.07146569205969572
1759645012331940400,2.7339404296875,-0.0018418284744024275,0.008357493978738785,0.025935820767283436
1759645012341897500,2.7438974609375,0.04582651615142822,0.02694879720211029,0.00549772063344717
1759645012351855400,2.75385546875,0.03442190956175327,0.014408464580774306,-0.02153276350274682
1759645012361813200,2.763813232421875,0.03731178578436375,0.025571663630008696,0.008627689222246408
1759645012371770400,2.773770263671875,-0.014514263042807578,0.04586977077126503,0.039852264047414064
1759645012381728500,2.783728515625,-0.024122633865475654,0.03841127145886421,0.021376403897255657
1759645012391686400,2.793686279296875,-0.05898001223504543,0.039620647248625754,0.04111497745960951
1759645012401644500,2.80364453125,-0.07430851427018642,0.021257307562232017,0.05641849118396639
1759645012411601400,2.813601318359375,-0.05562777919769287,0.01828092209994793,0.05863982049524784
1759645012421559300,2.823559326171875,-0.01871697542965412,-0.019044892209768294,0.06737301591858268
1759645012431517400,2.833517333984375,0.0003717559218406677,-0.055308630245923994,0.07272986677661537
1759645012441474600,2.843474609375,-0.0053606502503156656,-0.034164135408401484,0.09808803378641605
1759645012451432400,2.853432373046875,-0.004397942698001861,-0.025731238105893135,0.09169628692269324
1759645012461390600,2.863390625,-0.03096504710614681,-0.026140403428673742,0.08621844003349542
1759645012471348200,2.87334814453125,-0.07158698035180568,-0.027346856608986853,0.08298340363502502
1759645012481305300,2.883305419921875,-0.10495616599023341,-0.015251345145702361,0.07136734625175595
1759645012491263500,2.893263427734375,-0.08460252926945686,-0.02908931636214256,0.06704334557279944
1759645012501221400,2.903221435546875,-0.07210194413661956,-0.026033435922861097,0.07026113857552409
1759645012511179500,2.913179443359375,-0.0748234780550003,-0.020358897417783735,0.0955864262290299
1759645012521136400,2.923136474609375,-0.05913491053581237,-0.010575754550099372,0.11443199647441506
1759645012531094300,2.93309423828125,-0.07453881589472293,-0.008825111490488051,0.08288008939102291
1759645012541052400,2.943052490234375,-0.04471007934212684,-0.004755085572600365,0.03395063878819346
1759645012551009500,2.953009521484375,-0.0009837503403425216,-0.0059451721400022505,-0.014278408460319041
1759645012560967400,2.962967529296875,0.021364859589934348,0.008082184168696403,0.006471387971192598
1759645012570925600,2.972925537109375,0.017581833919882772,0.025374095231294632,0.009144114311784505
1759645012580883500,2.982883544921875,-0.018247604352235793,0.02004851629436016,0.030487200461328027
1759645012590840300,2.99284033203125,-0.04962649295628071,-0.014143091642856598,0.0014595511585474012
1759645012600798500,3.002798583984375,-0.021622049221396444,-0.04179389963448047,-0.0356764396674931
1759645012610756400,3.01275634765625,-0.006806172883510589,-0.010202829584479331,0.007394055774062871
1759645012620714500,3.022714599609375,0.010725976675748825,0.016994389420747755,0.06838891496285796
1759645012630671600,3.032671630859375,-0.001312251642346382,-0.008900514814257621,0.1050242627903819
1759645012640629200,3.042629150390625,-0.011477087303996086,-0.03534662319123745,0.13117401856929062
1759645012650587400,3.05258740234375,-0.029017420169711112,-0.039594928285479544,0.08165595442354678
1759645012660545300,3.062545166015625,0.012149287477135657,-0.05637538269460201,0.016869740127772093
1759645012670502400,3.07250244140625,0.04071253413856029,-0.03374854034483433,-0.03996639194637537
1759645012680460500,3.08246044921875,0.03084580464065075,0.018170447462797164,-0.023858137710392472
1759645012690418400,3.09241845703125,-0.014388006314635276,0.036732524591684336,0.011142886913567782
1759645012700376600,3.10237646484375,-0.047971711486577986,0.01817979981303215,0.0635319764509797
1759645012710333400,3.11233349609375,-0.035761049211025235,0.010644143611192702,0.11726035176813601
1759645012720291300,3.122291259765625,-0.026565935364365575,0.01965162593126297,0.11974822306111454
1759645012730249500,3.13224951171875,-0.01421440331339836,-0.02561900990307331,0.06166092188209295
1759645012740206600,3.14220654296875,-0.07418518015146255,-0.0931143370270729,-0.02329845800101757
1759645012750164500,3.15216455078125,-0.11916472408473491,-0.08413783436715602,-0.012586071459203959
1759645012760122400,3.162122314453125,-0.13588847987055777,-0.019350597158074377,0.08103636122047901
1759645012770080300,3.172080322265625,-0.15340134020745752,0.017822656938433646,0.20524229434281585
1759645012780037400,3.182037353515625,-0.1402706404775381,0.019138415712118148,0.24120690330192446
1759645012789995500,3.19199560546875,-0.07403320446014404,-0.008708207112550735,0.17668650033548472
1759645012799953400,3.201953369140625,-0.011992635610699652,-0.030822423765063285,0.0822163647852838
1759645012809911600,3.21191162109375,0.02455810267329216,-0.040426118412613864,-0.030567572221159932
1759645012819868400,3.221868408203125,0.03563420796096325,-0.04514788623750209,-0.10148337531313299
1759645012829826300,3.231826416015625,0.030033903735876083,-0.02016658971607685,-0.08750117332041263
1759645012839784400,3.241784423828125,-0.014914660537242889,-0.0003857844471931457,-0.015466741462051868
1759645012849742300,3.251742431640625,-0.04551671954989433,-0.010648235264420509,0.07217866263464093
1759645012859699500,3.261699462890625,-0.07419920867681502,-0.0031371289819478987,0.15877221959084273
1759645012869657300,3.2716572265625,-0.05094342077374458,-0.015310966378450393,0.18003712593764065
1759645012879615200,3.281615234375,-0.04731704697012901,-0.03437514781057834,0.14763605467900634
1759645012889573400,3.291573486328125,-0.04440963509082794,-0.032601708397269245,0.06025646191164851
1759645012899530500,3.301530517578125,-0.027013094609975814,0.0015115736067295073,-0.014427169281244278
1759645012909488400,3.31148828125,-0.0006283610314130782,0.017328735941648483,-0.06583747691437601
1759645012919446500,3.321446533203125,-0.026208792489767072,0.015243161839246748,-0.03725800977051258
1759645012929404400,3.331404296875,-0.033873043507337566,0.01791267330944538,-0.01276990359351039
1759645012939361300,3.341361328125,-0.04161795854568481,-0.005525485423207283,0.06396013873517513
1759645012949319400,3.3513193359375,-0.021363690546154973,-0.03122399030327797,0.16232129037454723
1759645012959277300,3.36127734375,-0.009466332003474236,-0.06276128433942794,0.18124299459606408
1759645012969235500,3.3712353515625,-0.009852700972557067,-0.0945569370508194,0.10583674821704625
1759645012979193300,3.381193359375,-0.015536007305979729,-0.08732757031917572,0.01513137202784419
1759645012989150200,3.391150146484375,-0.03695172030031681,-0.04352349990606308,0.0053990825645625585
1759645012999109000,3.401109130859375,-0.04616495432555675,-0.01910217535495758,0.04524754721969366
1759645013009066800,3.411066650390625,-0.03887596636116505,-0.00189443544447422,0.11068301920443772
1759645013019025000,3.42102490234375,-0.04374737178981304,0.00487725064754486,0.15157748578116298
1759645013028982000,3.43098193359375,-0.027103110980987548,-0.01628010367155075,0.14423223758488893
1759645013038940000,3.44093994140625,0.0036111762344837187,-0.03210135765969753,0.12223536370173096
1759645013048898000,3.45089794921875,-0.003300210589170456,-0.025642390778660772,0.08145648632869124
1759645013058856000,3.46085595703125,-0.04084346704185009,-0.027249825975298878,-0.01348725808262825
1759645013068812800,3.470812744140625,0.005565817433595657,-0.0619441227376461,-0.0885702638566494
1759645013078771000,3.48077099609375,0.01838847412765026,-0.0015150807380676268,-0.06636983022540807
1759645013088728800,3.490728759765625,0.014469254857301711,0.025621932512521744,-0.03067483198791742
1759645013098687000,3.50068701171875,-0.0031961656928062437,0.0018687164813280105,0.03683905370607972
1759645013108644900,3.510644775390625,-0.025455928295850753,-0.02463350599706173,0.09447641916051507
1759645013118602000,3.52060205078125,-0.032172084808349606,-0.04560848948657512,0.1460696821451187
1759645013128559900,3.530559814453125,-0.024906477719545364,-0.04684183067381382,0.14834434907883404
1759645013138517800,3.540517822265625,-0.028729250878095625,-0.0594780248850584,0.11145926427394151
1759645013148476000,3.550475830078125,-0.03172434104084968,-0.04441957196295261,0.06142886669188737
1759645013158433000,3.56043310546875,-0.008402502164244652,-0.06147767426967621,0.030930706445127725
1759645013168391000,3.570390869140625,-0.0037573067069053647,-0.0421282461553812,0.04639379464536905
1759645013178349000,3.58034912109375,-0.0010679214924573899,-0.03977379198372364,0.04589183647260069
1759645013188307000,3.590306884765625,-0.006002455285191536,-0.0637175621509552,0.02051204215288162
1759645013198263800,3.600263916015625,-0.004719429737329483,-0.04814180735647678,0.010887450847774743
1759645013208222000,3.610221923828125,-0.024821722045540808,-0.04644377126693725,0.008801292223483324
1759645013218179800,3.620179931640625,0.0004126724541187286,-0.05884089602530002,0.010372779323905706
1759645013228138000,3.630137939453125,0.024200959798693654,-0.03782382695972919,0.05348506808057427
1759645013238096000,3.640095947265625,0.040683308044075966,-0.0387993939936161,0.03195245070829987
1759645013248052700,3.650052734375,0.023064064723253248,-0.016302900025248528,0.03332286227867007
1759645013258011000,3.660010986328125,0.004614800319075584,-0.032004327026009555,0.028337913472950456
1759645013267968800,3.66996875,-0.04827917000055313,-0.01980243257880211,0.054909401795268056
1759645013277927000,3.679927001953125,-0.110285252058506,-0.002308276942372322,0.09417714395299553
1759645013287884000,3.689884033203125,-0.10672025305330753,0.00528290883898735,0.1439236100271344
1759645013297842000,3.699842041015625,-0.07809037089645862,-0.009711246675252914,0.15403452354446054
1759645013307799800,3.7097998046875,-0.04435995073020458,-0.035808980005979534,0.12395385805740952
1759645013317758000,3.719758056640625,0.010978490132093429,-0.03911737390160561,0.11366042758002877
1759645013327715800,3.7297158203125,0.011843582528829574,-0.046110009267926216,0.10094517678320407
1759645013337673000,3.7396728515625,-0.021158523362874982,-0.04305938952565193,0.08999123657047749
1759645013347631000,3.749631103515625,-0.018584873482584953,-0.014675591084361075,0.1030253440581262
1759645013357589000,3.759589111328125,-0.03755319332480431,-0.004131400716304779,0.11620952754095196
1759645013367547100,3.769547119140625,-0.060581017690896986,-0.014131985726952552,0.1085934995792806
1759645013377503700,3.779503662109375,-0.043647418546676635,-0.03817044844031334,0.07440583716481923
1759645013387462000,3.7894619140625,-0.053576107364892954,-0.04814180735647678,0.04863368252664804
1759645013397420000,3.799419921875,-0.0348082785308361,-0.05306114358007907,0.0401556309081614
1759645013407378000,3.8093779296875,-0.0093763156324625,-0.0537877042889595,0.06406330684870482
1759645013417336000,3.819336181640625,-0.009082301121950149,-0.0645884997665882,0.08191855088248848
1759645013427293000,3.82929296875,-0.06266542274951935,-0.05869710364043712,0.11125585065633058
1759645013437250800,3.839250732421875,-0.1081201829791069,-0.059068275040388106,0.10985445942580699
1759645013447209000,3.849208984375,-0.13242927932739257,-0.015517302605509757,0.1301145726442337
1759645013457166800,3.859166748046875,-0.08842413338422775,0.019824059888720512,0.11920461770370602
1759645013467125000,3.869125,-0.06375380250811577,0.02089724207818508,0.05648147341758013
1759645013477082000,3.87908203125,-0.03880523921251297,0.02395019990801811,-0.03786342831775546
1759645013487040000,3.8890400390625,-0.00663841510117054,0.02409925298988819,-0.08053571822196244
1759645013496998000,3.898997802734375,0.02318213814496994,0.00044832828938961026,-0.10191358342394233
1759645013506955800,3.908955810546875,0.036862872973084444,-0.038627544558048246,-0.06344897434264421
1759645013516913000,3.918912841796875,0.02295943530499935,-0.03528934004604816,-0.013299480425566433
1759645013526871000,3.92887109375,0.020876199290156362,-0.0259112708479166,0.044414749657362695
1759645013536829000,3.938828857421875,0.0032844284981489178,-0.02130640740096569,0.09741218035146594
1759645013546787000,3.948787109375,-0.03927577933371067,-0.03358195160627365,0.13278276894018054
1759645013556745000,3.958744873046875,-0.056226914134621615,-0.04238835839629173,0.12015578094869851
1759645013566701800,3.968701904296875,-0.035329672056436535,-0.04207213205397129,0.0868259044073522
1759645013576660000,3.978659912109375,-0.020702011767029762,-0.022625088784098624,0.05868965098634362
1759645013588486000,3.99048583984375,-0.03173077078163623,-0.026629063728451727,0.06354439754113554
1759645013598444000,4.000444091796875,-0.06733867525756358,-0.011088964769244194,0.0644034985885024
1759645013608402000,4.01040185546875,-0.07459492999613285,-0.014038462224602699,0.044548020648211235
1759645013618358800,4.02035888671875,-0.05206278019249439,-0.012454407903552055,0.0879180835582316
1759645013628317000,4.03031689453125,-0.0017781155884265898,-0.014839841735363006,0.08455430621355771
1759645013638274800,4.04027490234375,0.036298809349536894,-0.02942717001438141,0.07860635759457946
1759645013648233000,4.05023291015625,0.039864977398514745,-0.05056581963300705,0.0591175210095942
1759645013658190800,4.06019091796875,-0.01401098969578743,-0.05843523783385753,0.04479498114660382
1759645013668148000,4.07014794921875,-0.06562427255511283,-0.053747372278571126,0.07425795312672853
1759645013678105900,4.08010595703125,-0.05522270552814006,-0.028618191719055174,0.11784896531105041
1759645013688063700,4.090063720703125,-0.07865326547622681,0.005371171644330024,0.1265615563377738
1759645013698022000,4.10002197265625,-0.03310264365673065,0.02011398274600506,0.09428162724077702
1759645013707980000,4.10997998046875,-0.00339022696018219,0.03801379657387733,0.04610971700698137
1759645013717937000,4.11993701171875,0.04563771558105945,0.010245499682426452,-0.004907938046753406
1759645013727895000,4.12989501953125,0.023468553870916366,0.03364332640469074,-0.043956484495848415
1759645013737853000,4.13985302734375,0.021645430096983907,0.007355623459815978,-0.05093859846815466
1759645013747810800,4.149810791015625,-0.007190203765034675,-0.01445756441950798,-0.05049304665774107
1759645013757768000,4.159767822265625,-0.033199674290418625,0.010943418818712233,-0.016516688906401397
1759645013767725800,4.169725830078125,-0.03120645464658737,0.017865327036380767,0.03600435644760728
1759645013777684000,4.17968408203125,-0.03335281902551651,-0.01515548355579376,0.11197057479694485
1759645013787642000,4.18964208984375,-0.03474573468863964,-0.04366378515958786,0.14669059052243827
1759645013797600000,4.19960009765625,-0.03103694329857826,-0.04178454728424549,0.15406111929044128
1759645013807558000,4.209557861328125,-0.03131692928373814,-0.05237959105670452,0.12923442880883812
1759645013817515000,4.219514892578125,-0.04176175093054771,-0.04105681753158569,0.07772416793256998
1759645013827473000,4.229472900390625,-0.04401858994662761,-0.034926351952552795,0.021012246759980917
1759645013837431000,4.23943115234375,-0.03181377288997173,-0.0020160159975290298,0.004780950666218996
1759645013847389000,4.249388916015625,-0.02818798360824585,-0.0071007719159126275,0.03068973729610443
1759645013857347000,4.25934716796875,-0.038355157357454296,-0.024229016849398613,0.036859219711273906
1759645013867304000,4.269303955078125,-0.07010755544900894,-0.01745733075737953,0.05435980508849025
1759645013877261800,4.27926171875,-0.0854980168044567,0.009576806640625,0.09084273883327841
1759645013887220000,4.289219970703125,-0.06198562379181385,-0.001741290709376335,0.07886208592131734
1759645013897177900,4.299177734375,-0.03347206149101257,0.010751695638895034,0.07872589232102035
1759645013907136000,4.309135986328125,-0.01443184545636177,0.028499533775448796,0.07022825921922922
1759645013917093000,4.319093017578125,-0.028287936851382253,0.02650339152216911,0.03360664765611291
1759645013927050800,4.32905078125,-0.040001170998811716,0.02736789939701557,-0.005167758026719093
1759645013937009000,4.3390087890625,-0.06501403170228004,0.026391747841238974,0.0026883623011410233
1759645013946966800,4.348966796875,-0.06240004981160163,0.03577273964881897,0.015601327627152203
1759645013956925000,4.358925048828125,-0.059577978128194806,0.01812310118973255,0.04704465976953506
1759645013966882000,4.368882080078125,-0.06814589998722076,0.0033288521617650985,0.08822101202756166
1759645013976840000,4.37883984375,-0.07579027726054191,-0.018581366351246832,0.12026420975923538
1759645013986798000,4.388798095703125,-0.052253334328532214,-0.04725742573738098,0.14086553763076662
1759645013996755700,4.398755615234375,-0.05375146393179893,-0.04766308392882347,0.14994360096901654
1759645014006714000,4.408714111328125,-0.06478723720908165,-0.04306757283210754,0.13599953902959822
1759645014016672300,4.41867236328125,-0.05046235925853252,-0.03936345761716366,0.09788929634392261
1759645014026629000,4.428629150390625,-0.043324177941679955,-0.020417349606752396,0.06592953911200165
1759645014036587300,4.438587158203125,-0.05202829340100288,0.014644026902318,0.04964505152627825
1759645014046545200,4.448545166015625,-0.024253566768765448,0.02632394330203533,0.04549450771808624
1759645014056503000,4.4585029296875,-0.017675941944122312,0.019424831438064574,0.020593290695548057
1759645014066461200,4.468461181640625,-0.03942950859069824,0.0023100305080413818,0.0077346859052777285
1759645014076418000,4.47841796875,-0.06465338169634342,0.00924655177295208,0.059035249553620814
1759645014086376200,4.488376220703125,-0.08517945237457751,0.02407002689540386,0.07375234169214963
1759645014096334300,4.498334228515625,-0.10108195490539074,0.002390110006928444,0.08199600003287195
1759645014106292200,4.508292236328125,-0.12220482243299484,-0.012287234643101691,0.10780366437584162
1759645014116250000,4.51825,-0.13529343658685683,-0.006014730244874954,0.14579028068184852
1759645014126208000,4.5282080078125,-0.13154606675207614,-0.012976970472931861,0.15782690156474707
1759645014136165000,4.5381650390625,-0.10906477035284041,0.004818798458576202,0.15002294981554148
1759645014146123300,4.548123291015625,-0.07151157702803611,0.014753917017579077,0.09548062776699662
1759645014156081200,4.5580810546875,-0.033306057274341584,0.013774258330464362,0.006247369956970215
1759645014166039300,4.568039306640625,-0.017566051828861236,-0.009370470413565635,-0.04656023725345731
1759645014175997200,4.5779970703125,-0.004318447721004486,-0.03315115897357464,-0.053114188941568136
1759645014185955000,4.587955078125,0.0107096100628376,-0.009996493357419967,-0.03520224628448486
1759645014195912200,4.597912109375,0.010145546439290045,0.0018856676161289215,0.005421732787787914
1759645014205870000,4.6078701171875,-0.047537411722540855,-0.012982815691828726,0.0292914148055017
1759645014215828200,4.617828125,-0.06861819367408752,-0.012546762362122535,0.03131415280476212
1759645014225786000,4.6277861328125,-0.12406418656408787,-0.007497077757120132,0.0377975234746933
1759645014235744300,4.637744140625,-0.09173837249875068,-0.0167658413618803,0.045713557296246286
1759645014245702100,4.6477021484375,-0.061606269085407256,-0.004866729253530502,0.04298033294007182
1759645014255659000,4.657658935546875,-0.03437047163546085,0.008827449578046799,0.05503507400155067
1759645014265617200,4.6676171875,-0.0030447745233774183,0.0374444722533226,0.07319529233127832
1759645014275575000,4.677574951171875,-0.027706922093033787,0.06972001743614674,0.06057444181963801
1759645014285533200,4.687533203125,-0.04248421998620033,0.03940145153999328,0.01862286740541458
1759645014295491300,4.6974912109375,-0.031046880170702933,0.011754735201597213,0.012319529477506875
1759645014305449200,4.70744921875,-0.045697921335697174,0.05591711753308773,0.05148030412942171
1759645014315406000,4.717406005859375,-0.009231354203820229,0.03855272575616836,0.05955547403544187
1759645014325364200,4.7273642578125,0.003909866920113563,0.028727497312426565,0.054228726054728026
1759645014335322000,4.737322021484375,-0.01491933671236038,0.026772856113314626,0.03930135216638446
1759645014345280300,4.7472802734375,-0.026427403676509857,0.039517186874151226,0.04151552108451724
1759645014355238100,4.757238037109375,-0.03101473146677017,0.023861352580785748,0.07613879843726754
1759645014365196300,4.7671962890625,-0.026755904978513715,0.04754793311655521,0.09612857028171419
1759645014375153200,4.777153076171875,0.0021954642176628112,0.026251462587714193,0.1162077739752829
1759645014385111000,4.787111083984375,0.026264906591176983,0.0011176058530807495,0.11194324839860201
1759645014395069200,4.797069091796875,0.025358313140273092,0.007056348252296447,0.10317512779235839
1759645014405027000,4.807027099609375,0.029732290440797803,-0.011850012269616126,0.08085749752223491
1759645014414985200,4.816985107421875,0.05113163682222366,-0.0207002582013607,0.05464183690026402
1759645014424943000,4.826943115234375,0.041758243799209595,-0.014713000485301017,0.053046822793781756
1759645014434901200,4.8369013671875,0.005610241097211838,0.0022708675414323805,0.06972834687307476
1759645014444858000,4.846858154296875,0.015004092386364937,-0.012435703203082083,0.061129737614840265
1759645014454816000,4.85681591796875,0.04027355819940567,-0.06437164214551448,0.07008695105239748
1759645014464774100,4.866774169921875,-0.020150807625055313,-0.08817863419055938,0.07649550292044878
1759645014474732300,4.876732177734375,0.0034662148058414457,-0.04602525359392166,0.09265008051618934
1759645014484690200,4.886690185546875,0.039271103158593175,-0.05986030220091343,0.15332462170943617
1759645014494648300,4.8966484375,0.013734510841965674,-0.08198679381310939,0.19065028988867996
1759645014504606200,4.906606201171875,-0.13549685020446778,-0.08458440909087657,0.25090309853851794
1759645014514563000,4.91656298828125,-0.19303718502521514,-0.06143091251850128,0.2765685779318213
1759645014524521200,4.926521240234375,-0.0682446841865778,-0.07926935154795646,0.23522841341421008
1759645014534479000,4.93647900390625,0.04225011896938086,-0.0850929431349039,0.246874573674798
1759645014544437200,4.946437255859375,0.05006897602677345,-0.06539630901813506,0.24135946351513266
1759645014554395100,4.95639501953125,0.025319734695553778,-0.0456008907020092,0.24575828299596905
1759645014564353300,4.966353271484375,-0.004106266275048256,-0.04416705850660801,0.22700988951474427
1759645014574310100,4.97631005859375,-0.02616524560898542,-0.04649228658378124,0.20483108319342136
1759645014584268000,4.98626806640625,-0.011005378139019011,-0.0272054023116827,0.1995757930137217
1759645014594226200,4.99622607421875,-0.003357493734359741,0.00878244139254093,0.22615195751115677
1759645014604184000,5.00618408203125,0.051664136263728136,0.014101006066799163,0.1881480978094041
1759645014614142200,5.01614208984375,0.10368103148788213,0.012570143237709998,0.1444967337399721
1759645014624100000,5.02610009765625,0.1362342245683074,0.0024736966371536255,0.15265943579897284
1759645014634058200,5.036058349609375,0.08507365391254425,-0.01251519818007946,0.11620192875638603
1759645014644016000,5.04601611328125,0.04343465257883072,-0.01286065061688423,0.09341229706034064
1759645014653973000,5.055972900390625,-0.012741992673277854,-0.06800678377747535,0.11290332560241222
1759645014663931100,5.06593115234375,0.006709726771712303,-0.13780688071250916,0.15287030207067728
1759645014673889300,5.07588916015625,0.02257774251103401,-0.19944588302373886,0.1814712503939867
1759645014683847200,5.08584716796875,0.08444587740302086,-0.2560854696124792,0.2221487132191658
1759645014693805300,5.095805419921875,0.10976444305479525,-0.2852425905138254,0.21276173006221652
1759645014703763200,5.10576318359375,0.10554127240180969,-0.3085597532153129,0.2091952697522938
1759645014713721000,5.11572119140625,0.1301011286407709,-0.29720190837681293,0.17554624425917864
1759645014723678200,5.12567822265625,0.17919775250405073,-0.19601240144371984,0.1503442907243967
1759645014733636000,5.135635986328125,0.10836831252127885,-0.15550503448843955,0.11580416161045431
1759645014743594200,5.14559423828125,0.07379179691970347,-0.07701660418510436,0.022512276059389113
1759645014753552100,5.15555224609375,0.10162439121901988,-0.05359481206536293,-0.059992842539399856
1759645014763510300,5.16551025390625,0.09866203428208828,-0.07346329561769963,-0.09973711616769432
1759645014773468200,5.17546826171875,0.08028174346089363,-0.06375497155189513,-0.07030965389236807
1759645014783426000,5.185426025390625,0.0636851211860776,-0.06936579717099667,-0.003937047187983989
1759645014793384200,5.19538427734375,0.014290975680947303,-0.10707155070900916,0.06891673822924495
1759645014803341000,5.205341064453125,-0.005073065480589866,-0.15496435174047946,0.11495879682749509
1759645014813299200,5.21529931640625,0.002910334488749504,-0.19989011965990067,0.17694661257639527
1759645014823257000,5.225257080078125,0.05923398699611425,-0.19903964031040666,0.2280091296851635
1759645014833215200,5.23521533203125,0.09770867908000945,-0.19562310986518858,0.26562749720066786
1759645014843173000,5.245173095703125,0.11006284147948026,-0.17858605034649372,0.2629486333802342
1759645014853131000,5.255131103515625,0.08727028717398642,-0.21042028150260447,0.2414576631926
1759645014863089200,5.265089111328125,0.07074468430876732,-0.2731955943673849,0.14723638783693313
1759645014873047000,5.275047119140625,0.11187222898900508,-0.3842337106198072,0.0012716273710131644
1759645014883004200,5.285004150390625,0.1924333739131689,-0.3896504749715328,-0.04140416966453194
1759645014892962300,5.29496240234375,0.32363515727221964,-0.43225101481378075,-0.05447261781319976
1759645014902920200,5.304920166015625,0.45163814458996054,-0.48579205086529254,-0.17502733495160935
1759645014912878000,5.314878173828125,0.3988496804714203,-0.3737935651481151,-0.2623011292569339
1759645014922836000,5.3248359375,0.1746878738641739,-0.2455108841061592,-0.21585034372732043
1759645014932794000,5.334794189453125,0.0292705181479454,-0.08007657627761364,-0.10464841521531343
1759645014942752000,5.344751953125,-0.09453092582672834,0.07164835515022278,-0.09397183063924312
1759645014952710100,5.354710205078125,-0.22325755124390123,0.06760989341437816,-0.05363996638134121
1759645014962667300,5.364667236328125,-0.2545280110374093,-0.009566869768500328,0.019904577779024837
1759645014972625200,5.374625244140625,-0.13596943615227938,-0.12031214055418968,0.1130982636526227
1759645014982583000,5.3845830078125,0.12021189505010843,-0.30911738709807396,0.216715582254529
1759645014992541200,5.394541259765625,0.3246022487387061,-0.3476350415408611,0.34312574742287394
1759645015002498800,5.404498779296875,0.310010536545515,-0.3585352057397365,0.3753082074947655
1759645015012457000,5.41445703125,0.1359074768319726,-0.38481940155327315,0.3373990403391421
1759645015022414800,5.424414794921875,-0.012556406973302363,-0.45986265983879565,0.27813977277129887
1759645015032373000,5.434373046875,-0.04951397249251604,-0.5047177006095648,0.20556158942505717
1759645015042329900,5.444329833984375,-0.10845043784677982,-0.5375988104701042,-0.013162117781490087
1759645015052287700,5.454287841796875,-0.2050833043888211,-0.5661275703400374,-0.07599953609704971
1759645015062246000,5.464245849609375,-0.2230190663129091,-0.4506938494771719,0.028865006086975335
1759645015072203800,5.474203857421875,-0.21475889522880315,-0.2916904514789581,0.15922551631629467
1759645015082162000,5.484161865234375,-0.1557376742005348,-0.32086744612455365,0.23227657787129283
1759645015092119800,5.494119873046875,-0.06112988374531269,-0.49050095920860765,0.3191001441910863
1759645015102078000,5.504077880859375,-0.020835575018823146,-0.48128187996447086,0.4109321863226592
1759645015112036000,5.5140361328125,-0.10053776502609252,-0.2804173623144626,0.47022725585624575
1759645015121993700,5.52399365234375,-0.17356442279219628,-0.13420213421881197,0.43717751143053174
1759645015131950800,5.533950927734375,-0.2303147762790322,-0.013232406538724898,0.36191345000118014
1759645015141909000,5.543908935546875,-0.23672113618999718,0.04524491687119007,0.33326223279535766
1759645015151867000,5.553866943359375,-0.24783333570435642,0.1176665944814682,0.33695874922573565
1759645015161825000,5.563824951171875,-0.23579393834248183,0.16823124507069587,0.36881548447459933
1759645015171783000,5.573782958984375,-0.18574366701617837,0.13624386917948722,0.40826296711340543
1759645015181741000,5.583740966796875,-0.16019669943600892,0.013652677777409552,0.27513138473555443
1759645015191698700,5.59369873046875,-0.20245967788696287,-0.010332008922100067,0.12433496632948517
1759645015201656800,5.60365673828125,-0.09007833033204078,-0.009118541479110717,0.025547552102059123
1759645015211614700,5.61361474609375,-0.018044775256514548,-0.08659574891328811,-0.003387158220261335
1759645015221571800,5.62357177734375,-0.10380115073621272,-0.17706980056464672,-0.03641001463904977
1759645015231530000,5.633530029296875,-0.20163243328258393,-0.26670973947942256,-0.047223377337306735
1759645015241488000,5.64348779296875,-0.2007733322352171,-0.3346253378421068,-0.05585033590719103
1759645015251446000,5.653446044921875,-0.2095576733238995,-0.37382863646149633,-0.04576660265773534
1759645015261404000,5.66340380859375,-0.1805712328143418,-0.49029637654721736,-0.05628843506351113
1759645015271361800,5.67336181640625,-0.09926993704736232,-0.5705237594723701,-0.06852803117260337
1759645015281320000,5.68331982421875,-0.12352350381612777,-0.5719809725433588,-0.040419542541354894
1759645015291277800,5.69327783203125,-0.19284093180075287,-0.5905570781975984,-0.037866497057676314
1759645015301236000,5.703236083984375,-0.3248560773693025,-0.5952753388911486,-0.07740487285032868
1759645015311193000,5.713193115234375,-0.40378231456801295,-0.5854717377573251,-0.09167056795954703
1759645015321150700,5.723150634765625,-0.42395971793904896,-0.5105652575939893,-0.057007835379242894
1759645015331108900,5.73310888671875,-0.5238707293689251,-0.40793139707148074,0.06781637577190995
1759645015341066800,5.743066650390625,-0.5757574223421513,-0.37720892654955385,0.15797946177795527
1759645015351025000,5.75302490234375,-0.5783795875392854,-0.34561142675876616,0.2709692966200411
1759645015360982800,5.762982666015625,-0.5259937128722667,-0.25765023471117016,0.4548559375926852
1759645015370941000,5.77294091796875,-0.34635786121189593,-0.2407137129575014,0.5085254223294556
1759645015380899000,5.782899169921875,-0.2135467429600656,-0.2981611087977886,0.3799751763924956
1759645015390857000,5.79285693359375,-0.12615955140814183,-0.3053291007310152,0.3094499800533056
1759645015400815000,5.802815185546875,0.04695405887663364,-0.40567864970862866,0.1909738227546215
1759645015410772000,5.81277197265625,0.1471971518050879,-0.5201087464869022,0.06312734117284417
1759645015420729900,5.822729736328125,0.08038345026969909,-0.5172919355005026,-0.07653539653941989
1759645015430688000,5.83268798828125,0.04318440414480865,-0.5027928700268268,-0.1406406428337097
1759645015440646000,5.84264599609375,0.05933766656629741,-0.48668695387840266,-0.129237497548759
1759645015450604000,5.85260400390625,0.05046053262762725,-0.4470803351551294,-0.08932970392182468
1759645015460562000,5.86256201171875,0.0320545959085226,-0.4001981724709272,-0.0626401421777904
1759645015470519800,5.872519775390625,-0.023352234014868734,-0.3517787172168493,-0.09180705382078885
1759645015480477700,5.882477783203125,-0.034704818156361575,-0.31698154460191724,-0.18007395081669092
1759645015490435800,5.892435791015625,0.004900047001242637,-0.2966828529387712,-0.31962197610810394
1759645015500394000,5.90239404296875,0.10900047294497489,-0.32058979822695255,-0.36529213265404104
1759645015510350800,5.912350830078125,0.21983817125447094,-0.3641641515374183,-0.34707974574565886
1759645015520309000,5.92230908203125,0.24666071172840892,-0.4489280088484287,-0.2883760662339628
1759645015530267000,5.932266845703125,0.2636223679233342,-0.5570768334001303,-0.18255875336974858
1759645015540224800,5.942224853515625,0.26044074221253394,-0.6615431700468063,-0.08383169102743268
1759645015550183000,5.952182861328125,0.24238902575857935,-0.7080687743782996,-0.005894610996544361
1759645015560140800,5.962140869140625,0.21940504053421317,-0.6986135482907295,0.0925013196952641
1759645015570099000,5.972098876953125,0.1989507929831743,-0.694923461601138,0.11201353715583681
1759645015580056800,5.982056884765625,0.22417232800126075,-0.6241735165953636,0.07146364623308181
1759645015590015000,5.992014892578125,0.22319497086908666,-0.503191513955593,0.05363733603283763
1759645015599972900,6.001972900390625,0.2446603682240471,-0.4389227476626634,0.02609934076592326
1759645015609929700,6.0119296875,0.3188490555068478,-0.5197305608242749,-0.08362506253942847
1759645015619887900,6.021887939453125,0.3773217027416453,-0.6391647495001554,-0.21074629858657717
1759645015629845800,6.031845703125,0.3972258786618709,-0.7431593769818544,-0.31225057055726646
1759645015639804000,6.041803955078125,0.4338496821820736,-0.8544359781652688,-0.36581688718050714
1759645015649761800,6.05176171875,0.4318482426991686,-0.9404799384146928,-0.3218019504956901
1759645015659720000,6.061719970703125,0.4074491665124893,-0.9021937546402216,-0.16475085560902952
1759645015669678000,6.071677978515625,0.48625616124570364,-0.737503543177247,0.03437865494191646
1759645015679636000,6.081635986328125,0.534521887242794,-0.5227344188153743,0.23389131959155202
1759645015689593900,6.09159375,0.503795909589529,-0.41600948958694933,0.32960502546206116
1759645015699551700,6.1015517578125,0.44513913795948024,-0.28123744652569294,0.2339844047024846
1759645015709508900,6.1115087890625,0.3956137672901153,-0.24993279220163822,0.05895166292339563
1759645015719467000,6.121467041015625,0.33277298797369004,-0.2267705278009176,-0.08272431430742144
1759645015729425000,6.1314248046875,0.2468377670620568,-0.2591466107487678,-0.2464258069939911
1759645015739383000,6.141383056640625,0.12787347918655723,-0.38276831424236296,-0.417072296512872
1759645015749341000,6.1513408203125,-0.029044929231144486,-0.44053018285930157,-0.49685953445509073
1759645015759298800,6.161298828125,-0.18717092334032057,-0.4349713796883821,-0.521132098185271
1759645015769256700,6.171256591796875,-0.2364695360491052,-0.3829039233207702,-0.4636699431672692
1759645015779214800,6.18121484375,-0.2039969704568386,-0.32237843520939347,-0.34407208836227654
1759645015789173000,6.191173095703125,-0.1649240567514673,-0.20905191575884818,-0.12311097749248147
1759645015799131000,6.201130859375,-0.13847323566675185,-0.09356091175079345,0.12289075887054204
1759645015809089000,6.211089111328125,-0.08722126040048897,-0.08275719366371631,0.30166634043976664
1759645015819046000,6.2210458984375,-0.058979427713155744,-0.17201368621885776,0.35902664251849054
1759645015829003800,6.231003662109375,-0.026028759747743605,-0.16826806994974614,0.396178561566025
1759645015838962000,6.2409619140625,-0.05184241544008255,-0.17544716779887676,0.4055392412379384
1759645015848919800,6.250919921875,-0.11292495291233062,-0.15674305185079573,0.425159887509048
1759645015858878000,6.2608779296875,-0.20338314940743146,-0.13826689943969248,0.4487983911193907
1759645015868835800,6.2708359375,-0.2667524095773697,-0.15760639068186283,0.4922051327779889
1759645015878794000,6.2807939453125,-0.24623693335838615,-0.15388064815700053,0.5686868994340301
1759645015888751900,6.290751953125,-0.22843108142428098,-0.01166296526491642,0.6515351323820651
1759645015898709800,6.300709716796875,-0.2726886677585542,0.15479133326113223,0.533266626484692
1759645015908668000,6.31066796875,-0.40489378294125195,0.16974983294010162,0.29068609674200413
1759645015918625800,6.320625732421875,-0.550047957676649,0.2052250509470701,0.19924539201557634
1759645015928583000,6.3305830078125,-0.5458638769250362,0.2507043610960245,0.05243336707055568
1759645015938541000,6.340541015625,-0.5556956081748008,0.2688116801947355,-0.010984481481462716
1759645015948499000,6.3504990234375,-0.5894577386535704,0.2597708801269531,0.0409725002489984
1759645015958457000,6.36045703125,-0.5147453197576105,0.3022650369852781,0.15201500041559338
1759645015968414700,6.370414794921875,-0.543831128988415,0.36747488352060315,0.2669982010319829
1759645015978372900,6.380372802734375,-0.6875332052193581,0.4461912773609161,0.2497862233377993
1759645015988330800,6.390330810546875,-0.8949708176493644,0.4421832107633352,0.12062193715572357
1759645015998289000,6.400288818359375,-0.8679331731200217,0.27131168031692504,0.09714081606417894
1759645016008246500,6.41024658203125,-0.798109841439873,0.1525789179086685,0.12846724382862448
1759645016018204400,6.420204345703125,-0.7396271112024784,0.09705401456356048,0.17990312429443
1759645016028162600,6.43016259765625,-0.6268282688878476,-0.11131751771569251,0.17626374487876892
1759645016038119400,6.440119384765625,-0.5594551068387925,-0.32079321184456344,0.18237404445260763
1759645016048077300,6.450077392578125,-0.47591655353903767,-0.4954261406511068,0.22155630028396844
1759645016058035500,6.460035400390625,-0.3883060746252536,-0.6691624128788709,0.3298725903570652
1759645016067993300,6.469993408203125,-0.38596667189225553,-0.6473422107368707,0.33151275877952574
1759645016077951500,6.479951416015625,-0.35572818549498914,-0.6642541825711726,0.33697993814423677
1759645016087909400,6.489909423828125,-0.35832141685858365,-0.7630547485411167,0.4505530527669936
1759645016097867500,6.499867431640625,-0.4079004174113273,-0.7033610350787639,0.7203890345081686
1759645016107825200,6.5098251953125,-0.3783433374069631,-0.5673585734397173,0.8595314016081392
1759645016117783300,6.519783203125,-0.3765127609789371,-0.47749476264119145,0.9044893912967293
1759645016127741400,6.529741455078125,-0.43112449500188227,-0.48803310779035086,0.9707311381630599
1759645016137699300,6.53969921875,-0.4651568207241594,-0.5480956545650959,0.9892799174189567
1759645016147657500,6.549657470703125,-0.5847007533848285,-0.563185087147355,0.9447758089777082
1759645016157614600,6.559614501953125,-0.7935539317011833,-0.5271463900387287,0.9312820480890571
1759645016167572500,6.569572509765625,-0.9126536277256906,-0.46992111251652235,0.959822498396784
1759645016177530400,6.5795302734375,-1.035803037532419,-0.3858247792035341,1.0243275576636195
1759645016187488300,6.58948828125,-1.0924420395992696,-0.5307435377478599,0.9375858244083821
1759645016197446400,6.5994462890625,-1.246651919710636,-0.5679565393328666,0.9149519677959382
1759645016207404300,6.609404296875,-1.3921240743540226,-0.5888847610712051,0.8113412250652908
1759645016217362400,6.619362548828125,-1.4645276317857205,-0.6522118625998496,0.7085707325510681
1759645016227320300,6.6293203125,-1.53976743555665,-0.633919250062108,0.6611420419000089
1759645016237278500,6.639278564453125,-1.5853811857402325,-0.5827262384414672,0.6104732002839446
1759645016247236600,6.649236572265625,-1.573484703980386,-0.47826633153557774,0.5478809889011085
1759645016257194200,6.6591943359375,-1.5617150634706018,-0.29738427920639515,0.48474926381409167
1759645016267151400,6.6691513671875,-1.5183261497296392,-0.10457739580571651,0.38986674807071686
1759645016277109500,6.679109619140625,-1.4673881357833742,0.07408990308344364,0.32066374024599786
1759645016287067400,6.6890673828125,-1.3311444127343595,0.32884558539688585,0.274256501597166
1759645016297025500,6.699025634765625,-1.1270808067820965,0.5941799448698759,0.36496260843873024
1759645016306983400,6.7089833984375,-1.0066530770242215,0.7777987286865711,0.44695510134026406
1759645016316941600,6.718941650390625,-1.0419665285982191,0.942491862758994,0.4369754129871726
1759645016326899200,6.728899169921875,-1.1474189536727963,1.085230354654789,0.4040817359060049
1759645016336857300,6.738857421875,-1.1582438606783747,1.2576415157586336,0.4680295996814966
1759645016346815200,6.748815185546875,-1.2402348922751842,1.3845762893229723,0.4902827864132821
1759645016356773400,6.7587734375,-1.2881237477838992,1.3655384113758802,0.4283627752035856
1759645016366731500,6.7687314453125,-1.3541700451433658,1.3510153805047274,0.3353529214642942
1759645016376689400,6.778689453125,-1.5089512954019009,1.43012398853302,0.25770254942029713
1759645016386647600,6.7886474609375,-1.5603518122933804,1.4315525600314138,0.22907208274155855
1759645016396604400,6.7986044921875,-1.5152395818911493,1.2832307150453328,0.19017273550480604
1759645016406562300,6.808562255859375,-1.5249967135347424,1.1950514963328838,0.13139058392941952
1759645016416520400,6.8185205078125,-1.476727772667259,1.1020943956941365,0.06151259945258498
1759645016426478300,6.828478271484375,-1.4285352580368518,1.0910445938915014,0.021402561251819132
1759645016436436500,6.8384365234375,-1.3428534090980886,1.1213567300468683,0.030579116528481245
1759645016446394400,6.848394287109375,-1.2160546830035746,1.1727093161433935,0.05466726360246539
1759645016456352500,6.8583525390625,-1.1836872217535972,1.0688865380972623,-0.009180354668945073
1759645016466309400,6.868309326171875,-1.1155659447509796,0.8918138149231671,-0.17444252080097794
1759645016476267300,6.878267333984375,-0.9969897611439228,0.9118845430493354,-0.29628698548898097
1759645016486225400,6.888225341796875,-0.9139982472676783,0.9577303484231233,-0.34946532570794225
1759645016496183300,6.898183349609375,-0.7107003649909048,0.974478654128313,-0.39978929940909147
1759645016506141400,6.908141357421875,-0.5308417374253273,1.0435516058325767,-0.42986821133047337
1759645016516099300,6.918099365234375,-0.44932194006945936,1.1488204910337925,-0.4450453221961856
1759645016526057500,6.928057373046875,-0.40165187841057776,1.2631003656864166,-0.4506723682977259
1759645016536015600,6.938015625,-0.2787292996296659,1.339376380637288,-0.44085503089949485
1759645016545973200,6.94797314453125,-0.23267476514233276,1.455213421604037,-0.3953586234852671
1759645016555931400,6.957931396484375,-0.11220715089864097,1.5305518634438513,-0.39378246020972724
1759645016565889300,6.96788916015625,-0.006960482095810584,1.562921516650915,-0.3681184421211481
1759645016575846400,6.977846435546875,0.06690203740596772,1.5563152502536772,-0.34868630415946245
1759645016585804500,6.987804443359375,0.08165830164426006,1.4982780718266964,-0.4053060170039534
1759645016595762400,6.997762451171875,0.03334696467346512,1.3712129498809575,-0.5328058771051466
1759645016605720300,7.00772021484375,-0.03962651073383167,1.1857418161958455,-0.6652505001321435
1759645016615678200,7.01767822265625,0.005833528459072113,0.9506050265878438,-0.7943008045457303
1759645016625636400,7.02763623046875,0.13472820391952992,0.7262824764609337,-0.8360184240736067
1759645016635594200,7.03759423828125,0.2804284682303667,0.5376432341337204,-0.8651017490863799
1759645016645552400,7.047552490234375,0.36639877872169013,0.4123334314227104,-0.9077239162385463
1759645016655510500,7.057510498046875,0.4923994863063097,0.23597207138836382,-0.967391618476808
1759645016665468400,7.067468505859375,0.6608920126616954,-0.03194412127137184,-0.9893525442637503
1759645016675426600,7.077426513671875,0.8060632846623659,-0.25018472113609314,-0.935806832037121
1759645016685384200,7.08738427734375,0.9519915125101804,-0.4344312814623117,-0.8022948720395564
1759645016695342300,7.09734228515625,1.0973914056349545,-0.6230494810014963,-0.604273176600039
1759645016705299500,7.107299560546875,1.1499801093976945,-0.8383078501850366,-0.4104061166219413
1759645016715257300,7.11725732421875,1.117826802355051,-0.9611509705215692,-0.2020784234844148
1759645016725215500,7.127215576171875,1.0718283637028188,-1.0614163483470678,-0.07459872938841582
1759645016735173400,7.13717333984375,0.9220773626964539,-1.1796306398391723,-0.0033458032965660092
1759645016745131500,7.147131591796875,0.7651940986573695,-1.2848702989459038,0.015414426752924919
1759645016755089400,7.15708935546875,0.5751788918018341,-1.2631710928350686,0.03968669822216034
1759645016765047300,7.16704736328125,0.4331265555392951,-1.265889704144001,0.029151567943394182
1759645016775005400,7.17700537109375,0.39211481925845143,-1.3268869014203548,-0.030396161177009343
1759645016784963300,7.18696337890625,0.32524083890318867,-1.2984686161875725,-0.14762889428585768
1759645016794921500,7.19692138671875,0.3321720994710922,-1.2354513112604617,-0.2642668763719499
1759645016804879400,7.20687939453125,0.4194447247326374,-1.1657651960939168,-0.32069705799371
1759645016814837500,7.21683740234375,0.6285108151473104,-1.0445230812132358,-0.3099393710054457
1759645016824794400,7.22679443359375,0.8860948527544736,-0.9425853862613439,-0.2689522577092051
1759645016834752300,7.236752197265625,1.066215711452812,-0.924882556310296,-0.24996654834076762
1759645016844710400,7.24671044921875,1.2051907591618596,-0.8763771763384341,-0.26998233140930533
1759645016854668300,7.256668212890625,1.288320585530251,-0.7707984945356845,-0.2569873868882656
1759645016864626400,7.26662646484375,1.2937971172451972,-0.6735410663545132,-0.2069181186005473
1759645016874584300,7.276584228515625,1.251836628872156,-0.5446744479447603,-0.23666692178472876
1759645016884542500,7.28654248046875,1.1293313621878622,-0.3390793946415186,-0.25485315133854747
1759645016894500600,7.29650048828125,0.9481402439095079,-0.2178828724682331,-0.31142011108249423
1759645016904458200,7.306458251953125,0.8624357447475195,-0.09596154315173626,-0.34129239451587196
1759645016914416400,7.31641650390625,0.7590743006028234,0.06305880598127842,-0.3175615364469588
1759645016924374300,7.326374267578125,0.6689438016921282,0.19219722706973552,-0.32622824250534177
1759645016934332400,7.33633251953125,0.6179512810796499,0.283167537805438,-0.3221187613599002
1759645016944289500,7.34628955078125,0.5798099126033485,0.3159165457189083,-0.3584628711558878
1759645016954247400,7.356247314453125,0.5491745358429849,0.40563773317635055,-0.390318729621917
1759645016964205600,7.36620556640625,0.47906288874074815,0.44883390082418917,-0.3779530229151249
1759645016974163200,7.3761630859375,0.4890051676928997,0.39856794092059133,-0.30016718792319297
1759645016984121300,7.386121337890625,0.5576265762373804,0.36303193263709543,-0.22650267064496873
1759645016994079200,7.396079345703125,0.5719323110960424,0.3497591940879822,-0.11582052822336554
1759645017004037400,7.406037353515625,0.5839116488337517,0.3492775480508804,0.016751082184165714
1759645017013995500,7.41599560546875,0.5763863678954542,0.3569377074152231,0.09733502346202731
1759645017023953400,7.425953369140625,0.5627946265250444,0.3430482982724905,0.17846403140202163
1759645017033911600,7.43591162109375,0.5561591340333223,0.3934159649848938,0.2544556764535606
1759645017043869400,7.445869384765625,0.5854243914842605,0.38747897615134713,0.25510639544725416
1759645017053826300,7.455826416015625,0.5649173177674413,0.42724458482861516,0.20428513974845408
1759645017063784400,7.465784423828125,0.4894955815583467,0.4578033892214298,0.1701385399967432
1759645017073742300,7.475742431640625,0.4064173392467201,0.2984966243624687,0.021321751100569962
1759645017083700500,7.485700439453125,0.3929755277410149,0.16886778940856456,-0.20785729914680123
1759645017093658400,7.495658447265625,0.2833274045422673,0.23744331298470495,-0.3636575171895325
1759645017103616500,7.505616455078125,0.264610721373558,0.1295487554550171,-0.45467751228585834
1759645017113574400,7.515574462890625,0.33448096093535423,0.04230418724417686,-0.4818466742403805
1759645017123532500,7.525532470703125,0.3414838254347443,0.02797521764039993,-0.4212975129924714
1759645017133490400,7.535490478515625,0.3105249158084392,-0.002218260571360588,-0.27795418707132336
1759645017143448300,7.5454482421875,0.33076676271781325,-0.0727455027371645,-0.15398191657438873
1759645017153406500,7.555406494140625,0.34780455288887024,-0.06673135701417923,-0.045291678622364995
1759645017163363600,7.565363525390625,0.4163219165369868,-0.044371056646108624,0.056454731541126964
1759645017173321500,7.575321533203125,0.4781710544675588,-0.08571545894742011,0.09146627755910158
1759645017183279600,7.585279541015625,0.49220527890846133,-0.209594936594367,0.06133402801528573
1759645017193237500,7.595237548828125,0.44821547666490075,-0.23855039744377135,-0.0073236208863556385
1759645017203195400,7.6051953125,0.41869215279966593,-0.17774316978156565,-0.009166180013120175
1759645017213153300,7.6151533203125,0.4077110323190689,-0.15323884312212466,0.004151566721498966
1759645017223111400,7.625111328125,0.3868739959955215,-0.10762100128531456,0.04751549215167761
1759645017233069300,7.6350693359375,0.37078415419906374,-0.1350683956593275,0.12269494403749703
1759645017243027500,7.64502734375,0.33590982469469305,-0.16134265460073946,0.1483718216076493
1759645017252985600,7.654985595703125,0.3257122558072209,-0.16241116061508654,0.16836904610618947
1759645017262943500,7.664943603515625,0.4163797842040658,-0.21456863335371015,0.15080021779835223
1759645017272900400,7.674900390625,0.45825610142499207,-0.20342180091738699,0.2028654822088778
1759645017282858500,7.6848583984375,0.44388709207177157,-0.1465191794782877,0.24027868254110216
1759645017292816400,7.69481640625,0.38083442357033487,-0.09491232635974883,0.24164982476383445
1759645017302774500,7.7047744140625,0.3463248357251286,-0.049722354546189305,0.18500322391241789
1759645017312732400,7.714732421875,0.3624187691748142,-0.08846329635083675,0.09114990508630871
1759645017322690600,7.724690673828125,0.3596110182777047,-0.03215688723921776,0.05016308405101299
1759645017332648400,7.7346484375,0.32644290816932914,0.013014379873871803,0.03605491759106517
1759645017342606600,7.744606689453125,0.312948051302135,0.017549100694060325,0.026978900079429147
1759645017352564200,7.754564208984375,0.2524044430121779,-0.014462240594625472,0.05544160897582769
1759645017362521300,7.764521240234375,0.2668441795140505,-0.058598903962969774,0.09309928558841347
1759645017372479500,7.7744794921875,0.25035247891843315,-0.07903495827019213,0.13090192362964154
1759645017382437400,7.784437255859375,0.23366350218504667,-0.1069435404151678,0.143730425542593
1759645017392395500,7.7943955078125,0.23279402587413786,-0.13228314885497092,0.15060060357302427
1759645017402353400,7.804353515625,0.23514175804406404,-0.16645488304793835,0.14078662717565893
1759645017412311300,7.814311279296875,0.21587007134109734,-0.17945932604968548,0.1095649749599397
1759645017422269400,7.82426953125,0.22401363030821084,-0.15942600732445716,0.0454557831428945
1759645017432227300,7.834227294921875,0.25257746149152516,-0.09131108699738978,0.030169220553338524
1759645017442185500,7.844185546875,0.26437457453012464,-0.09656652330756187,0.06461845651343465
1759645017452143400,7.854143310546875,0.24285540116131304,-0.09551204581856727,0.07665873065814376
1759645017462100500,7.8641005859375,0.15400982749462128,-0.08672609729468822,0.15556801672205328
1759645017472058600,7.87405859375,0.06653232731074095,-0.09722352591156959,0.19149857728108763
1759645017482016300,7.884016357421875,0.04406359813213348,-0.1088560960382223,0.2265321890003979
1759645017491974400,7.893974365234375,-0.010719546934962272,-0.10143675969243049,0.2562016433380544
1759645017501932300,7.903932373046875,-0.04098492133915424,-0.10807809740304947,0.25402429929897186
1759645017511890400,7.913890380859375,-0.06605798779726028,-0.1158148291349411,0.20456454121172427
1759645017521848300,7.923848388671875,-0.13815525575876236,-0.11339315494596958,0.15163213857784866
1759645017531806500,7.933806396484375,-0.183994046869874,-0.13664075954258442,0.14255831302329897
1759645017541764600,7.9437646484375,-0.1370551855623722,-0.09475041379630565,0.15310454921796918
1759645017551721200,7.95372119140625,-0.10426847598701715,-0.03008183453083038,0.16899594583287833
1759645017561679400,7.963679443359375,-0.11082768837213515,0.01528933906853199,0.18485402470007536
1759645017571637500,7.973637451171875,-0.15648732352405786,0.011760580420494078,0.1566705711364746
1759645017581595400,7.983595458984375,-0.14632511821091174,-0.028873043262958524,0.12698679601252078
1759645017594043400,7.99604345703125,-0.12980711413025856,-0.05881400801837444,0.12088511813655495
1759645017604001500,8.00600146484375,-0.06765636290460825,-0.06248305191993713,0.13856763595193625
1759645017613959400,8.01595947265625,-0.03932312560677528,-0.10300327835679053,0.10479410729631781
1759645017623917300,8.025917236328125,-0.018972703756392,-0.10774842705726623,0.05927125026658177
1759645017633875500,8.03587548828125,-0.039623569858074185,-0.08224982866346836,0.04995908591151237
1759645017643832300,8.045832275390625,-0.021119652657210827,-0.057687049815058705,0.021238602861762046
1759645017653790500,8.05579052734375,-0.0008890577942132949,-0.00600011719763279,0.03535319906249642
1759645017663748600,8.06574853515625,0.05989303542673587,0.040645314121246334,0.05442249506115913
1759645017673706500,8.07570654296875,0.05079553673565387,0.08561550570428371,0.0730007926724851
1759645017683664400,8.085664306640625,0.07514993353039026,0.05704641382396221,0.023254472728818653
1759645017693622300,8.095622314453125,0.10403028331696987,0.0797948367267847,-0.021124621093273163
1759645017703580400,8.105580322265626,0.09126023359298706,0.07847790890932083,-0.03432502505853772
1759645017713538300,8.115538330078126,0.06924509340077638,0.07255085694789887,-0.05196779538542032
1759645017723495400,8.125495361328126,0.03844868085980415,0.04749532614648342,-0.03333879050016403
1759645017733453600,8.13545361328125,-0.003496609944105148,0.03444996661245823,-0.006492723020166158
1759645017743411500,8.145411376953126,-0.06508738919943571,0.01624035618305206,0.028624621459841727
1759645017753369300,8.155369384765624,-0.0670721332758665,0.015090601626038551,0.01673033165708184
1759645017763327500,8.165327392578124,-0.0917857187718153,0.0255278244882822,0.0782711342908442
1759645017773285400,8.175285400390624,-0.07093757653236389,0.0352004927188158,0.12854293941333889
1759645017783243500,8.185243408203124,-0.03188829943090677,0.036275428473949434,0.15269348419904707
1759645017793201400,8.195201416015625,-0.033149113146960736,0.03904197057783603,0.14549480486661195
1759645017803158500,8.205158447265624,-0.008923311167955398,0.05238192914426326,0.1296434480011463
1759645017813116700,8.21511669921875,0.01806289543509483,0.015338438907265663,0.06043517947942018
1759645017823074300,8.22507421875,0.04253478112965822,0.023854922839999196,-0.000528115527331829
1759645017833032400,8.235032470703125,0.01956657799631357,0.002141688203811645,-0.04504559490680694
1759645017842990300,8.244990234375,0.05076835646778345,-0.019128478839993475,-0.05656798265725374
1759645017852948500,8.254948486328125,0.04641600647717714,0.0025736498802900313,-0.03941927945762873
1759645017862906400,8.26490625,0.049998248878121376,-0.001247369712591171,-0.013994915343821048
1759645017872864500,8.274864501953125,0.04947159465551376,-0.006899111863970756,0.02325929503440857
1759645017882821400,8.2848212890625,0.04662263496518135,-0.012006079614162444,0.06937514952123165
1759645017892779300,8.294779296875,0.07612520830333233,-0.025607903987169264,0.10223463207185268
1759645017902737400,8.3047373046875,0.057769467401504515,-0.0153062902033329,0.14561024793982505
1759645017912695300,8.3146953125,0.05030132347792387,-0.01879354779720306,0.12674889560341834
1759645017922653400,8.3246533203125,0.04507014482617378,-0.021266659912467,0.07852467066049576
1759645017932611600,8.334611572265626,0.04306289665699005,-0.011786883905529975,0.06960574340671301
1759645017942569500,8.344569580078126,0.057009588944911954,-0.04279167850017547,0.026519758135080337
1759645017952527600,8.354527587890624,0.06543050354868173,-0.0663490796983242,-0.02902355764955282
1759645017962485500,8.364485595703124,0.05555792883187532,-0.057658408242464064,-0.03523322594463825
1759645017972442400,8.3744423828125,0.049875207020342344,-0.043888826087117194,-0.016275427496433258
1759645017982400500,8.384400390625,0.03712473877966404,-0.04334522072970867,-0.004087853835523128
1759645017992358400,8.3943583984375,0.06296528247892856,-0.044243046352267265,0.039171442176401616
1759645018002316500,8.404316650390625,0.032732056778669354,-0.04867664488554001,0.09811550631523132
1759645018012275000,8.41427490234375,0.028412147752940653,-0.0725625473856926,0.11186726055294274
1759645018022233000,8.424233154296875,0.024248013810813426,-0.08353577682077884,0.0884001679867506
1759645018032191000,8.43419091796875,0.006677578067779541,-0.07465338218510151,0.06849398277252912
1759645018042149000,8.444149169921875,-0.005269464835524559,-0.06843699188828468,0.03454115202724933
1759645018052106000,8.45410595703125,-0.014518354696035385,-0.043295536369085307,0.0009659224227070807
1759645018062063900,8.46406396484375,-0.03346329366266727,-0.03820493523180485,-0.03606295476704836
1759645018072022000,8.47402197265625,-0.041755613450706004,-0.04456161078214645,-0.0792114838808775
1759645018081980000,8.48397998046875,-0.03491787638515234,-0.03799100022017955,-0.05669920782148838
1759645018091938000,8.49393798828125,-0.01896276688426733,-0.07298164958059787,-0.02653875509649515
1759645018101896000,8.50389599609375,-0.0207677704796195,-0.07924538615047931,0.009181085321307183
1759645018111854000,8.51385400390625,-0.036679917621612546,-0.08706102833747863,0.01366407595425844
1759645018121812200,8.523812255859376,-0.03884849383234978,-0.08420154725313186,0.04717530041188001
1759645018131768800,8.533768798828126,-0.05356412466615438,-0.04756371520757675,0.09031681526303291
1759645018141727000,8.54372705078125,-0.01092792898863554,-0.05397825842499732,0.09593465514481067
1759645018151685000,8.55368505859375,-0.032948914399743075,-0.04162906446158886,0.07295125444233418
1759645018161643000,8.56364306640625,-0.056221653437614434,-0.020942250263690947,0.060868602460622784
1759645018171601200,8.57360107421875,-0.09879939692616461,0.005693827727437019,0.08358838379085064
1759645018181559000,8.58355908203125,-0.12386983303576707,0.0265910698056221,0.06918284181952476
1759645018191517200,8.59351708984375,-0.0808642195239663,-0.016408113965392112,-0.003112286801636219
1759645018201474800,8.603474853515625,-0.041783670501410956,-0.013463292685151099,-0.06107786129713058
1759645018211432000,8.613431884765625,-0.05228928242474794,0.0011111761122941971,-0.05567161833941936
1759645018221390000,8.62339013671875,-0.05206453375816345,0.03040507513582706,-0.005253390483558178
1759645018231348000,8.633347900390625,-0.0865457722917199,0.07914367934167385,0.08283551959693432
1759645018241306000,8.64330615234375,-0.03801262753009796,0.0962777694940567,0.135992524766922
1759645018251264000,8.653263916015625,0.016610066278278827,0.08729191448390483,0.14073270503133534
1759645018261222100,8.66322216796875,0.03952653922438621,0.06199789875149726,0.09389438148885965
1759645018271180000,8.673179931640625,0.008501578624546527,0.0660831222385168,0.03367196797728538
1759645018281138000,8.683137939453125,-0.013583119672536849,0.0657090282291174,-0.01852612903267145
1759645018291095000,8.693094970703125,0.03356850760281086,0.05762450597286224,-0.028732758009433746
1759645018301053000,8.703052978515625,0.013025778050720692,0.07022212173938751,-0.011359890665113925
1759645018311011000,8.713010986328126,-0.029882512566447257,0.07708440872430801,-0.0031336218506097793
1759645018320969200,8.72296923828125,-0.09752455468475818,0.09260404941737652,0.010562602807581424
1759645018330927000,8.732927001953126,-0.11911503972411155,0.08466974928677082,0.028373277047276494
1759645018340885000,8.742885009765626,-0.11647153947800397,0.06798048029243946,0.04784077858328819
1759645018350843000,8.7528427734375,-0.09969342315644025,0.06269231075644492,0.07481441796571016
1759645018360801000,8.762801025390624,-0.07452274154275655,0.06112462304830551,0.1324137894973159
1759645018370758100,8.772758056640624,-0.07358750651925802,0.011809680259227752,0.08386924655884503
1759645018380716000,8.782716064453124,-0.025680676962435246,-0.02979424976110458,0.02449059039503336
1759645018390674200,8.792674072265624,-0.010629530563950537,-0.037760114073753355,-0.00009176993668079376
1759645018400631800,8.8026318359375,0.01869564038068056,-0.036117607563734055,-0.007555237685143947
1759645018410590000,8.81258984375,-0.002918517795205116,-0.055172436645627015,0.05612696089148521
1759645018420547800,8.8225478515625,0.09363719185739755,0.044454643276333805,0.11598463274389505
1759645018430506000,8.832506103515625,0.003799392282962799,-0.008854922106862067,0.13042436924576759
1759645018440464100,8.842464111328125,-0.03388298037946224,0.010084171640872955,0.09212912538200617
1759645018450421000,8.8524208984375,-0.05375438654124737,-0.04381050015389919,0.05840776530504226
1759645018460379100,8.862379150390625,-0.11086480551213025,-0.05235387209355831,0.03783697870224714
1759645018470337000,8.8723369140625,-0.1357002638220787,-0.06450666670203209,0.04161357463151216
1759645018480295000,8.882294921875,-0.06364157430529593,-0.031840076375007624,0.0565109917730093
1759645018490253000,8.892253173828125,-0.026893559883534906,-0.02077916865646839,0.11575053172707557
1759645018500211000,8.9022109375,0.025322949565947054,-0.011793313646316528,0.12934183470606803
1759645018510169000,8.912169189453126,0.02917553334087133,-0.04549684580564499,0.08806582146584988
1759645018520127000,8.922126953125,0.030355098514258858,-0.0401502240806818,0.03944382937699556
1759645018530084000,8.932083984375,0.045614626966416834,-0.03331307153701782,-0.0074137833878397934
1759645018540042000,8.9420419921875,0.04652385076582431,-0.01984802528619766,-0.012073591892421244
1759645018549999900,8.951999755859376,0.03883329626321792,0.0051876317709684365,0.029073826532065868
1759645018559958000,8.9619580078125,0.0008194996893405913,0.0033317747712135314,0.05113134456127882
1759645018569916000,8.971916015625,-0.022490064227581024,-0.023909867897629736,0.07072919447869062
1759645018579874000,8.9818740234375,-0.06262538300007581,-0.037352117794752115,0.09211042068153619
1759645018589832200,8.991832275390625,-0.10740443592518567,-0.0065723641276359554,0.12785451875776052
1759645018599790000,9.0017900390625,-0.0854608996644616,-0.011444354078173636,0.16385609872639179
1759645018609748200,9.011748291015625,-0.031018530859053133,0.0019715923339128495,0.1874634765461087
1759645018619705000,9.021705078125,-0.03153174107819796,-0.002437456279993057,0.17928163139522074
1759645018629663000,9.0316630859375,-0.044565410174429415,-0.03296820362210274,0.12498539306223391
1759645018639621000,9.04162109375,-0.037217970021069045,-0.005256020832061767,0.08413871114999055
1759645018649579000,9.0515791015625,-0.0010696750581264496,-0.010326748225092887,0.05384031125903129
1759645018659537200,9.061537109375,0.00589987169355154,-0.016918986096978186,0.05082096343785524
1759645018669495000,9.0714951171875,0.00762479579001665,-0.0316711495488882,0.07294365565776824
1759645018679453200,9.081453125,0.030309505806863306,-0.04784253214895725,0.08889525802731514
1759645018689410800,9.091410888671875,0.038114042077958585,-0.04055412870645523,0.09298749577701092
1759645018699368000,9.101367919921875,0.1024582116946578,-0.053988779819011685,0.07637626045495272
1759645018709326000,9.111326171875,0.13071750697344542,-0.09823065712749958,0.10049451040625572
1759645018719284000,9.121283935546876,0.10227584086507559,-0.11619593740701675,0.13792583091706037
1759645018729242000,9.1312421875,0.04346475545614958,-0.09574527005255222,0.19537731841057537
1759645018739200000,9.141199951171876,-0.016164076076447962,-0.03450257358253002,0.21889847925156353
1759645018749158000,9.151157958984374,-0.047453825092315674,-0.013989362385869026,0.24982085625976322
1759645018759116000,9.161115966796874,-0.10549801778197287,0.017300678890943527,0.213116096457839
1759645018769074000,9.171073974609374,-0.15409809029996394,-0.05602993025779724,0.1212675415828824
1759645018779031000,9.181031005859374,-0.1518666779860854,-0.07977671654820442,0.036275136213004586
1759645018788989200,9.1909892578125,-0.14132394892275332,-0.03606500059366226,0.002047287918627262
1759645018798947000,9.200947021484374,-0.1225198797315359,-0.04347790719866752,0.006603343787789344
1759645018808905200,9.2109052734375,-0.1294713063046336,-0.026546061620116232,0.004464578193426132
1759645018818862800,9.22086279296875,-0.12242460266351698,0.021785130828619003,-0.002433072365820408
1759645018828821000,9.230821044921875,-0.07746493247449397,0.03386310663521289,-0.006826338888704776
1759645018838779000,9.24077880859375,-0.020148761798441408,0.054091071149706835,0.008979717530310153
1759645018848737000,9.250737060546875,0.04389204095751047,0.05386369213461876,-0.004472176977992058
1759645018858695000,9.26069482421875,0.07896627694815397,0.0520230327039957,0.010134148262441158
1759645018868652000,9.270652099609375,0.09909925665557384,0.031126959669589994,-0.0276759424328804
1759645018878610200,9.280610107421875,0.0933756183117628,-0.009610708910226822,-0.025393092192709445
1759645018888567800,9.29056787109375,0.0891056859076023,-0.015374094742536544,-0.017158640071749685
1759645018898526000,9.30052587890625,0.06540010841041803,-0.0240595055013895,0.006032558162510394
1759645018908484000,9.310484130859376,0.03199117528349161,-0.0020768062740564347,0.05574702166318893
1759645018918442000,9.32044189453125,0.021465981876850126,0.023764906468987462,0.10214256987422704
1759645018928400100,9.330400146484376,-0.029128771589696404,0.0006803834795951843,0.1262333472967148
1759645018938358000,9.34035791015625,-0.06654051061719655,-0.02991758387982845,0.1348909932658076
1759645018948315000,9.35031494140625,-0.0911842457473278,-0.019082886132597923,0.15946867742240428
1759645018958273000,9.36027294921875,-0.06888765826523303,-0.02300561253428459,0.1623980088725686
1759645018968231000,9.37023095703125,-0.02145224561244249,-0.020327917757630348,0.13361468971967697
1759645018978189000,9.38018896484375,0.011707388928532599,0.00009936872124671936,0.085247549174726
1759645018988147000,9.39014697265625,0.0400672219723463,-0.006259644916653633,0.04239566491991281
1759645018998105000,9.40010498046875,0.07997428494691848,-0.03560498186647892,0.01830225714892149
1759645019008062700,9.410062744140625,0.12203048877939582,-0.04468611394464969,0.0036047464936971663
1759645019018020900,9.420020751953125,0.110686234074831,-0.054579146927595135,0.013149404430389403
1759645019027979000,9.42997900390625,0.06144596395716071,-0.04237316082715988,0.052698740008473396
1759645019037935600,9.439935546875,-0.024686112967133522,-0.03833294552564621,0.10010843369811773
1759645019047893800,9.449893798828125,-0.1188999356687069,-0.04708557630181312,0.148420921446383
1759645019057852000,9.459851806640625,-0.19859306558668613,-0.0614472791314125,0.17183891417384148
1759645019067809800,9.469809814453125,-0.22261077777296304,-0.04771043020188808,0.18281039004325866
1759645019077768000,9.479767822265625,-0.1865440236136317,-0.025721885755658147,0.16999913152605295
1759645019087725800,9.489725830078125,-0.13407485457733273,0.042000235861539836,0.1696601088300347
1759645019097684000,9.49968408203125,-0.05750818611681461,0.05493453623652458,0.10786942308843135
1759645019107641600,9.5096416015625,-0.0714013946518302,0.10590893667042255,0.07535831558406353
1759645019117598700,9.5195986328125,-0.13245222181156277,0.08044482506811618,-0.0004956745624542236
1759645019127556900,9.529556884765626,-0.05180675960481167,0.007881693160533904,-0.10434592513740062
1759645019137514800,9.5395146484375,-0.04237272243574262,0.06228256091177463,-0.08655483238101006
1759645019147473000,9.549472900390626,-0.029383477003127333,0.07536942149996757,-0.01590571740120649
1759645019157430800,9.5594306640625,0.0333162864074111,0.011824877828359602,-0.0008998714491724967
1759645019167389000,9.569388916015624,0.026821225299686193,0.02216682362258434,0.06459551402926444
1759645019177346800,9.579346923828124,-0.015731237617135047,0.042788171368837356,0.08187602691501379
1759645019187304700,9.5893046875,-0.03885492357313633,0.03113455845415592,0.08823445603102445
1759645019197262800,9.599262939453125,-0.05690101400390267,0.019943302354216576,0.1060989062845707
1759645019207219700,9.6092197265625,-0.056145373331010336,0.03102525286078453,0.09211831172704696
1759645019217177900,9.619177734375,-0.05988777472972869,0.009928104296326637,0.031000410680472847
1759645019227136000,9.629135986328125,-0.03646145256534219,-0.010443652603030203,-0.023827158050239085
1759645019237094000,9.639093994140625,0.008075169906020164,0.014980126988887786,-0.07391513103842735
1759645019247051800,9.6490517578125,0.07355740364193916,0.032598201265931125,-0.08642185365110636
1759645019257009700,9.659009765625,0.0754790193542838,0.02294073060452938,-0.08730681979209184
1759645019266967800,9.6689677734375,0.04663724801242351,0.004430091401934623,-0.047457624484598636
1759645019276925700,9.67892578125,0.0055956280499696726,-0.012496493479609488,0.017508476422727105
1759645019286883800,9.6888837890625,-0.027480858252197503,-0.031556583258509636,0.06603197657316923
1759645019296841000,9.698841064453125,-0.06623948184400796,-0.030442484536767005,0.11170417894572018
1759645019306798600,9.708798583984375,-0.04038900127261877,-0.038518238964676856,0.14048983618617056
1759645019316756700,9.7187568359375,-0.0511778140515089,-0.03264905467033386,0.1547512935116887
1759645019326715000,9.72871484375,-0.03488894255161285,-0.03245207079350948,0.11365443623065948
1759645019336672800,9.7386728515625,-0.00859422534406185,-0.028554478833079336,0.0487380196839571
1759645019346631000,9.748630859375,0.014088584976643323,-0.00921381854712963,0.0032666005805134773
1759645019356588800,9.7585888671875,0.03701002635881304,-0.010188216537237166,-0.011667056918144226
1759645019366547000,9.768546875,0.034383038856089114,-0.0031599253356456754,-0.010325871442258357
1759645019376503800,9.77850390625,0.023807430436462163,-0.019259996265172958,-0.022584464512765405
1759645019386461700,9.788461669921874,0.003424421490728855,-0.025080665242671964,-0.01308686058819294
1759645019396419800,9.798419921875,-0.01494417889267206,-0.02097439896762371,0.01700812568515539
1759645019406377700,9.808377685546875,-0.02882218985855579,0.0011029928058385848,0.01956044051647186
1759645019416336000,9.8183359375,-0.018729250389337537,-0.019949732095003128,0.005481646281480789
1759645019426293800,9.828293701171875,-0.011849427747726439,-0.02263970183134079,-0.0029451135411858557
1759645019436252000,9.838251953125,-0.009499357490241526,-0.06375789416134357,0.0002104278802871704
1759645019446209800,9.848209716796875,0.001340308693051338,-0.10029811105132103,-0.02095510974526405
1759645019456167700,9.858167724609375,0.02303483862876892,-0.09439034831225872,-0.005407119740545749
1759645019466124800,9.868124755859375,0.010621785648912191,-0.08664309518635273,0.006333586935698986
1759645019476082700,9.878082763671875,0.013501140477508305,-0.047913843819499015,0.006138064363598823
1759645019486040800,9.888040771484375,0.018380875343084333,-0.0638350510507822,-0.001544306832551956
1759645019495999000,9.8979990234375,0.015072481447458267,-0.07748948239386082,-0.01282499478161335
1759645019505956900,9.907956787109375,-0.04148424916341901,-0.06954875252246856,-0.007840192106366157
1759645019515915000,9.9179150390625,-0.05542962627708912,-0.06115501818656921,0.004811784195899963
1759645019525872600,9.92787255859375,-0.051531742055714126,-0.067115972417593,0.004196867167949677
1759645019535830800,9.937830810546876,-0.05007379833236336,-0.0831546685487032,0.05152502005398273
1759645019545788000,9.947787841796876,-0.019704817423224448,-0.10014321275055407,0.08184241690635681
1759645019555745800,9.957745849609376,-0.007973024705797433,-0.10896364806592464,0.054418111146986484
1759645019565704000,9.967703857421874,0.0142693483710289,-0.0973059434980154,0.004707739299535751
1759645019575661800,9.977661865234374,0.022834932142496107,-0.0549772063344717,0.015241992795467375
1759645019585620000,9.987619873046874,0.04218085312545299,-0.004873743516206741,-0.007794014877080917
1759645019595577600,9.99757763671875,0.0877791134789586,-0.0056336219727993,-0.03520633793771267
1759645019605535700,10.00753564453125,0.06688128687888384,-0.04500526289641857,-0.0437424033537507
1759645019615494000,10.017493896484375,0.006166121414303779,-0.05047288065254688,-0.037186698099970814
1759645019625451800,10.02745166015625,-0.03547989418208599,-0.043462709629535676,-0.030638299369812008
1759645019635409000,10.037408935546875,-0.05763327380120754,-0.019753332740068436,-0.014485329209268092
1759645019645366800,10.04736669921875,-0.06495747920945287,-0.003794716107845306,0.04067921639084816
1759645019655324700,10.05732470703125,-0.12023980597034097,-0.0005810147583484649,0.09815350023806095
1759645019665282800,10.06728271484375,-0.14635142169594764,0.0034691374152898786,0.15288929903209209
1759645019675240700,10.07724072265625,-0.1254430737018585,0.036381226935982704,0.18121844467669723
1759645019685198800,10.08719873046875,-0.072701663595438,0.06109948860704899,0.14921791704297066
1759645019695156700,10.09715673828125,-0.03278480987921357,0.03485504028201103,0.08035305513143538
1759645019705115000,10.107114990234376,-0.0353618207603693,0.00269873756468296,-0.016498130336403845
1759645019715072000,10.117072021484375,-0.008763444431126118,0.014214987835288047,-0.07990764945149421
1759645019725029600,10.127029541015625,0.000260550632327795,0.005645312410593032,-0.06265051744133233
1759645019734987800,10.13698779296875,0.024139000478386876,-0.01609305666685104,-0.022590017470717427
1759645019744945700,10.146945556640626,0.037083822247385975,-0.01776712735891342,0.0328086291462183
1759645019754903800,10.15690380859375,0.03849807295948267,-0.03903963249027729,0.06494535038024186
1759645019764861700,10.16686181640625,-0.004653086502850056,-0.06650982321798801,0.0824938665524125
1759645019774819800,10.17681982421875,-0.03182341750115156,-0.06257832898795604,0.1143506018012762
1759645019784778000,10.186778076171874,-0.08141293944790959,-0.05402151304483414,0.0892737359508872
1759645019794735900,10.19673583984375,-0.16573475207984448,0.00034486791491508483,0.10252660075575112
1759645019804692700,10.206692626953124,-0.191683432328701,-0.013895254361629486,0.05632102215886116
1759645019814651000,10.21665087890625,-0.010485738179087638,0.027765374282002448,0.002116553762555122
1759645019824608800,10.22660888671875,0.10261091803833841,0.056963411715626716,0.025304537126421927
1759645019834567000,10.23656689453125,0.04732406123280525,-0.008523498195409774,0.05937105737924576
1759645019844524800,10.24652490234375,-0.002424012276530266,0.015058452922105788,0.06841098066419363
1759645019854483000,10.25648291015625,-0.09773805130496621,0.0443850851714611,0.0821191880211234
1759645019864440800,10.26644091796875,-0.14419278235733507,0.04274024057388305,0.09399579603672027
1759645019874398700,10.276398681640625,-0.11520867993533611,0.05581073454916477,0.10883066933602094
1759645019884355800,10.28635595703125,-0.07699731496274471,0.020787351962924003,0.07054214747399092
1759645019894313700,10.296313720703125,-0.06313245573937892,-0.0024509002834558484,-0.0016954057410359382
1759645019904272000,10.30627197265625,-0.0491835714943707,-0.01530453663766384,-0.031792437840998174
1759645019914229800,10.316229736328125,-0.010902063895016908,-0.023797639694809913,-0.03504267180860042
1759645019924188000,10.32618798828125,0.021506752278655766,-0.010766893208026885,0.010711071367561817
1759645019934146000,10.33614599609375,0.016651713462918997,0.010352467188239097,0.07032207498252391
1759645019944103700,10.346103759765626,0.022647885137796402,0.005604980400204658,0.10615881977826357
1759645019954061800,10.356061767578124,0.021306991922855376,-0.0007908581167459487,0.12013327685594558
1759645019964019000,10.36601904296875,-0.023161972139775753,0.0014683189868927,0.1253720542922616
1759645019973976800,10.375976806640624,-0.01993745713531971,-0.0209007492095232,0.1266831368908286
1759645019983935000,10.38593505859375,-0.04082271651476621,-0.04849427405595779,0.09416180025339126
1759645019993892900,10.395892822265624,-0.04487286868840456,-0.036869302713871,0.09573241057097912
1759645020003850800,10.405850830078125,-0.01978036687746644,-0.019525369203090667,0.05587064804285764
1759645020013808600,10.41580859375,-0.01602349856197834,-0.008596563431620597,0.026809973253309725
1759645020023766800,10.425766845703125,-0.007281535310298204,-0.01861468409895897,-0.004173778553307056
1759645020033724700,10.435724609375,-0.06176365160420537,0.042379590567946435,0.021236849296092986
1759645020043681800,10.445681884765625,-0.03795242177546024,0.019835750326514242,0.012685001789033413
1759645020053639700,10.4556396484375,0.02662204946577549,0.03472702998816967,0.031279227621853346
1759645020063597600,10.46559765625,0.0040488369993865484,0.020797873356938362,0.0750415047198534
1759645020073555700,10.4755556640625,-0.03680149817466736,0.0012684125006198882,0.08887684558779001
1759645020083513900,10.485513916015625,-0.05856207908391952,-0.016626140630245208,0.09528495906442404
1759645020093471700,10.4954716796875,-0.02468158292248845,-0.04216799364387989,0.08829203143715858
1759645020103430000,10.505429931640625,0.004013327294588089,-0.05018354231715202,0.08742167834341526
1759645020113387800,10.5153876953125,0.0360348977163434,-0.015119243198633192,0.05772913539111614
1759645020123344600,10.5253447265625,0.01816226415634155,0.010788520517945288,0.03690203593969345
1759645020133302800,10.535302734375,0.033771775089949364,0.0034819968968629834,0.025213936233520508
1759645020143260700,10.5452607421875,0.08814268609434366,-0.028017887738347052,0.0012394786670804022
1759645020153218800,10.55521875,0.06581599573493004,-0.03490530916452408,0.004042261128127575
1759645020163176700,10.5651767578125,-0.022113924391567705,0.004088730618357658,0.03509761686623096
1759645020173134800,10.575134765625,-0.07858224606662988,0.0003442833930253982,0.028510931952297685
1759645020183092700,10.5850927734375,-0.14476736737489698,-0.025358897662162778,0.005670739112794399
1759645020193051000,10.59505078125,-0.17278583963513372,-0.01960369513630867,0.003121346890926361
1759645020203008800,10.6050087890625,-0.1049959134787321,-0.040806057640910144,0.008748246861994265
1759645020212965600,10.614965576171874,0.030256022053956985,-0.04387479756176471,0.0066994976386427875
1759645020222923800,10.624923828125,0.02406038228422403,-0.03968786726593971,0.031549861256778236
1759645020232881700,10.634881591796875,-0.011847820312529801,0.04111410067677498,0.03513561078906059
1759645020242839800,10.64483984375,-0.14942074613869188,0.09444529336988926,0.028953122761845588
1759645020252798000,10.6547978515625,-0.29205811574757096,0.11409691930115222,-0.005142331324517727
1759645020262755800,10.664755859375,-0.38699090037345885,0.12557634469270706,-0.06489449697583913
1759645020272713700,10.674713623046875,-0.26880115880072114,0.06729834324717521,-0.12225304548889399
1759645020282671600,10.684671630859375,-0.08891454724967479,0.007186112111806869,-0.11073796426206826
1759645020292628700,10.694628662109375,0.03905044614523649,-0.04075754232406616,-0.0789171771094203
1759645020302587000,10.7045869140625,0.1772708760946989,-0.0672597648024559,-0.004088730618357658
1759645020312544800,10.714544677734375,0.2259197561904788,-0.04528524888157844,0.044400282740592954
1759645020322503000,10.7245029296875,0.13079875551611184,-0.07506430107355118,0.07080985849946737
1759645020332460800,10.734460693359376,-0.06475128911286591,-0.06206804137825966,0.10990268248170613
1759645020342418700,10.744418701171876,-0.3799181855082512,0.07773615063130855,0.17713263666778803
1759645020352376600,10.75437646484375,-0.4593628936231136,0.09635434186160564,0.16518997767865656
1759645020362333700,10.764333740234376,-0.33191330240443345,0.08755494933426379,0.1275000062316656
1759645020372291800,10.774291748046876,-0.045749651522934434,0.07092763966023921,0.08951163635998964
1759645020382249700,10.784249755859374,0.18433102373927832,0.03941898719668388,0.06532032117247581
1759645020392208000,10.794207763671874,0.3206862443387508,-0.027211247530579564,-0.004097206185758114
1759645020402165800,10.804165771484374,0.33088658970519896,-0.12104045482873915,-0.026202655009925364
1759645020412123600,10.81412353515625,0.22049217818379402,-0.14038111511468887,-0.0013809329643845558
1759645020422081800,10.824081787109375,0.007552607336640357,-0.09765665663182735,0.0019184008419513702
1759645020432039700,10.834039794921875,-0.16462606018558143,0.059659811192750926,0.059385378165543075
1759645020441996800,10.843996826171875,-0.1824037089385092,0.1304325525522232,0.12585457711219786
1759645020451955000,10.853954833984375,-0.09152911366224288,0.1463438229113817,0.13811112435609102
1759645020461912800,10.863912841796875,-0.048147652575373644,0.08600129015147685,0.0904402955122292
1759645020471870700,10.87387060546875,-0.09446955102831124,0.02809504462778568,0.06028729544132948
1759645020481828600,10.88382861328125,-0.12536357872486115,0.0056575873702764505,-0.013574644105136393
1759645020491786800,10.893786865234375,-0.01606733770370483,-0.08014496533870696,-0.07987608526945114
1759645020501744600,10.90374462890625,0.11943594224154948,-0.13773673808574677,-0.04938873867765069
1759645020511702800,10.913702880859375,0.1527247561201453,-0.11857377245426177,0.021744360426813363
1759645020521660000,10.923659912109375,0.09200140734910964,-0.15330547861754892,0.0696685795098543
1759645020531617800,10.93361767578125,0.0028086276799440383,-0.15417875432074069,0.13591449109464884
1759645020541575700,10.94357568359375,-0.09802095989957452,-0.1802256342470646,0.183433636508137
1759645020551533800,10.953533935546876,-0.13372165722548962,-0.1962012020140886,0.19563889195621012
1759645020561491700,10.96349169921875,-0.0614702216155827,-0.12119418408572673,0.23597967017292976
1759645020571449900,10.973449951171874,-0.03355345616415143,-0.006739537388086319,0.2601018656469881
1759645020581407700,10.98340771484375,0.030097470491379497,0.029415479576587675,0.22486294061392545
1759645020591364900,10.99336474609375,0.06876783127784729,0.038109658163785934,0.15979717872440813
1759645020601322800,11.00332275390625,0.029209727871417998,0.04672901794910431,0.08246054880470037
1759645020611280600,11.01328076171875,-0.007196048983931541,0.0599181698679924,-0.001167728605121374
1759645020621238800,11.02323876953125,0.03696282621622085,0.07007131509184837,-0.039416502978652714
1759645020631196700,11.03319677734375,0.07344196056872605,0.007522212198376655,-0.08038929548859595
1759645020641154800,11.04315478515625,0.07605901119932532,-0.019527707290649413,-0.09583075637891889
1759645020651112700,11.05311279296875,-0.05206190340965986,-0.052090837243199344,-0.028770021279901265
1759645020661070800,11.06307080078125,-0.2274550029337406,-0.02710428002476692,0.04609261974170804
1759645020671027700,11.07302783203125,-0.24332243415117263,-0.007408814951777458,0.17377485067248344
1759645020680985600,11.082985595703125,-0.20067659386247394,-0.018798223972320557,0.2740053033150732
1759645020690943700,11.09294384765625,-0.07170213116407394,-0.0377799878180027,0.3400913481630385
1759645020700901600,11.102901611328125,0.09598287820070982,-0.07965455147325992,0.36745194103643297
1759645020710859800,11.11285986328125,0.1310981768541038,-0.1030915411621332,0.29387261782363056
1759645020720818000,11.12281787109375,0.07542480494901538,-0.10136486349999904,0.1704611960798502
1759645020730775800,11.13277587890625,0.03704524380266666,-0.05970715746581554,0.050302638652175664
1759645020740732700,11.142732666015625,0.0625368279337883,-0.006736030256748199,-0.009823328747600316
1759645020750690800,11.15269091796875,0.049966392435133455,0.01066518639922142,-0.00007905658558011055
1759645020760648700,11.162648681640626,-0.0163661745198071,0.047995676884055136,0.05045914438813925
1759645020770606800,11.17260693359375,-0.0657084437072277,0.018851999986171722,0.08329699962884188
1759645020780564700,11.182564697265626,-0.1233056232817471,0.021212883898615836,0.08680076996609568
1759645020790523000,11.19252294921875,-0.13140052080154419,-0.016935352709889412,0.09327084276303649
1759645020800480800,11.202480712890624,-0.05351794743686914,-0.05129062677621841,0.09930193962082266
1759645020810439000,11.21243896484375,-0.07015840885341167,-0.03469663484990597,0.13948679662346838
1759645020820395800,11.222395751953124,-0.0802396578848362,-0.0049731122374534606,0.12150807234048842
1759645020830353700,11.232353759765624,-0.02260170790851116,0.01482347512245178,0.13104133210033178
1759645020840311800,11.242311767578125,0.08125131914541125,-0.00960427916944027,0.12152969965040683
1759645020850269700,11.252269775390625,0.08916589166224002,-0.011481178957223892,0.10754062952548264
1759645020860227800,11.262227783203125,0.0457055201202631,0.004563362392783165,0.09088570119217038
1759645020870185700,11.272185791015625,-0.043542789128422736,0.026833646389842033,0.02566694069802761
1759645020880144000,11.282143798828125,-0.08913783461153507,0.0366775795340538,-0.042660891727358104
1759645020890100700,11.292100830078125,-0.0772645875968039,0.012929624199867248,-0.07915259330049157
1759645020900058600,11.30205859375,-0.07003814347460866,0.00538052399456501,-0.045218174994736904
1759645020910016800,11.312016845703125,-0.03681450378671288,0.005728314518928528,-0.011353753185272215
1759645020919975000,11.321974853515625,0.02236994497925043,-0.0045937575310468675,0.0689407036267221
1759645020929932800,11.331932861328125,0.032017624898999925,-0.04568856898546218,0.12268778364434837
1759645020939891000,11.341890869140625,-0.0053485214211046695,-0.06423486402332783,0.15129370040372014
1759645020949848600,11.3518486328125,-0.043919221225380896,-0.04030862951278686,0.16396379688456653
1759645020959805700,11.3618056640625,-0.06734466660693288,-0.04669102402627468,0.14309972642362118
1759645020969763800,11.371763916015626,-0.12795476426184177,-0.026155600997805593,0.10316606770306826
1759645020979721700,11.3817216796875,-0.09921557651162147,-0.02100362506210804,0.0583539892911911
1759645020989679900,11.391679931640626,-0.02346387769579887,-0.05270926140248775,0.009615677346289157
1759645020999637800,11.4016376953125,0.013780395810306071,-0.06739829649031162,-0.01525923619121313
1759645021009595600,11.411595703125,0.03931947234496474,-0.03506429911851883,0.005660071588307619
1759645021019552500,11.421552490234374,0.04086436369940638,-0.03545885139405727,0.030489246287941932
1759645021029510400,11.431510498046874,0.01943871383294463,-0.04079319815933704,0.07038228073716163
1759645021039468500,11.441468505859374,-0.01592778310254216,-0.012390110495686531,0.08377367722988129
1759645021049426400,11.451426513671874,-0.04056421170905232,-0.014425415715575218,0.11093933205306529
1759645021059384600,11.461384521484375,-0.022784809390455484,-0.004045475998520851,0.1297480774194002
1759645021069342700,11.4713427734375,-0.027642040163278578,0.0033890579164028165,0.12368863124996422
1759645021079299300,11.48129931640625,-0.013864859223365783,-0.019922844088077544,0.09855053673163056
1759645021089257500,11.491257568359375,-0.012678279787302016,-0.033659693017601966,0.07484656666964293
1759645021099215600,11.501215576171875,-0.022532149803638456,-0.043614100798964495,0.045606882051378486
1759645021109173500,11.511173583984375,0.005377455254644155,-0.02488485040962696,0.02595028768405318
1759645021119131600,11.521131591796875,0.03722995271980762,0.009257073166966438,0.024077479549497363
1759645021129089500,11.531089599609375,-0.014295359595119952,0.02087152311503887,-0.00876709769293666
1759645021139047700,11.541047607421875,-0.016371289086341858,0.022201894935965538,-0.027878917659074066
1759645021149004500,11.551004638671875,-0.029300328764319417,0.010291676911711692,0.0030938743621110915
1759645021158962400,11.56096240234375,-0.025189678575098514,-0.004724690434336662,0.0711637865036726
1759645021168920600,11.570920654296875,-0.015084171885251999,0.003119593325257301,0.11679434169158338
1759645021178878500,11.58087841796875,-0.047803369182348246,0.004749824875593185,0.11006254921853542
1759645021188836600,11.590836669921876,-0.0031501345939934254,-0.022445056042075157,0.09155395584255456
1759645021198794500,11.60079443359375,0.007593231607973575,-0.04060907376408577,0.11284618858769535
1759645021208751400,11.61075146484375,-0.026105039854347704,-0.025824761608242985,0.13160305763632058
1759645021218709500,11.62070947265625,-0.07139817978143692,-0.030481647503376005,0.141264912211895
1759645021228667400,11.63066748046875,-0.028073125056922433,-0.03494681021869182,0.11064531754255294
1759645021238625500,11.64062548828125,0.007707359506934881,-0.04123977288305759,0.10807152153179049
1759645021248583700,11.650583740234374,0.010519348187744616,-0.028791210198402403,0.07514043504968285
1759645021258541600,11.66054150390625,-0.007858896806836128,-0.02364040330648422,0.013981471340358256
1759645021268498400,11.67049853515625,-0.008051496769487857,-0.030630700585246085,-0.020046470467746255
1759645021278456600,11.68045654296875,0.011999357612431049,-0.006829553759098053,-0.02281272031068802
1759645021288414500,11.69041455078125,0.06458893815800547,-0.01589139661490917,-0.018853461290895938
1759645021298372600,11.70037255859375,0.023536796801537273,-0.0017781155884265898,0.016786591888964177
1759645021308330500,11.71033056640625,-0.07557634224891663,-0.015514379996061324,0.06247077696025371
1759645021318288600,11.72028857421875,-0.06914543241858483,-0.04221066374182701,0.08325359887853265
1759645021328245500,11.73024560546875,-0.08838409363478422,-0.024535890841484068,0.10081146740093827
1759645021338203400,11.740203369140625,-0.09206833510547875,-0.024686112967133522,0.1293394966185093
1759645021348161500,11.75016162109375,-0.060524026806652545,-0.02451660161912441,0.1403448747575283
1759645021358119400,11.760119384765625,-0.0020711071856319902,-0.015053776746988295,0.12252061038389801
1759645021368077600,11.77007763671875,0.009666238489747047,0.0014086977541446686,0.1104208611369133
1759645021378034700,11.78003466796875,-0.015397183357179165,0.013073416584730147,0.055533525042980904
1759645021387992600,11.78999267578125,-0.040105800417065615,0.009814122527837752,0.0083960724234581
1759645021397950500,11.799950439453125,-0.056928340402245516,0.024081132811307904,-0.004300473672896623
1759645021407908400,11.809908447265625,-0.07204115386009216,0.025896657800674436,0.0003002981208264828
1759645021417866500,11.819866455078126,-0.04284954616725445,-0.014586159235239027,0.009879442849010229
1759645021427824400,11.829824462890626,-0.02760769950225949,-0.04087912287712097,0.007466098096966743
1759645021437781500,11.839781494140626,0.012070377022027968,-0.052200142836570734,0.07081263497844338
1759645021447739600,11.84973974609375,0.010362257929891348,-0.0528682513564825,0.13130860473439096
1759645021457697500,11.859697509765626,-0.026141280211508272,-0.06282675079107285,0.15434037462323902
1759645021467655400,11.869655517578124,0.017355623948574064,-0.04154723139703274,0.17269889200404284
1759645021477613600,11.879613525390624,0.11355039133429527,-0.041812019813060756,0.13663506045415996
1759645021487571500,11.889571533203124,0.06647285220846533,-0.05038870950043201,0.09345409037545323
1759645021497528600,11.899528564453124,0.01945639562010765,-0.06835223621428012,0.03878872646912932
1759645021507486500,11.909486572265624,-0.004051321217417717,-0.02792962493300438,0.004638181194663048
1759645021517444600,11.919444580078125,-0.028699732522666454,0.019315525844693184,-0.046052433861792086
1759645021527402500,11.929402587890625,-0.0284732302904129,0.019902385821938512,-0.05028218038603663
1759645021537360400,11.9393603515625,-0.00869271728247404,0.030760464444756507,-0.02448810617700219
1759645021547317500,11.9493173828125,0.049736236941069364,0.03896773629784584,0.0007018646590411662
1759645021557275600,11.959275634765625,0.05098594474121928,0.0019739304214715955,0.019353812028467653
1759645021567233500,11.969233642578125,0.03591244038045406,-0.011179565662145613,0.04937281045615673
1759645021577191700,11.979191650390625,0.039105098941922184,-0.027668343648314473,0.04493263605162501
1759645021587149600,11.989149658203125,-0.0013099135547876358,-0.004852700728178024,0.04587269338071346
1759645021597106400,11.9991064453125,-0.009729951375722884,0.008504793494939803,0.055767479929327964
1759645021607064600,12.009064697265625,-0.0002063362270593643,0.013955460116267204,0.06740837949290872
1759645021617022500,12.0190224609375,-0.029994886899739504,0.004625321713089943,0.08925590803325176
1759645021626980600,12.028980712890625,-0.05289747745096683,-0.0293751475661993,0.07285378541722894
1759645021636938500,12.0389384765625,-0.03613762743845582,-0.05580021315515041,0.07057897235304117
1759645021646895400,12.048895263671875,-0.001367196699976921,-0.058794718796014785,0.04503974968791008
1759645021656853500,12.058853515625,0.02744680985212326,0.007514028891921043,0.05270195487886667
1759645021666811400,12.068811279296876,0.020521102242171765,-0.014554595053195953,0.0064461073994636535
1759645021676769500,12.07876953125,0.021501491581648588,-0.046941783916950225,-0.006471534101665019
