time,seconds_elapsed,z,y,x
1757614252714776800,37.53977685546875,-2.0955123901367188,3.0010762214660645,0.5453606843948364
1757614252724731600,37.549731689453125,-2.100933074951172,2.927839517593384,0.4943506419658661
1757614252734687700,37.55968774414063,-2.0284698009490967,2.8698890209198,0.4103420078754425
1757614252744643600,37.5696435546875,-1.911797881126404,2.821739196777344,0.3090675175189972
1757614252754600000,37.57959985351562,-1.7926979064941406,2.800194025039673,0.2126469761133194
1757614252764555800,37.5895556640625,-1.697180151939392,2.820683479309082,0.1413562893867492
1757614252774510800,37.5995107421875,-1.630761981010437,2.894014358520508,0.1025532409548759
1757614252784466700,37.609466796875,-1.5883448123931885,2.99261736869812,0.112601064145565
1757614252794422800,37.6194228515625,-1.5496724843978882,3.104541301727295,0.1657596230506897
1757614252804378600,37.629378662109374,-1.508593201637268,3.1900649070739746,0.2450075298547744
1757614252814335500,37.63933544921875,-1.4368939399719238,3.2618520259857178,0.3003219068050384
1757614252824291600,37.64929150390625,-1.307467699050903,3.2924234867095947,0.3057597875595093
1757614252834246700,37.65924658203125,-1.1038764715194702,3.236578702926636,0.2401581555604934
1757614252844202800,37.66920263671875,-0.8041103482246399,3.001187801361084,0.1005569994449615
1757614252854158600,37.67915869140625,-0.4284951686859131,2.5113954544067383,-0.1186999827623367
1757614252864114700,37.68911474609375,-0.0055380593985319,1.7088671922683716,-0.3877097070217132
1757614252874070500,37.69907055664063,0.4526036977767944,0.6023005843162537,-0.6722333431243896
1757614252884027000,37.70902685546875,0.9358933568000792,-0.7601404786109924,-0.9337468147277832
1757614252893981700,37.71898168945312,1.4046469926834106,-2.2258517742156982,-1.1542445421218872
1757614252903937500,37.7289375,1.881680250167847,-3.496967315673828,-1.354623317718506
1757614252913893600,37.7388935546875,2.4158215522766118,-4.368030548095703,-1.5567899942398071
1757614252923849500,37.74884936523438,3.0628702640533447,-4.860789299011231,-1.822285532951355
1757614252933805800,37.75880590820312,3.942108631134033,-5.0489115715026855,-2.203690528869629
1757614252943760600,37.7687607421875,5.135600090026856,-5.005799293518066,-2.6536574363708496
1757614252953716700,37.778716796875,6.4991374015808105,-4.876372814178467,-2.976982831954956
1757614252963672600,37.78867260742187,7.413182258605957,-4.903552532196045,-2.834350347518921
1757614252973628700,37.79862866210937,7.025604724884033,-5.036724090576172,-2.319575071334839
1757614252983584800,37.80858471679687,5.249718189239502,-4.369000911712647,-1.905777931213379
1757614252993540900,37.81854077148437,3.046191930770874,-3.003732919692993,-1.69679594039917
1757614253003495700,37.82849560546875,1.5048012733459473,-1.7407268285751345,-1.5880770683288574
1757614253013451500,37.83845141601562,0.8155767917633057,-1.0030254125595093,-1.3585562705993652
1757614253023407600,37.84840771484375,0.5951481461524963,-0.843519389629364,-1.1499069929122925
1757614253033363500,37.85836352539062,0.5989194512367249,-1.1040841341018677,-1.0807830095291138
1757614253043319800,37.86831982421875,0.6810761094093323,-1.614171266555786,-1.0783052444458008
1757614253053274600,37.878274658203125,0.7693372368812561,-2.206824541091919,-1.0136548280715942
1757614253063230700,37.88823071289063,0.8848036527633667,-2.769481658935547,-0.8693650364875793
1757614253073186600,37.8981865234375,0.9670095443725586,-3.227597236633301,-0.7602323889732361
1757614253083142700,37.908142578125,0.950503706932068,-3.525441169738769,-0.6913602948188782
1757614253093098800,37.9180986328125,0.8130449056625366,-3.649503469467163,-0.6471696496009827
1757614253103054800,37.928054931640624,0.5762919783592224,-3.630156755447388,-0.5915849208831787
1757614253113009700,37.938009765625,0.2588370144367218,-3.5375289916992188,-0.5146397948265076
1757614253122965500,37.94796557617188,-0.1179779320955276,-3.4088809490203857,-0.4200232028961181
1757614253132921600,37.957921630859374,-0.5236921906471252,-3.271343231201172,-0.3329841792583465
1757614253142877700,37.96787768554688,-0.9227910041809082,-3.156239748001098,-0.2691349387168884
1757614253152833800,37.97783374023437,-1.273579478263855,-3.075258255004883,-0.2379160374403
1757614253162789600,37.98778955078125,-1.5566706657409668,-3.020607709884644,-0.2198936194181442
1757614253172744700,37.99774462890625,-1.7700204849243164,-2.9729979038238525,-0.1927786469459533
1757614253182700500,38.00770043945312,-1.9062323570251465,-2.889024019241333,-0.1485446989536285
1757614253192656600,38.01765673828125,-1.9535106420516968,-2.747178316116333,-0.091580219566822
1757614253202612700,38.02761279296875,-1.8810681104660036,-2.542616844177246,-0.0151320584118366
1757614253212568800,38.03756884765625,-1.700263500213623,-2.2887749671936035,0.0687431320548057
1757614253222523600,38.04752368164063,-1.423977613449097,-1.998093843460083,0.1202619820833206
1757614253232479500,38.0574794921875,-1.106550931930542,-1.6937941312789917,0.1267537176609039
1757614253242435600,38.067435546875,-0.7920951843261719,-1.375546097755432,0.0820807367563247
1757614253252391700,38.0773916015625,-0.5639448165893555,-1.101418137550354,0.0033576935529708
1757614253262347800,38.08734765625,-0.4872383177280426,-0.8870932459831238,-0.0770890265703201
1757614253272303600,38.0973037109375,-0.6111810207366943,-0.6859923601150513,-0.1303847432136535
1757614253282258700,38.1072587890625,-0.8805670142173767,-0.3730733394622803,-0.1614057272672653
1757614253292214500,38.117214599609376,-1.1807633638381958,0.0807631090283393,-0.1668428480625152
1757614253302171000,38.1271708984375,-1.4327772855758667,0.6900829076766968,-0.1428485810756683
1757614253312126700,38.137126708984376,-1.5749951601028442,1.432091236114502,-0.1122110337018966
1757614253322082800,38.14708276367188,-1.5179827213287354,2.2564313411712646,-0.1356567293405532
1757614253332037600,38.15703759765625,-1.113409161567688,3.225724935531616,-0.2212089151144027
1757614253341993500,38.166993408203126,-0.2242303937673568,4.290862560272217,-0.268059492111206
1757614253351949600,38.17694946289063,0.7140070796012878,4.685420989990234,-0.1258906573057174
1757614253361905700,38.18690576171875,0.8034258484840393,4.078845024108887,0.3027637600898742
1757614253371861800,38.19686181640625,-0.190895214676857,4.03939151763916,0.9512176513671876
1757614253381817600,38.206817626953125,-1.715237021446228,4.600545406341553,1.0785561800003052
1757614253391772700,38.21677270507813,-2.87278413772583,4.494706153869629,0.7731800079345703
1757614253401728500,38.226728515625,-2.905291080474853,3.4994378089904785,0.5291889905929565
1757614253411684900,38.23668481445313,-2.397420883178711,2.2312896251678467,0.4421494007110595
1757614253421640700,38.246640625,-1.600436091423035,1.041638970375061,0.3876640796661377
1757614253431596800,38.2565966796875,-0.7547351121902466,0.1114623919129371,0.3445339202880859
1757614253441551600,38.26655151367188,-0.1828006654977798,-0.3520266115665436,0.2742583453655243
1757614253451507500,38.27650756835938,-0.0425399765372276,-0.3716077804565429,0.1444646418094635
1757614253461463800,38.2864638671875,-0.2695141434669494,-0.0953409075736999,-0.0144374938681721
1757614253471419600,38.29641967773438,-0.7280193567276001,0.3110739886760711,-0.1202989444136619
1757614253481375700,38.30637573242188,-1.248659372329712,0.7731496691703796,-0.1276470422744751
1757614253491331600,38.31633154296875,-1.6907382011413574,1.200365662574768,-0.1027981489896774
1757614253501286700,38.32628662109375,-2.0035674571990967,1.5322641134262085,-0.0868907645344734
1757614253511242800,38.33624267578125,-2.2015304565429688,1.777660846710205,-0.0573911964893341
1757614253521198800,38.34619873046875,-2.308543920516968,2.009288787841797,-0.0084561863914132
1757614253531154700,38.35615478515625,-2.33060073852539,2.2919864654541016,0.0567891299724578
1757614253541110800,38.36611083984375,-2.280479431152344,2.6553680896759038,0.1389593482017517
1757614253551065600,38.37606567382812,-2.15860366821289,3.069812297821045,0.2042379528284073
1757614253561021400,38.386021484375,-1.9825280904769895,3.5127344131469727,0.2425166219472885
1757614253570977800,38.39597778320312,-1.7582582235336304,3.929218292236328,0.2663004994392395
1757614253580933600,38.40593359375,-1.5118608474731443,4.279481410980225,0.2670197486877441
1757614253590889700,38.4158896484375,-1.2510560750961304,4.533438682556152,0.2513073682785034
1757614253600845600,38.42584545898438,-0.9581642150878906,4.645893096923828,0.2188783586025238
1757614253610800600,38.43580053710937,-0.617577314376831,4.521540641784668,0.1945487856864929
1757614253620756700,38.4457568359375,-0.2245105654001236,4.063196659088135,0.1867572516202926
1757614253630712800,38.455712890625,0.2080738693475723,3.2382078170776367,0.2143766283988952
1757614253640668700,38.46566870117187,0.6207481026649475,2.1255550384521484,0.3052899837493896
1757614253650624800,38.47562475585938,0.9176834225654602,0.8118482828140259,0.4106643497943878
1757614253660579600,38.48557958984375,1.0409033298492432,-0.5849451422691345,0.4624136686325073
1757614253670535700,38.49553564453125,1.0229384899139404,-1.9219682216644287,0.4347602128982544
1757614253680491800,38.50549169921875,0.9393081665039062,-3.0903868675231934,0.3545774221420288
1757614253690447600,38.51544750976562,0.904199481010437,-4.026854515075684,0.2310376316308975
1757614253700403700,38.52540380859375,1.0110307931900024,-4.745422840118408,0.0847294256091117
1757614253710359600,38.53535961914063,1.3402646780014038,-5.279653072357178,-0.1084560081362724
1757614253720314600,38.54531469726562,1.96080219745636,-5.635474681854248,-0.4090562462806701
1757614253730270700,38.55527075195312,2.947355031967163,-5.740840435028076,-0.8011694550514221
1757614253740226800,38.565226806640624,4.293845653533936,-5.545080661773682,-1.1569292545318604
1757614253750182700,38.5751826171875,5.695364475250244,-5.25232458114624,-1.204613208770752
1757614253760138800,38.585138671875,6.494392395019531,-5.1248860359191895,-1.0065122842788696
1757614253770093600,38.595093505859374,6.113621711730957,-4.961599349975586,-0.7470561265945435
1757614253780049700,38.60504956054688,4.758807182312012,-3.969682216644287,-0.6794865727424622
1757614253790005800,38.615005859375,3.245302438735962,-2.267138957977295,-0.8234314918518066
1757614253799961600,38.62496166992187,2.3412089347839355,-0.7740973830223083,-1.032073140144348
1757614253809917700,38.63491772460937,2.135350227355957,-0.0962613672018051,-1.1564816236495972
1757614253819872500,38.64487255859375,2.2345199584960938,-0.1746098697185516,-1.253854513168335
1757614253829828600,38.65482861328125,2.3246209621429443,-0.6229487657546997,-1.3377212285995483
1757614253839784700,38.66478466796875,2.222626209259033,-1.093300700187683,-1.372334122657776
1757614253849740500,38.67474047851562,1.895252585411072,-1.481635332107544,-1.3799571990966797
1757614253859696600,38.68469653320312,1.4502274990081787,-1.7823420763015747,-1.3753632307052612
1757614253869652500,38.69465258789062,0.9890294671058656,-1.961491584777832,-1.3371727466583252
1757614253879607600,38.704607666015626,0.580154538154602,-2.0428566932678223,-1.261963963508606
1757614253889563600,38.714563720703126,0.2380957603454589,-2.0670742988586426,-1.162513017654419
1757614253899519500,38.72451953125,-0.0252275113016366,-2.068105459213257,-1.0669554471969604
1757614253909475600,38.7344755859375,-0.2126362770795822,-2.0896759033203125,-0.9814034700393676
1757614253919431400,38.74443139648437,-0.3263244032859802,-2.1275510787963867,-0.8984506130218506
1757614253929386500,38.754386474609376,-0.3850124776363373,-2.15484881401062,-0.7994489073753357
1757614253939342600,38.76434252929688,-0.4162741303443908,-2.169938564300537,-0.6552067995071411
1757614253949298700,38.774298583984375,-0.441362977027893,-2.1955671310424805,-0.4780783653259277
1757614253959254500,38.78425463867188,-0.4859617054462433,-2.1631550788879395,-0.2723948061466217
1757614253969210600,38.794210693359375,-0.5587981343269348,-1.9732990264892576,-0.0351497493684291
1757614253979166500,38.80416650390625,-0.6274518966674805,-1.6677086353302002,0.2192901074886322
1757614253989121500,38.81412158203125,-0.6522901058197021,-1.3967362642288208,0.4430119097232818
1757614253999077600,38.82407763671875,-0.6321489214897156,-1.2598588466644287,0.6093655228614807
1757614254009033500,38.834033447265625,-0.5769490599632263,-1.2619032859802246,0.7105816602706909
1757614254018989600,38.843989501953125,-0.5325390100479126,-1.3424195051193235,0.7353535890579224
1757614254028945400,38.8539453125,-0.5360767245292664,-1.4328933954238892,0.6828482747077942
1757614254038900700,38.86390063476563,-0.5932615995407104,-1.4947779178619385,0.5637195706367493
1757614254048856600,38.87385668945313,-0.7316684722900391,-1.6154040098190308,0.4236663281917572
1757614254058812700,38.88381274414063,-0.95498126745224,-1.7650346755981443,0.3098834156990051
1757614254068768500,38.8937685546875,-1.223246455192566,-1.7235335111618042,0.2491105943918228
1757614254078724600,38.903724609375,-1.4738620519638062,-1.3081238269805908,0.2744461297988891
1757614254088679700,38.9136796875,-1.7014366388320925,-0.5015256404876709,0.3881042599678039
1757614254098635500,38.92363549804688,-1.9363566637039185,0.6024725437164307,0.4995746910572052
1757614254108591600,38.93359155273438,-2.16430926322937,1.782886266708374,0.5646826028823853
1757614254118547500,38.94354736328125,-2.234994649887085,2.829824686050415,0.5001412630081177
1757614254128503600,38.95350366210938,-1.841801881790161,3.7804512977600098,0.1848176270723343
1757614254138459400,38.96345947265625,-0.813643753528595,4.575706005096436,-0.1760862171649933
1757614254148414700,38.97341479492187,0.1594699770212173,4.651005268096924,-0.1178990676999092
1757614254158370600,38.98337060546875,0.1301523894071579,4.708606243133545,0.4669476747512817
1757614254168326700,38.99332666015625,-0.8964341282844543,5.57049560546875,1.0868679285049438
1757614254178282500,39.00328247070313,-2.258797407150269,6.787772178649902,1.346036672592163
1757614254188238600,39.01323852539063,-3.4133150577545166,7.289094924926758,1.3106640577316284
1757614254198193700,39.02319360351562,-4.069857120513916,6.716268062591553,1.0383423566818235
1757614254208149500,39.0331494140625,-4.177709579467773,5.501038551330566,0.6045020222663879
1757614254218105600,39.04310571289062,-3.726152181625366,4.295101642608643,0.3748947381973266
1757614254228061400,39.0530615234375,-2.801161766052246,3.2924883365631104,0.2562322914600372
1757614254238017500,39.063017578125,-1.6766903400421145,2.6293678283691406,0.2060314565896988
1757614254247973400,39.07297338867188,-0.6887423992156982,2.3027212619781494,0.1683527827262878
1757614254257928700,39.0829287109375,-0.1173933744430542,2.091925859451294,0.1073744148015976
1757614254267884500,39.09288452148437,-0.0482390746474266,1.8560997247695925,0.0060158357955515
1757614254277840600,39.10284057617187,-0.3543606698513031,1.678875207901001,-0.1059611961245536
1757614254287796500,39.11279638671875,-0.8235992789268494,1.7118686437606812,-0.1823116391897201
1757614254297752600,39.12275268554688,-1.263251543045044,1.9575648307800293,-0.1946735978126526
1757614254307707600,39.132707763671874,-1.5924535989761353,2.282830715179444,-0.1499303579330444
1757614254317663500,39.14266357421875,-1.7974704504013062,2.57033109664917,-0.0794918462634086
1757614254327619600,39.15261962890625,-1.877139449119568,2.782783269882202,-0.0100171631202101
1757614254337575400,39.16257543945313,-1.856963396072388,2.9471466541290283,0.050864141434431
1757614254347531500,39.17253149414063,-1.7850724458694458,3.0883591175079346,0.0893271118402481
1757614254357486600,39.18248657226562,-1.6772165298461914,3.2385995388031006,0.1101900488138198
1757614254367442700,39.19244262695312,-1.54910409450531,3.3953144550323486,0.1390701681375503
1757614254377398500,39.2023984375,-1.4147303104400637,3.545715808868408,0.1770246922969818
1757614254387354600,39.21235473632812,-1.2828073501586914,3.688816547393799,0.2202624380588531
1757614254397310500,39.222310546875,-1.144816279411316,3.801015853881836,0.2314822226762771
1757614254407265500,39.232265625,-0.9726429581642152,3.828784704208374,0.1870801299810409
1757614254417221600,39.2422216796875,-0.7264570593833923,3.7366154193878174,0.0755497813224792
1757614254427177500,39.25217749023437,-0.3827409446239471,3.4475817680358887,-0.0984108299016952
1757614254437133600,39.26213354492187,0.0644948631525039,2.9286437034606934,-0.3132142424583435
1757614254447089400,39.27208935546875,0.583603024482727,2.1039340496063232,-0.5221370458602905
1757614254457045500,39.28204541015625,1.1021661758422852,0.9233396649360656,-0.658305287361145
1757614254467000600,39.29200048828125,1.5422024726867676,-0.5320067405700684,-0.6867412328720093
1757614254476956700,39.301956787109376,1.798495531082153,-2.129329204559326,-0.6743645668029785
1757614254486912500,39.31191259765625,1.8641104698181152,-3.6472363471984863,-0.7402123212814331
1757614254496868600,39.32186865234375,1.9168757200241089,-4.881721019744873,-0.926573634147644
1757614254506824400,39.33182446289062,2.152545690536499,-5.833998203277588,-1.2367085218429563
1757614254516779800,39.34177978515625,2.6896655559539795,-6.588109970092773,-1.6869977712631226
1757614254526735600,39.351735595703126,3.603912591934204,-7.20957612991333,-2.226159811019897
1757614254536691700,39.36169165039063,4.92617654800415,-7.705723285675049,-2.7255380153656006
1757614254546647600,39.3716474609375,6.5150465965271,-8.002242088317871,-2.9075710773468018
1757614254556603400,39.38160327148437,7.851358890533447,-8.186711311340332,-2.691494941711426
1757614254566558700,39.39155883789063,8.103750228881836,-8.371201515197754,-2.380053758621216
1757614254576514600,39.4015146484375,6.611329078674316,-7.7668256759643555,-2.195019483566284
1757614254586470700,39.411470703125,3.8301515579223633,-6.14456844329834,-1.9876397848129272
1757614254596426500,39.42142651367188,1.3713221549987793,-4.256516933441162,-1.687556505203247
1757614254606382600,39.431382568359375,0.2067274004220962,-2.4574198722839355,-1.2808787822723389
1757614254616337700,39.44133764648438,-0.0673037990927696,-1.2621686458587646,-0.931870698928833
1757614254626293800,39.45129370117188,0.0124232526868581,-0.8495475649833679,-0.7285884618759155
1757614254636249600,39.46124951171875,0.1990687698125839,-0.8621894717216492,-0.5928248167037964
1757614254646205700,39.47120581054688,0.374891996383667,-0.9555833339691162,-0.5000442862510681
1757614254656161500,39.48116162109375,0.4789701700210571,-1.0510774850845337,-0.3979792594909668
1757614254666117400,39.49111743164063,0.577168881893158,-1.157296657562256,-0.3039054870605469
1757614254676072700,39.50107275390625,0.6254674196243286,-1.230668544769287,-0.3028996884822845
1757614254686028500,39.51102856445313,0.5566158890724182,-1.2376623153686523,-0.3550955057144165
1757614254695984600,39.52098461914063,0.3445152044296264,-1.2123061418533323,-0.410920649766922
1757614254705940500,39.5309404296875,0.020046317949891,-1.2174108028411863,-0.4467739760875702
1757614254715896600,39.540896484375,-0.3628998696804046,-1.2832468748092651,-0.4591835141181946
1757614254725851600,39.5508515625,-0.7497698068618774,-1.3806090354919434,-0.4578902721405029
1757614254735807700,39.56080786132812,-1.099696159362793,-1.451500415802002,-0.4267245233058929
1757614254745763600,39.570763671875,-1.3771874904632568,-1.5291075706481934,-0.3532859981060028
1757614254755719700,39.5807197265625,-1.562699317932129,-1.6447075605392456,-0.2401180118322372
1757614254765675500,39.59067553710938,-1.618451476097107,-1.7382692098617554,-0.0896432846784591
1757614254775630600,39.60063061523437,-1.5352009534835815,-1.7384432554244995,0.1094360724091529
1757614254785586700,39.61058666992187,-1.3200161457061768,-1.6677184104919434,0.3390274345874786
1757614254795542500,39.62054248046875,-1.0011833906173706,-1.6057672500610352,0.5717601180076599
1757614254805498600,39.63049853515625,-0.6187726259231567,-1.5811800956726074,0.7385336756706238
1757614254815454500,39.64045434570313,-0.2904527187347412,-1.5696550607681274,0.7780873775482178
1757614254825409500,39.65040942382812,-0.0750099122524261,-1.5312339067459106,0.6786625385284424
1757614254835365600,39.66036572265625,0.014209421351552,-1.474249005317688,0.4974271655082702
1757614254845321500,39.67032153320312,0.0127265732735395,-1.353421688079834,0.3146712183952331
1757614254855277600,39.68027758789062,-0.0245801098644733,-1.064902901649475,0.1802815943956375
1757614254865233400,39.6902333984375,-0.0995915085077285,-0.5652204751968384,0.107459045946598
1757614254875189200,39.700189208984376,-0.2701970934867859,0.1023484990000724,0.0704403519630432
1757614254885144600,39.71014453125,-0.5342453122138977,0.9040236473083496,-0.0046149846166372
1757614254895100400,39.72010034179687,-0.677620530128479,1.7635012865066528,-0.1800210922956466
1757614254905056500,39.73005639648437,-0.4931196570396423,2.561675786972046,-0.418725311756134
1757614254915012400,39.74001245117187,-0.0605357624590396,3.098773956298828,-0.5224195122718811
1757614254924968400,39.74996850585938,-0.0180362369865179,3.3137097358703613,-0.2699289619922638
1757614254934923500,39.75992358398437,-0.6443163156509399,3.7836546897888175,0.1677111387252807
1757614254944879600,39.769879638671874,-1.5541014671325684,4.619941711425781,0.5032672882080078
1757614254954835500,39.77983544921875,-2.3347649574279785,5.126299858093262,0.5037391185760498
1757614254964791600,39.78979150390625,-2.737510204315185,4.65839433670044,0.2971579730510711
1757614254974747400,39.79974731445313,-2.499621629714966,3.5765297412872314,0.123545616865158
1757614254984702500,39.80970239257813,-1.803594827651977,2.6124305725097656,0.0888132080435752
1757614254994658600,39.81965844726562,-0.9551191926002502,2.101064920425415,0.2097968757152557
1757614255004614400,39.82961450195312,-0.2949239909648895,1.9128600358963013,0.4580764472484588
1757614255014570500,39.83957055664062,-0.0199337974190711,1.8780813217163088,0.748923659324646
1757614255024526300,39.8495263671875,-0.1022957786917686,1.9299135208129885,0.9409860372543336
1757614255034481400,39.8594814453125,-0.3891683220863342,2.101480722427368,1.0076172351837158
1757614255044437500,39.8694375,-0.7454556226730347,2.375042676925659,1.0092058181762695
1757614255054393600,39.8793935546875,-1.1016077995300293,2.635835886001587,0.9918198585510254
1757614255064349400,39.88934936523437,-1.4153015613555908,2.8140015602111816,0.9542948603630066
1757614255074305500,39.89930541992187,-1.6910864114761353,2.944941997528076,0.8838323354721069
1757614255084260400,39.90926025390625,-1.9137557744979856,3.07263731956482,0.7764848470687866
1757614255094216400,39.919216552734376,-2.0644681453704834,3.2132692337036133,0.6597113609313965
1757614255104172500,39.92917260742188,-2.1388888359069824,3.378124475479126,0.5736593008041382
1757614255114128400,39.93912841796875,-2.1562254428863525,3.583383560180664,0.5308144688606262
1757614255124084500,39.94908447265625,-2.124037265777588,3.8449957370758057,0.5251693725585938
1757614255134039300,39.95903930664063,-2.063030242919922,4.13486909866333,0.5390462279319763
1757614255143995600,39.96899560546875,-1.96875262260437,4.405700206756592,0.550567090511322
1757614255153951500,39.978951416015626,-1.8463603258132932,4.636566638946533,0.5413938760757446
1757614255163907600,39.988907470703126,-1.6996649503707886,4.80169153213501,0.4948114454746246
1757614255173863400,39.99886352539063,-1.528438925743103,4.887722492218018,0.4029921591281891
1757614255183818200,40.008818359375,-1.3066351413726809,4.820889472961426,0.2807264328002929
1757614255193774300,40.0187744140625,-1.0150457620620728,4.519280910491943,0.1354430019855499
1757614255203730400,40.02873046875,-0.6355400085449219,3.972031354904175,4.68221842311e-05
1757614255213686500,40.0386865234375,-0.1697352975606918,3.2801766395568848,-0.0913045108318328
1757614255223642400,40.048642333984375,0.3228480219841003,2.424852132797241,-0.1510045975446701
1757614255233598500,40.05859838867188,0.7611100673675537,1.2897340059280396,-0.200644850730896
1757614255243553300,40.06855322265625,1.1019256114959717,-0.1093063056468963,-0.2039210796356201
1757614255253509600,40.07850952148438,1.376680850982666,-1.6767252683639526,-0.1532402038574218
1757614255263465500,40.08846557617188,1.6196048259735107,-3.232700824737549,-0.1217443272471427
1757614255273421600,40.09842163085938,1.8900223970413208,-4.506498336791992,-0.1775962114334106
1757614255283377400,40.10837744140625,2.256646156311035,-5.3376874923706055,-0.350907027721405
1757614255293332200,40.11833227539063,2.803782224655152,-5.74770975112915,-0.6950628757476807
1757614255303288600,40.12828857421875,3.719359397888184,-5.852867126464844,-1.2697772979736328
1757614255313244400,40.13824438476563,5.156947612762451,-5.777989387512207,-1.9497787952423096
1757614255323200500,40.14820043945313,6.631678581237793,-5.775279521942139,-2.2558438777923584
1757614255333156400,40.15815625,7.023612022399902,-6.179710388183594,-2.0267035961151123
1757614255343111400,40.168111328125,5.59923267364502,-6.112362384796143,-1.7333369255065918
1757614255353067500,40.17806762695312,3.069887399673462,-4.811511516571045,-1.5130047798156738
1757614255363023600,40.18802368164062,1.1834255456924438,-3.2651829719543457,-1.4091171026229858
1757614255372979500,40.1979794921875,0.5204100012779236,-2.1023967266082764,-1.273613691329956
1757614255382935600,40.207935546875,0.5303321480751038,-1.5203784704208374,-1.120004177093506
1757614255392890400,40.21789038085937,0.7841966152191162,-1.5102144479751587,-1.0000231266021729
1757614255402846500,40.22784643554687,1.101388454437256,-1.7211525440216064,-0.9190714955329896
1757614255412802600,40.23780249023437,1.356528639793396,-1.849697947502136,-0.8739601373672485
1757614255422758400,40.24775830078125,1.4724962711334229,-1.9191253185272217,-0.8150350451469421
1757614255432714500,40.25771459960937,1.4631696939468384,-2.0311696529388428,-0.7940205335617065
1757614255442669300,40.26766943359375,1.318149209022522,-2.184171199798584,-0.8293295502662659
1757614255452625400,40.27762548828125,1.041475534439087,-2.2789294719696045,-0.8682384490966797
1757614255462581500,40.28758154296875,0.6605902910232544,-2.3209033012390137,-0.8821361064910889
1757614255472537600,40.29753759765625,0.2194114625453949,-2.36496639251709,-0.867782473564148
1757614255482493400,40.30749340820312,-0.243618756532669,-2.4231865406036377,-0.8315044045448303
1757614255492448300,40.3174482421875,-0.699489414691925,-2.4807283878326416,-0.7893919348716736
1757614255502404400,40.327404296875,-1.116854906082153,-2.5491554737091064,-0.7284165024757385
1757614255512360400,40.3373603515625,-1.460189700126648,-2.6505203247070312,-0.6339491009712219
1757614255522316500,40.347316650390624,-1.6851847171783447,-2.776018619537353,-0.519996166229248
1757614255532272400,40.3572724609375,-1.7563323974609375,-2.86377477645874,-0.4048956632614136
1757614255542227500,40.3672275390625,-1.6465272903442385,-2.856210231781006,-0.2790074944496155
1757614255552183300,40.377183349609375,-1.3571555614471436,-2.7489171028137207,-0.1119937002658844
1757614255562139400,40.38713940429688,-0.9340676069259644,-2.528187990188598,0.1080470532178878
1757614255572095500,40.39709545898437,-0.4464108943939209,-2.218526840209961,0.3394035100936889
1757614255582051600,40.407051513671874,0.0234974883496761,-1.8575962781906128,0.5201493501663208
1757614255592006400,40.41700634765625,0.3605401813983917,-1.4757366180419922,0.6076681613922119
1757614255601962200,40.426962158203125,0.5338730812072754,-1.1418631076812744,0.6015263795852661
1757614255611918300,40.43691845703125,0.519022524356842,-0.9654587507247924,0.5412644147872925
1757614255621874400,40.44687451171875,0.2879938185214996,-0.9571462273597716,0.4813233017921448
1757614255631830500,40.45683056640625,-0.1465941965579986,-1.0056321620941162,0.4257272481918335
1757614255641785300,40.46678540039063,-0.6920793056488037,-0.91353178024292,0.3636718690395355
1757614255651741400,40.47674145507813,-1.1922932863235474,-0.5517973899841309,0.3364829421043396
1757614255661697300,40.486697265625,-1.5600252151489258,0.102836400270462,0.3036442995071411
1757614255671653600,40.496653564453126,-1.736990451812744,1.0291951894760132,0.2088356465101242
1757614255681609500,40.506609375,-1.6323407888412476,2.1249170303344727,0.096595399081707
1757614255691564300,40.51656420898438,-1.3485273122787476,3.057582139968872,0.1327734291553497
1757614255701520400,40.52652026367188,-1.3232067823410034,3.4837090969085693,0.3602814078330993
1757614255711476200,40.53647631835938,-1.8103677034378047,3.8288209438323975,0.759549081325531
1757614255721432300,40.54643237304688,-2.4819536209106445,4.41088342666626,1.0796633958816528
1757614255731388400,40.556388427734376,-2.8737409114837646,4.743531227111816,0.9654675126075744
1757614255741344500,40.56634448242188,-2.703804016113281,4.3867034912109375,0.4961386024951935
1757614255751299300,40.57629931640625,-2.007880926132202,3.4361252784729004,0.0024775175843387
1757614255761255400,40.58625537109375,-1.0711592435836792,2.4178593158721924,-0.2921347022056579
1757614255771211300,40.59621118164063,-0.2757035493850708,1.7970563173294067,-0.3797650635242462
1757614255781167600,40.60616772460938,0.0137168103829026,1.5721670389175415,-0.3419694900512695
1757614255791123500,40.61612353515625,-0.2710086107254028,1.594120979309082,-0.2576655149459839
1757614255801078300,40.62607836914062,-0.8540269732475281,1.7724417448043823,-0.1982288211584091
1757614255811034400,40.63603442382812,-1.4119137525558472,1.9942034482955933,-0.1338615417480468
1757614255820990700,40.64599072265625,-1.7751613855361938,2.16960072517395,-0.0419238805770874
1757614255830946600,40.65594653320313,-1.9763785600662231,2.259337902069092,0.0564609840512275
1757614255840903000,40.66590283203125,-2.080343723297119,2.288544178009033,0.1302859336137771
1757614255850857700,40.67585766601562,-2.133167266845703,2.3184847831726074,0.1643210351467132
1757614255860813800,40.68581372070312,-2.1374051570892334,2.391974687576294,0.1630158275365829
1757614255870769700,40.69576977539062,-2.099596738815308,2.503950595855713,0.1492844223976135
1757614255880725800,40.70572583007812,-2.031569480895996,2.640688896179199,0.1386983543634414
1757614255890681900,40.71568188476562,-1.9443867206573489,2.7778148651123047,0.1349788755178451
1757614255900637000,40.72563696289063,-1.848439693450928,2.909418821334839,0.1408583372831344
1757614255910592800,40.7355927734375,-1.7393794059753418,3.0349764823913574,0.169985294342041
1757614255920548600,40.74554858398437,-1.6327242851257324,3.182062149047852,0.211264282464981
1757614255930504700,40.75550463867187,-1.54685378074646,3.3300347328186035,0.2560789585113525
1757614255940460800,40.76546069335937,-1.486719846725464,3.4510762691497803,0.3166951835155487
1757614255950416000,40.775415771484376,-1.4439512491226196,3.584685802459717,0.3663372099399566
1757614255960371700,40.78537182617188,-1.3764348030090332,3.687263250350952,0.4044877886772156
1757614255970327800,40.795327880859375,-1.26088547706604,3.703469038009644,0.3975986838340759
1757614255980283600,40.80528369140625,-1.065629959106445,3.5891382694244385,0.3279240131378174
1757614255990239000,40.81523901367188,-0.7685785293579102,3.289483070373535,0.2104266136884689
1757614256000194800,40.82519482421875,-0.3632488846778869,2.721924066543579,0.0604869239032268
1757614256010151000,40.83515087890625,0.1389028578996658,1.8558703660964968,-0.0769512131810188
1757614256020106800,40.845106689453125,0.710310697555542,0.6826483607292175,-0.1653926521539688
1757614256030062800,40.85506274414063,1.273480772972107,-0.7353814244270325,-0.2074800580739975
1757614256040018000,40.86501782226563,1.7588977813720703,-2.233053684234619,-0.2368861585855484
1757614256049973800,40.87497387695313,2.186651468276977,-3.576223611831665,-0.29280886054039
1757614256059929900,40.88492993164063,2.607718706130981,-4.613976001739502,-0.4065258204936981
1757614256069885700,40.8948857421875,3.075475215911865,-5.246007919311523,-0.5862829089164734
1757614256079841800,40.904841796875,3.670376777648926,-5.481345176696777,-0.8711149096488953
1757614256089796900,40.914796875,4.569913864135742,-5.323736190795898,-1.3383331298828125
1757614256099753000,40.9247529296875,5.956868648529053,-4.8019633293151855,-1.883880376815796
1757614256109708800,40.93470874023438,7.561537265777588,-4.331015110015869,-2.112894058227539
1757614256119665000,40.94466479492188,8.329712867736816,-4.562834739685059,-1.8622140884399412
1757614256129620700,40.95462084960938,7.150350570678711,-4.700976371765137,-1.389770269393921
1757614256139575800,40.96457592773437,4.324416637420654,-3.399733066558838,-0.9940839409828186
1757614256149532000,40.97453198242187,1.6183027029037476,-1.5054447650909424,-0.8816404938697815
1757614256159487700,40.98448779296875,0.4729561805725097,-0.153412714600563,-0.8423724174499512
1757614256169443800,40.99444384765625,0.3578336834907532,0.366150826215744,-0.8378043174743652
1757614256179399700,41.00439965820313,0.6276688575744629,0.2217885702848434,-0.8938577175140381
1757614256189355000,41.01435498046875,1.00019633769989,-0.2895736992359161,-0.959290087223053
1757614256199310800,41.02431079101562,1.3061469793319702,-0.8463131189346313,-1.0548580884933472
1757614256209267000,41.03426684570312,1.4418359994888306,-1.3671281337738037,-1.1570048332214355
1757614256219222800,41.04422290039062,1.3967294692993164,-1.840261936187744,-1.2049212455749512
1757614256229179000,41.05417895507812,1.177401423454285,-2.1970324516296387,-1.222551941871643
1757614256239134000,41.064134033203125,0.8183377981185913,-2.3445332050323486,-1.2161697149276731
1757614256249089800,41.07408984375,0.4104719161987304,-2.273451089859009,-1.1744378805160522
1757614256259046000,41.0840458984375,0.0042130835354328,-2.1114230155944824,-1.0932292938232422
1757614256269001700,41.09400170898437,-0.3778195679187774,-1.9894803762435915,-0.9822736382484436
1757614256278957800,41.10395776367187,-0.7223777770996094,-1.9395562410354612,-0.8627171516418457
1757614256288913000,41.11391284179688,-1.0142558813095093,-1.9254311323165891,-0.7635862231254578
1757614256298869000,41.123868896484375,-1.2487666606903076,-1.9076206684112549,-0.6875215768814087
1757614256308824800,41.133824951171874,-1.422421932220459,-1.8707019090652464,-0.6168833374977112
1757614256318781000,41.143781005859374,-1.529716730117798,-1.867718815803528,-0.5516036748886108
1757614256328736800,41.15373681640625,-1.5735745429992676,-1.9435747861862185,-0.519402265548706
1757614256338691600,41.16369165039063,-1.568665862083435,-2.0036754608154297,-0.4765195548534393
1757614256348648000,41.17364794921875,-1.527266502380371,-1.8634854555130005,-0.3352220952510834
1757614256358603800,41.18360375976562,-1.433410882949829,-1.5290532112121582,-0.0855872333049774
1757614256368559900,41.19355981445312,-1.2420328855514526,-1.172258973121643,0.2008230686187744
1757614256378515700,41.203515625,-0.9662233591079712,-0.8680998682975769,0.4300216436386108
1757614256388470800,41.213470703125,-0.6679378151893616,-0.62022465467453,0.5598273873329163
1757614256398427000,41.22342700195313,-0.4408023953437805,-0.4050153791904449,0.5718179941177368
1757614256408383000,41.23338305664063,-0.2813384234905243,-0.2504483759403229,0.4790413975715637
1757614256418338800,41.2433388671875,-0.2135194092988968,-0.1888516098260879,0.3479821681976318
1757614256428295000,41.253294921875,-0.2836150228977203,-0.1928687989711761,0.2518589198589325
1757614256438249700,41.26324975585938,-0.5189878940582275,-0.1186238601803779,0.2308633625507354
1757614256448205800,41.27320581054688,-0.9010958671569824,0.1339625418186187,0.2835287451744079
1757614256458162000,41.283161865234376,-1.3221697807312012,0.603208065032959,0.353388249874115
1757614256468117800,41.29311767578125,-1.6662079095840454,1.2291055917739868,0.3206645548343658
1757614256478073900,41.303073974609376,-1.7904406785964966,1.9251281023025515,0.1897949576377868
1757614256488028700,41.31302856445313,-1.547617793083191,2.614725351333618,0.0689503774046897
1757614256497984800,41.32298486328125,-1.0936037302017212,3.0799031257629395,0.0398327074944973
1757614256507940900,41.33294091796875,-0.9771360158920288,3.1288063526153564,0.1719022989273071
1757614256517897000,41.34289697265625,-1.5026780366897583,3.2717995643615723,0.5084515810012817
1757614256527852800,41.352852783203126,-2.3111863136291504,3.906462669372559,0.7676136493682861
1757614256537807600,41.3628076171875,-2.9203226566314697,4.543694496154785,0.6594126224517822
1757614256547763700,41.372763671875,-3.165947437286377,4.467140197753906,0.2939196825027466
1757614256557719800,41.3827197265625,-2.9702718257904053,3.816107749938965,-0.0514784790575504
1757614256567676000,41.39267602539063,-2.4439210891723637,3.2152740955352783,-0.1960597485303878
1757614256577631700,41.4026318359375,-1.93452787399292,3.023285388946533,-0.0743149369955062
1757614256587586800,41.4125869140625,-1.726158857345581,3.096524238586426,0.2420854270458221
1757614256597542700,41.42254272460937,-1.821357488632202,3.14872145652771,0.5958762764930725
1757614256607499000,41.4324990234375,-2.0177154541015625,3.055889844894409,0.8534164428710938
1757614256617454800,41.44245483398438,-2.136929512023926,2.8025121688842773,0.9712522625923156
1757614256627411000,41.45241088867188,-2.141047477722168,2.46109390258789,0.976152241230011
1757614256637365800,41.46236572265625,-2.0476596355438232,2.089268207550049,0.9223910570144652
1757614256647321600,41.47232153320312,-1.8733569383621216,1.7833049297332764,0.8573276996612549
1757614256657277700,41.48227758789063,-1.6450589895248413,1.5658791065216064,0.8098059892654419
1757614256667233800,41.49223388671875,-1.4173860549926758,1.4339851140975952,0.7718145251274109
1757614256677190000,41.50218994140625,-1.2380701303482056,1.374309539794922,0.7345982193946838
1757614256687144700,41.512144775390624,-1.133268117904663,1.3645150661468506,0.6842311024665833
1757614256697100800,41.52210083007813,-1.0993837118148804,1.4340014457702637,0.6071714758872986
1757614256707056600,41.532056640625,-1.0727779865264893,1.5402705669403076,0.5149257183074951
1757614256717013000,41.54201293945312,-1.0377116203308103,1.6744462251663208,0.4267815053462982
1757614256726967800,41.5519677734375,-1.0024422407150269,1.872665524482727,0.3414088189601898
1757614256736923600,41.56192358398437,-0.9830493927001952,2.1041088104248047,0.2864416837692261
1757614256746879700,41.571879638671874,-0.9926525354385376,2.3616786003112797,0.259092777967453
1757614256756835600,41.58183569335937,-1.0273407697677612,2.658456325531006,0.2541534006595611
1757614256766792000,41.5917919921875,-1.0557035207748413,2.941329002380371,0.2524859607219696
1757614256776746800,41.60174682617188,-1.0218513011932373,3.1119070053100586,0.2278285175561905
1757614256786702800,41.611702880859376,-0.8747833371162415,3.0937178134918213,0.1631577014923095
1757614256796658700,41.62165869140625,-0.5673445463180542,2.81451678276062,0.0520548783242702
1757614256806614800,41.63161474609375,-0.0958338007330894,2.25722074508667,-0.071965716779232
1757614256816570000,41.64157006835938,0.5028448104858398,1.3983339071273804,-0.1838326007127761
1757614256826525000,41.65152490234375,1.1352673768997192,0.2759315967559814,-0.3013615310192108
1757614256836481000,41.66148095703125,1.7043063640594482,-0.9895985722541808,-0.4157972931861877
1757614256846436900,41.67143676757812,2.1675822734832764,-2.223332166671753,-0.5219640135765076
1757614256856393200,41.68139331054687,2.553587913513184,-3.3028509616851807,-0.6285903453826904
1757614256866349000,41.69134912109375,2.8999149799346924,-4.087769031524658,-0.772015392780304
1757614256876304100,41.70130419921875,3.243407249450684,-4.588251113891602,-0.962776780128479
1757614256886260000,41.71126000976562,3.659093856811523,-4.811987400054932,-1.2813855409622192
1757614256896216000,41.72121606445312,4.302093029022217,-4.758605480194092,-1.7076990604400637
1757614256906172200,41.73117211914062,5.326059818267822,-4.440222263336182,-2.0822200775146484
1757614256916128300,41.74112817382812,6.613489151000977,-4.0731611251831055,-2.247400045394897
1757614256926083000,41.7510830078125,7.367456912994385,-4.220284461975098,-1.973921298980713
1757614256936039000,41.761038818359374,6.572741985321045,-4.356639385223389,-1.4013967514038086
1757614256945995000,41.7709951171875,4.364581108093262,-3.326403379440308,-0.9293712377548218
1757614256955950800,41.78095092773437,1.9719624519348145,-1.7011381387710571,-0.7793974876403809
1757614256965907200,41.7909072265625,0.727857768535614,-0.529531717300415,-0.7344736456871033
1757614256975862000,41.80086206054688,0.4084169566631317,-0.0139376614242792,-0.6515260338783264
1757614256985818000,41.810818115234376,0.4524461925029754,-0.0541839897632598,-0.6008763909339905
1757614256995774000,41.82077392578125,0.6349337100982666,-0.3906634747982025,-0.6138526201248169
1757614257005730000,41.83072998046875,0.8468154668807983,-0.7780962586402893,-0.6882692575454712
1757614257015685000,41.84068505859375,0.972666084766388,-1.1937810182571411,-0.7968471050262451
1757614257025641000,41.85064086914063,0.9463117718696594,-1.6013950109481812,-0.8923851847648621
1757614257035597000,41.86059716796875,0.742810845375061,-1.8866022825241089,-0.9677747488021852
1757614257045553000,41.870552978515626,0.3880724310874939,-1.961767315864563,-0.9889849424362184
1757614257055509000,41.880509033203126,-0.0466662272810936,-1.8660235404968264,-0.9460211992263794
1757614257065464000,41.89046411132812,-0.4624517261981964,-1.741023302078247,-0.8539506793022156
1757614257075420200,41.90042016601563,-0.8023402690887451,-1.681010127067566,-0.7596884965896606
1757614257085376000,41.9103759765625,-1.0460819005966189,-1.6919915676116943,-0.6838487982749939
1757614257095332000,41.92033203125,-1.2272833585739136,-1.738193154335022,-0.5972985029220581
1757614257105288000,41.93028784179688,-1.3845371007919312,-1.8017895221710205,-0.4817598462104797
1757614257115243000,41.94024291992187,-1.5181665420532229,-1.859447956085205,-0.3208526968955993
1757614257125199000,41.95019921875,-1.603622317314148,-1.805335998535156,-0.1076139733195304
1757614257135155000,41.96015502929688,-1.5946965217590332,-1.6138293743133545,0.1424155682325363
1757614257145111000,41.97011108398438,-1.4535460472106934,-1.3647886514663696,0.3806829154491424
1757614257155067000,41.98006689453125,-1.171515703201294,-1.1219596862792969,0.5681700110435486
1757614257165022200,41.99002221679687,-0.7729153633117676,-0.9081777930259703,0.6715871095657349
1757614257174978000,41.99997802734375,-0.3291752338409424,-0.7230745553970337,0.6865727305412292
1757614257184934100,42.00993408203125,0.0670733004808425,-0.591323971748352,0.6524829268455505
1757614257194890000,42.01988989257813,0.3066885471343994,-0.4858529269695282,0.6583357453346252
1757614257204846000,42.02984619140625,0.3897243440151214,-0.3944920301437378,0.7606500387191772
1757614257214801200,42.03980126953125,0.3570747971534729,-0.2875621020793915,0.9128603339195251
1757614257224757000,42.04975708007812,0.243732213973999,-0.0708447992801666,1.02870774269104
1757614257234713000,42.05971313476562,0.0433000586926937,0.2458974719047546,1.1804426908493042
1757614257244669000,42.0696689453125,-0.2475909292697906,0.6108914613723755,1.390830159187317
1757614257254624300,42.079624267578126,-0.5490626096725464,1.0342422723770142,1.552940011024475
1757614257264580000,42.089580078125,-0.7800776362419128,1.5548908710479736,1.5980641841888428
1757614257274536200,42.0995361328125,-0.819815456867218,2.1407766342163086,1.5406423807144165
1757614257284492000,42.10949194335937,-0.4463087916374206,2.728729486465454,1.348017334938049
1757614257294448000,42.1194482421875,0.4381890594959259,3.077667713165283,1.039084553718567
1757614257304403000,42.12940283203125,1.0858967304229736,2.755532741546631,0.8994905948638916
1757614257314359000,42.139359130859376,0.5774390697479248,2.6172242164611816,1.216740608215332
1757614257324315100,42.14931518554688,-0.9559935331344604,3.674898386001587,1.7344484329223633
1757614257334271000,42.15927099609375,-2.4459338188171387,5.0784831047058105,1.8818237781524656
1757614257344227000,42.16922705078125,-3.3716509342193604,5.348501682281494,1.6583890914916992
1757614257354182000,42.179181884765626,-3.763650417327881,4.636152267456055,1.2336803674697876
1757614257364138200,42.18913818359375,-3.698274850845337,3.5214269161224365,0.7218527793884277
1757614257374094000,42.19909399414063,-3.2468364238739014,2.4954116344451904,0.3456615507602691
1757614257384050200,42.20905029296875,-2.586088895797729,1.8000999689102173,0.1307876259088516
1757614257394006000,42.219006103515625,-1.9571211338043213,1.4373670816421509,0.004658724181354
1757614257403960800,42.2289609375,-1.5955986976623535,1.2911412715911863,-0.0734231397509574
1757614257413917200,42.23891723632813,-1.5725998878479004,1.240964651107788,-0.1538444757461547
1757614257423873000,42.248873046875,-1.7806682586669922,1.2822608947753906,-0.2486937940120697
1757614257433829000,42.2588291015625,-2.0523829460144043,1.4741400480270386,-0.3277049958705902
1757614257443784000,42.26878393554688,-2.2724926471710205,1.739631414413452,-0.3761879801750183
1757614257453740000,42.27873999023438,-2.399693012237549,1.9834496974945068,-0.4064716100692749
1757614257463696100,42.28869604492188,-2.447934627532959,2.1725194454193115,-0.441327840089798
1757614257473652200,42.29865234375,-2.4318320751190186,2.3312196731567383,-0.4661623537540436
1757614257483608000,42.30860815429688,-2.357058525085449,2.503434419631958,-0.4654610753059387
1757614257493563000,42.31856298828125,-2.215195417404175,2.689600944519043,-0.4273579120635986
1757614257503519000,42.32851904296875,-2.0016889572143555,2.859538555145264,-0.363942801952362
1757614257513474800,42.33847485351563,-1.7242807149887085,2.975287675857544,-0.2820665836334228
1757614257523431200,42.34843115234375,-1.4065186977386477,3.028625011444092,-0.1859184950590133
1757614257533387000,42.35838696289063,-1.072580337524414,3.005638360977173,-0.0884870216250419
1757614257543342000,42.36834204101562,-0.7251628041267395,2.861043930053711,-0.0209112353622913
1757614257553298000,42.3782978515625,-0.3544164299964905,2.587980270385742,-0.0136495949700474
1757614257563254000,42.38825390625,0.0528613291680812,2.170209646224976,-0.0910025388002395
1757614257573210000,42.39821020507812,0.4827829003334045,1.6174726486206057,-0.240383505821228
1757614257583166200,42.40816625976562,0.8871110081672668,0.9384602308273317,-0.4350673854351043
1757614257593121000,42.41812109375,1.2297868728637695,0.1114574074745178,-0.6395896673202515
1757614257603076900,42.42807690429687,1.497746229171753,-0.8414646983146667,-0.8151652216911316
1757614257613033000,42.43803295898437,1.723821997642517,-1.8750828504562376,-0.939685046672821
1757614257622989000,42.44798901367187,1.951391577720642,-2.886117696762085,-1.0208311080932615
1757614257632944000,42.45794409179688,2.231300115585327,-3.7599480152130127,-1.073928713798523
1757614257642900000,42.46789990234375,2.58777379989624,-4.40614652633667,-1.102354884147644
1757614257652856000,42.47785595703125,3.0266270637512207,-4.798159599304199,-1.1352993249893188
1757614257662812000,42.48781201171875,3.5448036193847656,-4.952110290527344,-1.204463005065918
1757614257672768000,42.49776806640625,4.182369232177734,-4.882552623748779,-1.3396695852279663
1757614257682723000,42.50772314453125,5.026632785797119,-4.617763519287109,-1.524286866188049
1757614257692679000,42.517678955078125,6.110860824584961,-4.271486759185791,-1.724194884300232
1757614257702635000,42.527635009765625,7.049599170684815,-4.167272090911865,-1.742483139038086
