time,seconds_elapsed,z,y,x
1757614636696740400,71.735740234375,2.053821325302124,-2.101675033569336,-1.781699776649475
1757614636706695700,71.74569580078125,1.9564422369003296,-2.1724541187286377,-1.69167160987854
1757614636716650500,71.755650390625,1.8214141130447388,-2.3011066913604736,-1.5066951513290403
1757614636726605300,71.76560522460937,1.584776520729065,-2.482007503509521,-1.3145043849945068
1757614636736561700,71.77556176757813,1.2563440799713137,-2.632293939590454,-1.1412265300750732
1757614636746516500,71.7855166015625,0.8901381492614746,-2.6880037784576416,-0.9901803135871888
1757614636756471300,71.79547119140625,0.5267490148544312,-2.680321216583252,-0.8553548455238342
1757614636766426600,71.80542651367188,0.2067771404981613,-2.6581528186798096,-0.7321916818618774
1757614636776381400,71.81538134765626,-0.0534107610583305,-2.6742208003997803,-0.6334006190299988
1757614636786336500,71.82533642578124,-0.2485179305076599,-2.755856990814209,-0.5663747191429138
1757614636796291600,71.83529150390625,-0.393309473991394,-2.880876302719116,-0.5274853706359863
1757614636806246400,71.84524633789063,-0.4969274699687958,-3.043489456176758,-0.5108976364135742
1757614636816201500,71.85520141601563,-0.5752497315406799,-3.216409921646118,-0.4980776906013489
1757614636826156300,71.86515625,-0.6362526416778564,-3.3516855239868164,-0.4531626999378204
1757614636836111600,71.87511157226562,-0.705024778842926,-3.471705198287964,-0.3582969009876251
1757614636846066400,71.88506640625,-0.7794790267944336,-3.5248031616210938,-0.2054040133953094
1757614636856022300,71.89502221679687,-0.8401210308074951,-3.514056921005249,0.0052690641023218
1757614636865977600,71.9049775390625,-0.855737566947937,-3.534672975540161,0.2353896200656891
1757614636875932400,71.91493237304688,-0.8134564161300659,-3.620443820953369,0.4391981363296509
1757614636885887500,71.92488745117187,-0.7083984613418579,-3.7506260871887207,0.58295077085495
1757614636895842600,71.93484252929687,-0.5612135529518127,-3.856980800628662,0.6414950489997864
1757614636905797400,71.94479736328125,-0.4311724305152893,-3.8866934776306152,0.5888728499412537
1757614636915752400,71.95475244140626,-0.4107281565666199,-3.844274044036865,0.4345799386501312
1757614636925707500,71.96470751953125,-0.5308207273483276,-3.7269773483276367,0.2320388257503509
1757614636935662600,71.97466259765625,-0.7616997361183167,-3.38080096244812,-0.0040282974950969
1757614636945617400,71.98461743164063,-1.024463772773743,-2.6903741359710693,-0.2734704315662384
1757614636955572500,71.99457250976562,-1.3021373748779297,-1.7447571754455566,-0.4986441433429718
1757614636965528600,72.00452856445312,-1.5978941917419434,-0.6633753180503845,-0.6827998757362366
1757614636975483400,72.0144833984375,-1.9001222848892207,0.4822966158390045,-1.034748911857605
1757614636985438500,72.0244384765625,-2.1851539611816406,1.7112047672271729,-1.5549830198287964
1757614636995393500,72.0343935546875,-2.334445714950561,3.0241172313690186,-1.8067084550857544
1757614637005348400,72.04434838867188,-2.400906562805176,4.15414571762085,-1.68143630027771
1757614637015303400,72.05430346679688,-2.8467071056365967,5.221014499664307,-1.2173829078674316
1757614637025258500,72.06425854492187,-3.658158779144287,6.451838970184326,-0.5501440763473511
1757614637035213600,72.07421362304687,-4.371166706085205,7.400447368621826,-0.1162661537528038
1757614637045168400,72.08416845703125,-4.705260276794434,7.755640983581543,0.0093176020309329
1757614637055123500,72.09412353515626,-4.631839275360107,7.38392448425293,-0.1158618852496147
1757614637065078500,72.10407861328125,-4.215578079223633,6.585217952728272,-0.2386131137609481
1757614637075033300,72.11403344726563,-3.409032821655273,5.624058246612549,-0.2714874446392059
1757614637084989400,72.12398950195312,-2.386475086212158,4.810328483581543,-0.2391814291477203
1757614637094944500,72.13394458007812,-1.5119966268539429,4.202153205871582,-0.1213277578353881
1757614637104899300,72.1438994140625,-1.0249260663986206,3.619318962097168,0.0638807117938995
1757614637114854700,72.15385473632813,-0.8997324705123901,3.023263692855835,0.23423832654953
1757614637124809500,72.1638095703125,-1.0396759510040283,2.509318590164185,0.3250859379768371
1757614637134764500,72.1737646484375,-1.301713943481445,2.196571588516236,0.329653263092041
1757614637144719400,72.18371923828126,-1.5459290742874146,2.0887644290924072,0.2706496119499206
1757614637154674400,72.19367431640624,-1.676564335823059,2.0733156204223637,0.1697237938642501
1757614637164629800,72.20362963867187,-1.698548674583435,2.105543613433838,0.0670804977416992
1757614637174584800,72.21358471679687,-1.6465182304382324,2.202484369277954,-0.0188320111483335
1757614637184540000,72.22353979492188,-1.5662862062454224,2.394531011581421,-0.0709569975733757
1757614637194494700,72.23349462890624,-1.4962294101715088,2.672103881835937,-0.0815140306949615
1757614637204450800,72.24345092773437,-1.462751388549805,2.971670627593994,-0.0424611754715442
1757614637214406000,72.25340600585938,-1.4903182983398438,3.2380530834198,0.0477121286094188
1757614637224360700,72.26336059570312,-1.5916203260421753,3.4656667709350586,0.1694345623254776
1757614637234315800,72.27331567382812,-1.7473233938217163,3.713276624679565,0.2964207530021667
1757614637244270800,72.28327075195313,-1.9326767921447756,3.981245517730713,0.4000704288482666
1757614637254225700,72.2932255859375,-2.124530076980591,4.227288722991943,0.4546663165092468
1757614637264181000,72.30318090820313,-2.2969112396240234,4.452375411987305,0.4703054428100586
1757614637274135800,72.3131357421875,-2.421353578567505,4.644091606140137,0.4586093723773956
1757614637284091000,72.3230908203125,-2.447997808456421,4.762931346893311,0.4209275245666504
1757614637294045700,72.33304565429688,-2.3327581882476807,4.730552673339844,0.3295608460903168
1757614637304000800,72.34300073242187,-2.0159411430358887,4.495317935943604,0.1498941630125045
1757614637313956900,72.35295678710938,-1.4555048942565918,4.090175151824951,-0.1220761090517044
1757614637323912000,72.36291186523438,-0.6831948161125183,3.5201163291931152,-0.3877959251403808
1757614637333866800,72.37286669921875,0.2109724283218383,2.6768276691436768,-0.5513252019882202
1757614637343821800,72.38282177734375,1.1246720552444458,1.4447331428527832,-0.5652468800544739
1757614637353776600,72.39277661132813,1.9589475393295288,-0.1938118189573288,-0.5189297199249268
1757614637363732000,72.40273193359376,2.695452690124512,-2.059962272644043,-0.5354466438293457
1757614637373686800,72.41268676757812,3.370205879211426,-3.809551954269409,-0.6868151426315308
1757614637383641600,72.4226416015625,4.032796382904053,-5.15602970123291,-0.9519282579421996
1757614637393597000,72.43259692382813,4.713669776916504,-6.193587779998779,-1.3588062524795532
1757614637403551700,72.4425517578125,5.490771293640137,-7.157993316650391,-2.1015069484710693
1757614637413506800,72.4525068359375,6.540551662445068,-8.156723976135254,-3.313687324523926
1757614637423462000,72.4624619140625,7.932273387908935,-8.695711135864258,-4.2901811599731445
1757614637433417700,72.47241772460937,8.441943168640137,-8.716618537902832,-4.070215225219727
1757614637443372800,72.48237280273437,7.077366352081299,-8.449110984802246,-3.361687183380127
1757614637453328000,72.49232788085938,5.163972854614258,-7.689258575439453,-2.8623263835906982
1757614637463283000,72.50228295898438,4.067607879638672,-6.765407085418701,-2.5668861865997314
1757614637473237800,72.51223779296875,3.948961496353149,-6.069281578063965,-2.439786195755005
1757614637483192800,72.52219287109375,4.190295219421387,-5.659080028533936,-2.332860946655273
1757614637493148000,72.53214794921875,4.110475063323975,-5.214853763580322,-2.297504425048828
1757614637503102700,72.54210278320312,3.60334062576294,-4.7421875,-2.2503890991210938
1757614637513057800,72.55205786132812,2.893177032470703,-4.263318538665772,-2.0102717876434326
1757614637523012900,72.56201293945313,2.4634079933166504,-3.6752734184265137,-1.5414594411849976
1757614637532967700,72.5719677734375,2.2958760261535645,-3.0421876907348637,-1.0984506607055664
1757614637542922800,72.5819228515625,2.190028190612793,-2.541053295135498,-0.7584046125411987
1757614637552878800,72.59187890625,2.0565826892852783,-2.229452610015869,-0.5439168214797974
1757614637562833700,72.60183374023437,1.8483930826187132,-2.111201763153076,-0.4417925775051117
1757614637572788700,72.61178881835937,1.560550332069397,-2.1038434505462646,-0.3720100522041321
1757614637582743800,72.62174389648438,1.222968339920044,-2.133204460144043,-0.2905476689338684
1757614637592699000,72.63169897460938,0.8619784116744995,-2.210066318511963,-0.2019416391849517
1757614637602653700,72.64165380859374,0.5142433643341064,-2.350330114364624,-0.1108988225460052
1757614637612609000,72.65160913085937,0.2103588283061981,-2.551827907562256,-0.0259676855057477
1757614637622563800,72.66156372070313,-0.0269631743431091,-2.77734899520874,0.051614724099636
1757614637632518700,72.6715185546875,-0.1953386068344116,-2.970959186553955,0.1270599514245987
1757614637642473700,72.6814736328125,-0.3139656484127044,-3.090980052947998,0.2186457961797714
1757614637652428800,72.6914287109375,-0.3990307450294494,-3.1738088130950928,0.3433389961719513
1757614637662383900,72.7013837890625,-0.4634821712970733,-3.20857310295105,0.5082411170005798
1757614637672340000,72.71134008789062,-0.5061010122299194,-3.1970314979553223,0.691877543926239
1757614637682294800,72.72129467773438,-0.5411269068717957,-3.115761041641236,0.8693777322769165
1757614637692249900,72.73124975585938,-0.5982551574707031,-2.9459831714630127,0.9805460572242736
1757614637702204700,72.74120458984375,-0.7214388847351074,-2.675565719604492,0.9718204736709596
1757614637712160000,72.75115991210937,-0.9721658825874328,-2.3164634704589844,0.834365963935852
1757614637722114800,72.76111474609375,-1.3413846492767334,-1.9082978963851929,0.6021884083747864
1757614637732069600,72.77106958007812,-1.8301208019256592,-1.4872534275054932,0.3251906037330627
1757614637742025000,72.78102490234374,-2.418497085571289,-1.0366437435150146,0.0722928419709205
1757614637751979800,72.79097973632813,-2.9810330867767334,-0.4472049176692962,-0.0941739007830619
1757614637761934800,72.80093481445313,-3.425161123275757,0.3763171732425689,-0.1859419047832489
1757614637771889700,72.8108896484375,-3.711680412292481,1.3233518600463867,-0.286795824766159
1757614637781845800,72.820845703125,-3.892480850219727,2.134589195251465,-0.5156143307685852
1757614637791800800,72.83080078125,-4.011976718902588,2.8313517570495605,-0.9773726463317872
1757614637801756000,72.840755859375,-4.006721496582031,3.5049290657043457,-1.344826340675354
1757614637811710700,72.85071069335937,-3.9360015392303462,4.028040885925293,-1.3226962089538574
1757614637821665800,72.86066577148438,-4.182347774505615,4.861470699310303,-1.0873465538024902
1757614637831620600,72.87062060546874,-4.7707366943359375,6.04280948638916,-0.7155416011810303
1757614637841576000,72.88057592773437,-5.148910999298096,6.774756908416748,-0.33461394906044
1757614637851530800,72.89053076171875,-5.044419765472412,6.596495628356934,-0.2236338853836059
1757614637861485800,72.90048583984375,-4.583927631378174,5.814176082611084,-0.36050945520401
1757614637871441000,72.91044091796876,-3.842132091522217,5.097065448760986,-0.4075789451599121
1757614637881395700,72.92039575195312,-2.970226526260376,4.610669136047363,-0.2970958650112152
1757614637891350800,72.93035083007813,-2.246082305908203,4.101991653442383,-0.1415555328130722
1757614637901307000,72.94030688476562,-1.848730206489563,3.58758544921875,0.0129709262400865
1757614637911261700,72.95026171875,-1.7431563138961792,3.209602117538452,0.0842493698000907
1757614637921216800,72.960216796875,-1.804959297180176,3.071398973464966,0.0818815529346466
1757614637931171800,72.970171875,-1.8789358139038088,3.106381893157959,0.0650101602077484
1757614637941127000,72.980126953125,-1.9234097003936768,3.154135227203369,0.0354408137500286
1757614637951081700,72.99008178710938,-1.924550175666809,3.176823616027832,-0.0191808845847845
1757614637961036800,73.00003686523438,-1.8840128183364868,3.1955738067626958,-0.1039338558912277
1757614637970991900,73.00999194335938,-1.8077439069747925,3.2496442794799805,-0.21574267745018
1757614637980946700,73.01994677734375,-1.7041709423065186,3.3314478397369385,-0.3370547294616699
1757614637990901800,73.02990185546875,-1.5882304906845093,3.432859182357788,-0.4466392695903778
1757614638000856800,73.03985693359375,-1.4850691556930542,3.5527303218841557,-0.5398363471031189
1757614638010812000,73.04981201171876,-1.4012871980667114,3.704699277877808,-0.6192054748535156
1757614638020767700,73.05976782226563,-1.3426523208618164,3.908374071121216,-0.6826539635658264
1757614638030722800,73.06972290039063,-1.3039779663085938,4.153847694396973,-0.7219938635826111
1757614638040678000,73.07967797851562,-1.2739760875701904,4.4338059425354,-0.7301785945892334
1757614638050632700,73.0896328125,-1.2618457078933716,4.758183479309082,-0.7075678110122681
1757614638060587800,73.099587890625,-1.2530550956726074,5.104577541351318,-0.667829692363739
1757614638070542800,73.10954296875,-1.2475122213363647,5.398463249206543,-0.6311891674995422
1757614638080497700,73.11949755859375,-1.2488813400268557,5.554744243621826,-0.6425254344940186
1757614638090453000,73.12945288085938,-1.2116554975509644,5.512640953063965,-0.7465391755104065
1757614638100407800,73.13940771484376,-1.0015301704406738,5.210769176483154,-0.944882333278656
1757614638110363000,73.14936279296874,-0.5692269802093506,4.586303234100342,-1.2069038152694702
1757614638120317700,73.15931762695313,0.0132620092481374,3.582748413085937,-1.4992691278457642
1757614638130272800,73.16927270507813,0.6889938712120056,2.247474431991577,-1.72740375995636
1757614638140228900,73.17922875976562,1.3891900777816772,0.5578097105026245,-1.775423526763916
1757614638150184000,73.18918383789062,2.1130337715148926,-1.4263163805007937,-1.630694031715393
1757614638160138800,73.199138671875,2.837606430053711,-3.444487333297729,-1.402527093887329
1757614638170094000,73.20909399414063,3.5119054317474365,-5.28868293762207,-1.232602596282959
1757614638180049000,73.219048828125,4.141430377960205,-6.813866138458252,-1.1759719848632812
1757614638190004000,73.22900390625,4.749330520629883,-7.982656002044678,-1.2420514822006226
1757614638199959000,73.238958984375,5.3508172035217285,-8.738580703735352,-1.4431766271591189
1757614638209913900,73.24891381835937,5.995645999908447,-9.146990776062012,-1.818261981010437
1757614638219869000,73.25886889648437,6.8394622802734375,-9.253433227539062,-2.448577642440796
1757614638229823700,73.26882373046875,8.107184410095215,-9.012028694152832,-3.44128966331482
1757614638239779000,73.27877905273438,9.181903839111328,-8.50847339630127,-4.102542400360107
1757614638249734000,73.28873388671875,7.916306495666504,-8.00021743774414,-3.5095815658569336
1757614638259690000,73.29868994140625,4.717310905456543,-7.159787178039551,-2.485797643661499
1757614638269645000,73.30864501953126,2.938437938690185,-5.529836654663086,-2.2017202377319336
1757614638279599900,73.31859985351562,2.945965051651001,-3.34954571723938,-2.4158031940460205
1757614638289555000,73.32855493164062,3.615124702453613,-1.626836180686951,-2.500357151031494
1757614638299510000,73.33851000976563,3.9956917762756343,-0.9301108717918396,-2.362967729568481
1757614638309464800,73.34846484375,3.756989002227783,-0.4639583528041839,-2.314133644104004
1757614638319420000,73.358419921875,2.8570449352264404,0.1906205415725708,-2.4628260135650635
1757614638329375000,73.368375,1.745911955833435,0.577496349811554,-2.387692213058472
1757614638339330000,73.378330078125,1.1397658586502075,0.2920520901679992,-2.045338630676269
1757614638349284900,73.38828491210937,0.9776163101196288,-0.433919757604599,-1.7825106382369995
1757614638359240000,73.39823999023437,0.9533511996269226,-1.1363847255706787,-1.6191604137420654
1757614638369195000,73.40819506835938,0.8828901052474976,-1.6540400981903076,-1.4605835676193235
1757614638379150800,73.41815087890625,0.7115931510925293,-2.050913095474243,-1.2741183042526243
1757614638389106000,73.42810595703125,0.4675629436969757,-2.4221348762512207,-1.0695254802703855
1757614638399061000,73.43806103515625,0.2082104533910751,-2.7951502799987797,-0.857900083065033
1757614638409015800,73.44801586914062,-0.0249474272131919,-3.1486151218414307,-0.6387748718261719
1757614638418971000,73.45797094726562,-0.2135215997695922,-3.467831611633301,-0.4326209425926208
1757614638428926000,73.46792602539062,-0.3562398850917816,-3.753674745559693,-0.2385760843753814
1757614638438881000,73.47788110351563,-0.4668540060520172,-4.009395599365234,-0.0503582470118999
1757614638448835800,73.4878359375,-0.5682703852653503,-4.277482509613037,0.1216414794325828
1757614638458791000,73.497791015625,-0.7077640891075134,-4.516721248626709,0.2936939299106598
1757614638468746000,73.50774609375,-0.9145601391792296,-4.611923694610596,0.5300108790397644
1757614638478700800,73.51770068359374,-1.1720683574676514,-4.590209484100342,0.8145450949668884
1757614638488656100,73.52765625,-1.4367239475250244,-4.379701137542725,1.0659099817276
1757614638498612000,73.53761206054688,-1.637486696243286,-3.972936391830444,1.2590839862823486
1757614638508566800,73.54756689453124,-1.7352768182754517,-3.38142991065979,1.378749966621399
1757614638518522000,73.55752221679687,-1.731406807899475,-2.666964054107666,1.398797869682312
1757614638528477000,73.56747680664063,-1.69586181640625,-2.0034375190734863,1.2596733570098877
1757614638538432000,73.57743188476563,-1.7583715915679932,-1.4882385730743408,0.9331793785095216
1757614638548386800,73.58738671875,-2.00766658782959,-1.1398361921310425,0.5311149954795837
1757614638558342000,73.597341796875,-2.4759082794189453,-1.0761183500289917,0.2415343225002288
1757614638568297000,73.607296875,-3.0836806297302246,-1.22840678691864,0.1967117339372635
1757614638578251800,73.61725170898437,-3.661470413208008,-1.187119483947754,0.2028340697288513
1757614638588207000,73.62720703125,-4.049906730651856,-0.8392555117607117,0.0311661753803491
1757614638598162000,73.63716186523438,-4.256460666656494,-0.2671736478805542,-0.4198180437088012
1757614638608117000,73.64711694335938,-4.384106636047363,0.2667547166347503,-1.0625267028808594
1757614638618073000,73.65707299804687,-4.500962257385254,0.6116859912872314,-1.4826231002807615
1757614638628028000,73.66702783203125,-4.746168613433838,1.2975096702575684,-1.6403578519821167
1757614638637982700,73.67698266601562,-5.132876396179199,2.6360809803009038,-1.6169185638427734
1757614638647938000,73.68693798828124,-5.5013813972473145,3.96237850189209,-1.2484395503997805
1757614638657892900,73.69689282226562,-5.561891555786133,4.844458103179932,-0.8649941682815552
1757614638667848000,73.70684790039063,-5.20484733581543,5.552537441253662,-0.8129065036773682
1757614638677803000,73.71680297851563,-4.5735063552856445,6.029941082000732,-0.9788456559181212
1757614638687758000,73.72675805664062,-3.88394546508789,6.196440696716309,-1.007356882095337
1757614638697713000,73.736712890625,-3.271107912063598,6.247275352478027,-0.7435508370399475
1757614638707667700,73.74666772460938,-2.7473604679107666,6.283249378204346,-0.3219950795173645
1757614638717623000,73.756623046875,-2.435049295425415,6.26638126373291,0.1378694474697113
1757614638727579000,73.76657885742188,-2.385059356689453,6.165909767150879,0.5044059157371521
1757614638737534000,73.77653393554688,-2.5509908199310303,5.974597454071045,0.6996206641197205
1757614638747489000,73.78648901367187,-2.8215653896331787,5.653014659881592,0.7112863659858704
1757614638757443800,73.79644384765625,-3.0572047233581543,5.211286544799805,0.5706445574760437
1757614638767399000,73.80639892578125,-3.1372411251068115,4.744297504425049,0.3512134253978729
1757614638777354000,73.81635400390626,-3.019364833831787,4.34283447265625,0.1049921959638595
1757614638787309000,73.82630908203124,-2.753460168838501,4.031197547912598,-0.1393965035676956
1757614638797264000,73.83626391601562,-2.40472412109375,3.8315258026123047,-0.3659968972206116
1757614638807219000,73.84621899414063,-2.0343573093414307,3.7250566482543945,-0.568745493888855
1757614638817174000,73.85617407226563,-1.7160691022872925,3.703331708908081,-0.7456379532814026
1757614638827128800,73.86612890625,-1.4882127046585083,3.730640411376953,-0.883536159992218
1757614638837084000,73.876083984375,-1.3709872961044312,3.779738664627075,-0.9703429937362672
1757614638847040000,73.8860400390625,-1.3404473066329956,3.81091833114624,-1.004055142402649
1757614638856994800,73.89599487304687,-1.3690857887268066,3.802450895309448,-0.9967130422592164
1757614638866950100,73.9059501953125,-1.4103426933288574,3.7639217376708975,-0.9664904475212096
1757614638876905000,73.91590502929688,-1.402082920074463,3.728708267211914,-0.9377639889717102
1757614638886859800,73.92585986328125,-1.2746323347091677,3.709134578704834,-0.9422825574874878
1757614638896814800,73.93581494140625,-0.9789775013923644,3.679188966751098,-1.0084158182144165
1757614638906770000,73.94577001953125,-0.5176223516464233,3.582573413848877,-1.1561466455459597
1757614638916725000,73.95572509765626,0.0610401853919029,3.29892635345459,-1.3231348991394043
1757614638926679800,73.9656796875,0.649064838886261,2.8604586124420166,-1.4386504888534546
1757614638936635100,73.97563525390625,1.1237045526504517,2.38601016998291,-1.4227796792984009
1757614638946590000,73.98558984375,1.4200550317764282,1.8321666717529297,-1.2654989957809448
1757614638956544800,73.99554467773437,1.5567009449005127,1.0064163208007812,-1.0380618572235107
1757614638966501000,74.00550122070312,1.5989896059036257,-0.2044149190187454,-0.8226813673973083
1757614638976456000,74.0154560546875,1.6381531953811646,-1.7362667322158811,-0.6978384852409363
1757614638986410800,74.02541064453125,1.8218019008636477,-3.3466479778289795,-0.6376923322677612
1757614638996366000,74.03536596679687,2.204012155532837,-4.711203098297119,-0.601018488407135
1757614639006321000,74.04532080078125,2.7251462936401367,-5.738719940185547,-0.6070473194122314
1757614639016276000,74.05527587890624,3.343511819839477,-6.6269354820251465,-0.7643791437149048
1757614639026230800,74.06523071289062,4.119927883148193,-7.610294342041016,-1.220205545425415
1757614639036185900,74.07518579101563,5.194695949554443,-8.731125831604004,-2.026088237762451
1757614639046141000,74.08514086914063,6.511950969696045,-9.277976036071776,-2.692047595977783
1757614639056095700,74.095095703125,7.714315414428711,-9.277538299560549,-2.641758680343628
1757614639066051000,74.10505102539062,7.733304023742676,-8.978503227233887,-2.2218074798583984
1757614639076006000,74.115005859375,6.592484951019287,-8.578584671020508,-1.8275796175003047
1757614639085961700,74.12496166992187,4.967360973358154,-7.705039978027344,-1.598507046699524
1757614639095917000,74.1349169921875,3.663923501968384,-5.887208461761475,-1.4651089906692505
1757614639105872000,74.14487182617188,3.133636474609375,-3.715134620666504,-1.3520855903625488
1757614639115827000,74.15482690429687,2.9457502365112305,-2.2413859367370605,-1.206839919090271
1757614639125782000,74.16478198242187,2.746811866760254,-1.6186740398406982,-0.9959223866462708
1757614639135736800,74.17473681640625,2.5046277046203613,-1.207194447517395,-0.7875350713729858
1757614639145692000,74.18469189453126,2.152647018432617,-0.6685165166854858,-0.6106151342391968
1757614639155647000,74.19464697265624,1.707419991493225,-0.1956051886081695,-0.433803379535675
1757614639165602000,74.20460205078125,1.2558541297912598,-0.0097849862650036,-0.2785749137401581
1757614639175556900,74.21455688476563,0.8435949087142944,-0.1150498911738395,-0.1811575442552566
1757614639185512000,74.22451196289063,0.4882325232028961,-0.3677015900611877,-0.1509479731321334
1757614639195467000,74.23446704101562,0.1982544958591461,-0.6925286650657654,-0.1714436560869217
1757614639205422800,74.2444228515625,-0.0286984890699386,-1.055328130722046,-0.2250549495220184
1757614639215378000,74.2543779296875,-0.2023064941167831,-1.4320650100708008,-0.2953621447086334
1757614639225333000,74.2643330078125,-0.3347516357898712,-1.8230892419815063,-0.3629438579082489
1757614639235287800,74.27428784179688,-0.431824117898941,-2.2149033546447754,-0.4134219288825989
1757614639245243000,74.28424291992188,-0.494177758693695,-2.5685079097747803,-0.4127963483333587
1757614639255198000,74.29419799804687,-0.5208780765533447,-2.830826759338379,-0.3603525757789612
1757614639265153000,74.30415307617187,-0.5196154713630676,-2.982229232788086,-0.2726621627807617
1757614639275107800,74.31410791015625,-0.511076033115387,-3.03478741645813,-0.1806147843599319
1757614639285063000,74.32406298828126,-0.502558708190918,-3.0715019702911377,-0.0860525965690612
1757614639295018000,74.33401806640624,-0.4998721480369568,-3.180582284927368,0.027115773409605
1757614639304972800,74.34397290039063,-0.5198703408241272,-3.3013877868652344,0.2159394919872284
1757614639314927900,74.35392797851563,-0.5385050177574158,-3.367836236953736,0.4871986806392669
1757614639324884000,74.36388403320312,-0.5144012570381165,-3.3050403594970703,0.7838916182518005
1757614639334838800,74.3738388671875,-0.4124623835086822,-3.1097071170806885,0.9856385588645936
1757614639344794000,74.38379418945313,-0.268718272447586,-2.851983070373535,1.0011496543884275
1757614639354749000,74.3937490234375,-0.1884165108203888,-2.7451298236846924,0.8412986993789673
1757614639364704000,74.4037041015625,-0.3200200796127319,-2.8153321743011475,0.6196432709693909
1757614639374658800,74.41365893554688,-0.6743709444999695,-2.696281671524048,0.3968682587146759
1757614639384614000,74.42361376953124,-1.1324418783187866,-1.983981013298035,0.1146181896328926
1757614639394569000,74.43356884765625,-1.622787356376648,-0.6703290939331055,-0.2165733128786087
1757614639404523800,74.44352368164063,-2.1416406631469727,0.7111049890518188,-0.4819802343845367
1757614639414479000,74.45347900390625,-2.6804091930389404,1.8142694234848025,-0.6802434921264648
1757614639424434000,74.46343383789062,-3.090639114379883,2.612555265426636,-0.8117879629135132
1757614639434389800,74.4733896484375,-3.2627408504486084,3.3020825386047363,-0.8327465057373047
1757614639444345000,74.48334497070313,-3.3884410858154297,4.075418949127197,-0.7760696411132812
1757614639454300000,74.4932998046875,-3.622235059738159,4.946975231170654,-0.5861101150512695
1757614639464255000,74.5032548828125,-3.7940828800201416,5.455159664154053,-0.3482860624790191
1757614639474210000,74.5132099609375,-3.741720199584961,5.417698860168457,-0.2736629545688629
1757614639484164900,74.52316479492187,-3.483342409133911,5.01819372177124,-0.4444725215435028
1757614639494120000,74.53311987304687,-3.055772304534912,4.497525215148926,-0.7608605623245239
1757614639504074800,74.54307470703125,-2.5509350299835205,4.07910680770874,-0.9867629408836364
1757614639514030000,74.55303002929688,-2.085205554962158,3.878072738647461,-1.033864140510559
1757614639523985000,74.56298486328124,-1.7546420097351074,3.852703332901001,-0.9531946182250975
1757614639533939700,74.57293969726562,-1.5832170248031616,3.896272659301758,-0.7960976958274841
1757614639543896000,74.58289599609375,-1.5623191595077517,3.910544872283936,-0.6492459177970886
1757614639553851000,74.59285083007812,-1.6456801891326904,3.9142541885375977,-0.5564289093017578
1757614639563805700,74.6028056640625,-1.7749305963516235,3.911832571029663,-0.5285993814468384
1757614639573761000,74.61276098632813,-1.909982681274414,3.8793795108795166,-0.5502937436103821
1757614639583715800,74.6227158203125,-1.9948443174362185,3.824097394943237,-0.5893141627311707
1757614639593671000,74.6326708984375,-1.988237261772156,3.759623289108277,-0.6288809776306152
1757614639603626000,74.6426259765625,-1.90778923034668,3.7200636863708496,-0.6576106548309326
1757614639613581000,74.6525810546875,-1.783722162246704,3.7597131729125977,-0.6640722751617432
1757614639623535900,74.66253588867187,-1.6612430810928345,3.863196849822998,-0.6352736353874207
1757614639633491000,74.67249096679687,-1.5668936967849731,3.9850997924804688,-0.5696552395820618
1757614639643446000,74.68244604492187,-1.519316554069519,4.126839637756348,-0.4687080979347229
1757614639653400800,74.69240087890626,-1.5161525011062622,4.287176609039307,-0.3364786803722381
1757614639663357000,74.70235693359375,-1.5564346313476562,4.462959289550781,-0.1916258931159973
1757614639673312000,74.71231201171875,-1.6361063718795776,4.6405768394470215,-0.0517566725611686
