time,seconds_elapsed,z,y,x
1757863523283016700,0.0060166015625,0.012702212668955326,-0.018186727538704872,0.02521401084959507
1757863523293002500,0.01600244140625,-0.0034115093294531107,-0.006651510950177908,0.035414449870586395
1757863523302987500,0.025987548828125,-0.029199697077274323,0.0046482812613248825,0.03238164260983467
1757863523312972500,0.03597265625,-0.06026893109083176,-0.017942514270544052,0.036798495799303055
1757863523322958600,0.04595849609375,-0.05116012319922447,-0.05705929175019264,0.03869067132472992
1757863523332943600,0.055943603515625,-0.028610073029994965,-0.07825086265802383,0.04707483574748039
1757863523342928600,0.0659287109375,-0.026281671598553658,-0.08509358763694763,0.056605223566293716
1757863523352914700,0.075914794921875,-0.02208532765507698,-0.054367367178201675,0.05878342315554619
1757863523362899500,0.0858994140625,-0.00782809592783451,-0.04030188173055649,0.055443018674850464
1757863523372885500,0.095885498046875,0.0004444815858732909,-0.05457882210612297,0.046300917863845825
1757863523382870800,0.105870849609375,0.011004181578755379,-0.08325067907571793,0.03585893288254738
1757863523392855600,0.11585546875,-0.009844374842941761,-0.08555751293897629,0.0313696414232254
1757863523402841600,0.125841552734375,-0.035182222723960876,-0.025620941072702408,0.030312631279230118
1757863523412826600,0.13582666015625,-0.05899327993392944,0.06934152543544769,0.02888358011841774
1757863523422811400,0.145811279296875,-0.07080386579036713,0.13263873755931854,0.024214526638388634
1757863523432797700,0.155797607421875,-0.044985849410295486,0.14062529802322388,0.013729128055274487
1757863523442782700,0.16578271484375,0.020604077726602554,0.08470689505338669,0.00424348097294569
1757863523452767500,0.175767578125,0.06510070711374283,0.0005233111442066729,0.00022796659322921187
1757863523462753500,0.18575341796875,0.07357355207204819,-0.059309396892786026,-0.0057372478768229485
1757863523472738600,0.195738525390625,0.0401383638381958,-0.05647978559136391,-0.013674532994627953
1757863523482723600,0.2057236328125,-0.007345264777541161,-0.006679740734398365,-0.012374644167721272
1757863523492709600,0.215709716796875,-0.046661779284477234,0.05788860097527504,-0.015854064375162125
1757863523502694700,0.225694580078125,-0.06009582802653313,0.10571364313364029,-0.023142870515584946
1757863523512679700,0.2356796875,-0.038179341703653336,0.07148510217666626,-0.027108849957585335
1757863523522665500,0.24566552734375,0.006872553378343582,0.0013219931861385703,-0.024099210277199745
1757863523532650500,0.255650390625,0.03668797388672829,-0.060867346823215485,-0.018499914556741714
1757863523542635800,0.2656357421875,0.03807521238923073,-0.07719065994024277,-0.01823732629418373
1757863523552621600,0.27562158203125,0.017160877585411072,-0.038118358701467514,-0.01744556985795498
1757863523562606600,0.285606689453125,-0.0116148442029953,0.007386011071503162,-0.018728947266936302
1757863523572591600,0.295591552734375,-0.02991102635860443,0.045471612364053726,-0.010164487175643444
1757863523582577400,0.305577392578125,-0.037027791142463684,0.07232053577899933,-0.0008109325426630676
1757863523592562700,0.315562744140625,-0.03430870547890663,0.09383168816566467,0.007231281138956547
1757863523602547700,0.325547607421875,-0.019647737964987755,0.10312291979789734,0.012662798166275024
1757863523612533500,0.335533447265625,-0.0015422365395352244,0.09740591794252396,0.005703425966203213
1757863523622518500,0.3455185546875,0.013437777757644653,0.07414666563272476,-0.004658667836338282
1757863523632503600,0.355503662109375,0.024341026321053505,0.028235100209712982,-0.010900052264332771
1757863523642489600,0.365489501953125,0.03573242947459221,-0.012852149084210396,-0.008904279209673405
1757863523652474600,0.375474609375,0.019657857716083527,0.0003304982965346426,-0.0007193197961896658
1757863523662460700,0.385460693359375,-0.007250988855957985,0.04628653824329376,0.0011789813870564103
1757863523672445400,0.395445556640625,-0.031809061765670776,0.0866057351231575,-0.006155097857117653
1757863523682430500,0.405430419921875,-0.039136748760938644,0.0834277793765068,-0.009386577643454075
1757863523692416800,0.415416748046875,-0.03976445645093918,0.0790383592247963,-0.006645385641604662
1757863523702401500,0.425401611328125,-0.033435456454753876,0.08467600494623184,0.0034993935842067003
1757863523712386600,0.435386474609375,-0.02768142893910408,0.08551916480064392,0.004102599807083607
1757863523722372600,0.44537255859375,0.0009683253592811525,0.05577964335680008,-0.0030831415206193924
1757863523732357400,0.455357421875,0.019063439220190048,0.04181189462542534,-0.003132676472887397
1757863523742342400,0.46534228515625,0.02557593397796154,0.026770094409585,-0.001023186487145722
1757863523752328700,0.47532861328125,0.024834776297211647,0.021213144063949585,0.0015507587231695652
1757863523762313700,0.485313720703125,0.028259601444005966,0.0264222864061594,0.0046450854279100895
1757863523772298500,0.495298583984375,0.03151851147413254,0.040103744715452194,0.007896006107330322
1757863523782284500,0.505284423828125,0.02502359449863434,0.047813862562179565,0.0035388083197176456
1757863523792269600,0.51526953125,0.02088584005832672,0.07493975758552551,-0.0013305152533575892
1757863523802254600,0.525254638671875,0.0036330842413008213,0.10757333040237427,-0.005094626918435097
1757863523812240600,0.53524072265625,-0.005028847139328718,0.09320957213640213,-0.0068033114075660706
1757863523822225700,0.5452255859375,-0.013229785487055779,0.04337863251566887,-0.010761833749711514
1757863523832210400,0.55521044921875,-0.01973349042236805,-0.014709969982504845,-0.00755086075514555
1757863523842196500,0.565196533203125,-0.028722990304231644,-0.027965055778622627,-0.00501180300489068
1757863523852181800,0.575181640625,-0.044614072889089584,-0.004000067710876465,0.0024261397775262594
1757863523862166500,0.58516650390625,-0.03742034360766411,0.019588083028793335,0.0021339908707886934
1757863523872152600,0.595152587890625,-0.009387110359966755,0.02479243092238903,-0.005775331053882837
1757863523882137600,0.6051376953125,0.020306870341300964,0.004258661065250635,-0.008070709183812141
1757863523892122600,0.61512255859375,0.03271480277180672,-0.010073672980070114,-0.013952567242085934
1757863523902107600,0.625107666015625,0.02377510443329811,-0.016099074855446815,-0.014958176761865616
1757863523912093000,0.635093017578125,-0.0070704263634979725,0.00484402384608984,-0.013257215730845928
1757863523922078700,0.64507861328125,-0.04201988875865936,0.026766899973154068,-0.01284842099994421
1757863523932063700,0.655063720703125,-0.05705396458506584,0.022577481344342232,-0.011803396046161652
1757863523942048800,0.665048828125,-0.03711194917559624,0.0026253440883010626,-0.010685667395591736
1757863523952034800,0.675034912109375,-0.01384098082780838,-0.02311304211616516,-0.011098191142082214
1757863523962019800,0.685019775390625,0.001532116555608809,-0.034872494637966156,-0.013354155234992504
1757863523972004900,0.6950048828125,0.002011219272390008,-0.028475049883127213,-0.017852766439318657
1757863523981991000,0.704990966796875,-0.011598865501582623,-0.015172028914093971,-0.020613133907318115
1757863523991975700,0.7149755859375,-0.02793123386800289,-0.015850069001317024,-0.017240505665540695
1757863524001960700,0.724960693359375,-0.027949342504143715,-0.020683441311120987,-0.011085141450166702
1757863524011947000,0.734947021484375,-0.037764158099889755,-0.016055932268500328,-0.005315402988344431
1757863524021931800,0.744931884765625,-0.025888055562973022,0.002865028567612171,-0.0040735709480941296
1757863524031916800,0.754916748046875,-0.0070616379380226135,-0.008194546215236187,-0.007546333130449057
1757863524041902800,0.76490283203125,0.008448079228401184,-0.04434003308415413,-0.005934588145464659
1757863524051887900,0.774887939453125,0.019955331459641457,-0.08244480937719345,-0.0010868359822779894
1757863524061872600,0.78487255859375,0.021860823035240173,-0.08651065826416016,0.0064802695997059345
1757863524071859000,0.79485888671875,0.009505621157586575,-0.07027789205312729,0.008916529826819897
1757863524081844000,0.804843994140625,-0.00021544973424170166,-0.05705050379037857,0.008293882943689823
1757863524091828700,0.814828857421875,-0.008845689706504345,-0.04165743291378021,0.008224640041589737
1757863524101814800,0.824814697265625,-0.0043505397625267506,-0.02617567777633667,0.009611614979803562
1757863524111799800,0.8347998046875,-0.012044678442180157,-0.022129537537693977,0.012328571639955044
1757863524121784800,0.844784912109375,-0.01588229276239872,-0.01913401298224926,0.012113654054701328
1757863524131771000,0.85477099609375,-0.005122856702655554,-0.025612153112888336,0.00944782979786396
1757863524141756000,0.864755859375,0.006836600601673126,-0.038060035556554794,0.008354602381587029
1757863524151740700,0.87474072265625,0.009638512507081032,-0.03777347877621651,0.007864846847951412
1757863524161726700,0.884726806640625,0.00031798143754713237,-0.010584200732409954,-0.000358461489668116
1757863524171712000,0.8947119140625,-0.01906423829495907,0.03127696365118027,-0.007273891940712929
1757863524181697800,0.90469775390625,-0.025739718228578568,0.04465029388666153,0.008101335726678371
1757863524191682800,0.914682861328125,0.01363218855112791,-0.03267831727862358,0.02731471136212349
1757863524201667800,0.924667724609375,0.04574431851506233,-0.12483754009008408,0.033009350299835205
1757863524211653600,0.934653564453125,0.06445009261369705,-0.1505730003118515,0.02322516217827797
1757863524221639000,0.944638916015625,0.048468731343746185,-0.09694811701774597,0.00358834327198565
1757863524231624000,0.9546240234375,0.01500984188169241,-0.026667296886444092,-0.005395031534135342
1757863524241609700,0.964609619140625,-0.021749770268797874,0.040997233241796494,-0.010321879759430885
1757863524251594800,0.9745947265625,-0.04390993341803551,0.08720813691616058,-0.009609484113752842
1757863524261579800,0.984579833984375,-0.047022104263305664,0.0864158496260643,0.01673690229654312
1757863524271565800,0.99456591796875,-0.014171745628118515,0.031806133687496185,0.03653537482023239
1757863524281550800,1.00455078125,0.02592587284743786,-0.020840300247073174,0.03334437310695648
1757863524291536000,1.014535888671875,0.04595976695418358,-0.033424269407987595,0.014093714766204357
1757863524301521700,1.024521728515625,0.036436568945646286,0.003379551460966468,-0.004864796530455351
1757863524311506700,1.034506591796875,0.008812399581074715,0.058167964220047,-0.013337111100554466
1757863524321491700,1.04449169921875,-0.014696653932332993,0.06982621550559998,-0.011661982163786888
1757863524331477800,1.054477783203125,0.012797820381820202,0.002822417998686433,0.003736681304872036
1757863524341462800,1.064462890625,0.060205817222595215,-0.10105417668819427,0.018073009327054024
1757863524351447800,1.07444775390625,0.06425781548023224,-0.12411608546972275,0.019302858039736748
1757863524361433900,1.084433837890625,0.04012051969766617,-0.078433558344841,0.008255000226199627
1757863524371418600,1.094418701171875,0.006203567609190941,-0.0022743395529687405,-0.006006493698805571
1757863524381404000,1.10440380859375,-0.022187594324350357,0.06487859785556793,-0.008250206708908081
1757863524391390000,1.114389892578125,-0.05546991527080536,0.10897788405418396,0.0011611381778493524
1757863524401374700,1.124374755859375,-0.08922548592090607,0.12975133955478668,0.009107477962970734
1757863524411360800,1.13436083984375,-0.06942914426326752,0.1005825325846672,0.017363278195261955
1757863524421345800,1.144345703125,-0.020833110436797142,0.007880027405917645,0.011562912724912167
1757863524431330800,1.154330810546875,0.018871957436203957,-0.06219972297549248,-0.0065140919759869576
1757863524441316900,1.16431689453125,0.03287539258599281,-0.04761518910527229,-0.02058730088174343
1757863524451302000,1.174302001953125,0.011839615181088448,0.005721535068005323,-0.02274952083826065
1757863524461286700,1.18428662109375,-0.019934026524424553,0.04454376548528671,-0.021761754527688026
1757863524471272700,1.194272705078125,-0.03556278720498085,0.055747419595718384,-0.01140072662383318
1757863524481258000,1.204258056640625,-0.04614565894007683,0.03996339440345764,0.0054275221191346645
1757863524491243000,1.214242919921875,-0.02689845860004425,-0.00848456472158432,0.015835953876376152
1757863524501228800,1.224228759765625,0.019365709275007248,-0.06642642617225647,0.00842943787574768
1757863524511213800,1.2342138671875,0.04944158345460892,-0.08769895881414413,-0.003771568648517132
1757863524521198800,1.24419873046875,0.05090685561299324,-0.050945740193128586,-0.00552392890676856
1757863524531185000,1.254184814453125,0.03271480277180672,0.0021467742044478655,0.0007872303831391037
1757863524541170000,1.264169921875,0.006176136899739504,0.04095941781997681,0.006072806194424629
1757863524551155000,1.274155029296875,-0.017130250111222267,0.051362790167331696,0.0033835461363196373
1757863524561140700,1.284140625,-0.03626373037695885,0.05107783153653145,-0.002715625334531069
1757863524571125800,1.294125732421875,-0.05307094007730484,0.05615860968828201,-0.006707970052957535
1757863524581110800,1.30411083984375,-0.04941335693001747,0.042385272681713104,0.007862716913223267
1757863524591096800,1.314096923828125,-0.025549301877617836,-0.008628109470009804,0.031739022582769394
1757863524601081900,1.324081787109375,0.012434032745659351,-0.05835811421275139,0.040833450853824615
1757863524611067600,1.334067626953125,0.05283951386809349,-0.07808361947536469,0.029866285622119904
1757863524621052700,1.344052734375,0.0715990886092186,-0.07908470183610916,0.011482219211757183
1757863524631037700,1.35403759765625,0.06799715757369995,-0.05414446070790291,-0.0017544905422255397
1757863524641024000,1.36402392578125,0.04615098237991333,-0.01119220070540905,-0.00138084904756397
1757863524651008800,1.3740087890625,0.002930009737610817,0.029832463711500168,0.004209924954921007
1757863524660993800,1.383993896484375,-0.022110894322395325,0.02900954708456993,0.017362212762236595
1757863524670979800,1.393979736328125,-0.016171779483556747,-0.014912104234099388,0.02666543237864971
1757863524680964600,1.403964599609375,0.0016309198690578341,-0.053938865661621094,0.02305738255381584
1757863524690950000,1.413949951171875,0.024101074784994125,-0.05127543956041336,0.00962652824819088
1757863524700936000,1.42393603515625,0.033244505524635315,-0.00965875294059515,-0.0026322684716433287
1757863524710920700,1.433920654296875,0.027758659794926643,0.0288753230124712,-0.004674113821238279
1757863524720905700,1.44390576171875,0.007276022341102362,0.04753609374165535,0.003912449814379215
1757863524730891800,1.453891845703125,-0.009949303232133389,0.03592497855424881,0.01613342948257923
1757863524740876800,1.463876708984375,0.0002436792419757694,-0.005310875829309225,0.02286110632121563
1757863524750861800,1.47386181640625,0.014718492515385151,-0.06264234334230423,0.01860138028860092
1757863524760848000,1.483847900390625,0.017482852563261986,-0.06406792998313904,0.007991081103682518
1757863524770833000,1.4938330078125,0.012827381491661072,-0.030292391777038574,-0.005544967483729124
1757863524780817700,1.503817626953125,-0.007816644385457039,0.018852783367037773,-0.00458596320822835
1757863524790804000,1.513803955078125,-0.004520716145634651,0.03443494066596031,0.013666277751326561
1757863524800789000,1.5237890625,0.020781444385647774,-0.017238641157746315,0.022652847692370415
1757863524810774800,1.53377490234375,0.05522037670016289,-0.06433531641960144,0.021672803908586502
1757863524820759800,1.543759765625,0.06725333631038666,-0.06859876960515976,0.01136930100619793
1757863524830744800,1.553744873046875,0.05002108961343765,-0.027002057060599327,-0.000014913702216290403
1757863524840731000,1.56373095703125,0.014113688841462135,0.02273673750460148,-0.00162399560213089
1757863524850716000,1.5737158203125,-0.013685451820492744,0.05850378796458244,-0.001398159540258348
1757863524860701000,1.583700927734375,-0.042565036565065384,0.08329462260007858,0.000180029688635841
1757863524870686700,1.593686767578125,-0.05486218258738518,0.08224587142467499,0.01516723446547985
1757863524880671700,1.603671630859375,-0.02815334126353264,0.052738044410943985,0.0200437493622303
1757863524890656800,1.61365673828125,0.0015646071406081319,-0.012499812990427017,0.01846582628786564
1757863524900642600,1.623642578125,0.03009132295846939,-0.03846083953976631,0.003285275539383292
1757863524910627600,1.633627685546875,0.03398539870977402,-0.0221489779651165,-0.010865164920687675
1757863524920612900,1.64361279296875,0.02022484503686428,-0.0015667376574128866,-0.015237276442348957
1757863524930598700,1.6535986328125,0.01272857841104269,0.005224855616688728,-0.014254570007324219
1757863524940583700,1.663583740234375,0.013215670362114906,-0.005341502372175455,-0.009807090274989605
1757863524950568700,1.673568603515625,0.006343383342027664,-0.007512777578085661,-0.0057377805933356285
1757863524960554500,1.683554443359375,0.0008761800127103925,0.0035577169619500637,-0.007616107817739248
1757863524970539800,1.693539794921875,0.0012844426091760397,0.014811436645686626,-0.016381103545427322
1757863524980524800,1.70352490234375,-0.0024767396971583366,0.024709606543183327,-0.020481839776039124
1757863524990510600,1.713510498046875,-0.0070344735868275166,0.03455398231744766,-0.026610039174556732
1757863525000495600,1.72349560546875,0.001059405505657196,0.011856392957270145,-0.026574352756142616
1757863525010481700,1.733481689453125,0.018803514540195465,-0.0350932739675045,-0.020850952714681625
1757863525020466700,1.743466796875,0.027364512905478477,-0.07554002851247787,-0.011281150393188
1757863525030451700,1.75345166015625,0.01540825143456459,-0.05072309821844101,-0.002856240142136812
1757863525040437800,1.763437744140625,-0.005854160524904728,0.005446164403110743,-0.0007286408799700439
1757863525050422800,1.7734228515625,-0.014285461977124214,0.03688930720090866,-0.005043228156864643
1757863525060407600,1.783407470703125,-0.003471164032816887,0.03515718877315521,-0.011140801943838596
1757863525070393900,1.793393798828125,0.007242200430482626,0.006973753683269024,-0.012371448799967766
1757863525080379000,1.80337890625,0.012283564545214176,-0.02082378976047039,-0.010426808148622513
1757863525090363600,1.81336376953125,0.004195543937385082,-0.02953658625483513,-0.01248383428901434
1757863525100349700,1.823349609375,-0.012961071915924549,-0.020083164796233177,-0.01369077805429697
1757863525110334700,1.833334716796875,-0.027706196531653404,-0.003320695599541068,-0.013496100902557373
1757863525120319500,1.843319580078125,-0.027604196220636368,0.0114958006888628,-0.008942894637584686
1757863525130305800,1.853305908203125,-0.01034718006849289,0.007892810739576817,-0.0002593918761704117
1757863525140290800,1.863290771484375,0.007050452753901482,0.0009384979493916035,-0.0014500912511721253
1757863525150275600,1.873275634765625,0.021219534799456596,-0.0062768044881522655,-0.00210709311068058
1757863525160261600,1.88326171875,0.02389068529009819,-0.01836089789867401,-0.0024647556710988283
1757863525170246700,1.89324658203125,0.013232181780040264,-0.02576342038810253,0.003221892286092043
1757863525180232700,1.903232666015625,0.0010396981379017234,-0.021411282941699028,0.0011014834744855762
1757863525190217700,1.9132177734375,-0.007751130498945713,-0.02117106504738331,-0.0020567593164741993
1757863525200202800,1.92320263671875,-0.005320729687809944,-0.022517027333378792,-0.000006125270374468528
1757863525210188500,1.9331884765625,0.009816944599151611,-0.015530223958194256,0.0007360977469943464
1757863525220173600,1.943173583984375,0.017345966771245003,-0.012714996002614498,-0.0013709953054785728
1757863525230158800,1.953158935546875,0.01569773629307747,0.010948787443339825,-0.001636246219277382
1757863525240144600,1.96314453125,0.0031308121979236603,0.0353742353618145,-0.0007174555794335902
1757863525250129700,1.973129638671875,-0.007109042257070541,0.03534147888422012,-0.0013856426812708378
1757863525260114700,1.98311474609375,-0.00914582796394825,0.017826400697231293,-0.0002993392990902066
1757863525270100500,1.9931005859375,-0.009796970523893833,-0.004607268609106541,0.0059601543471217155
1757863525280085800,2.003085693359375,-0.00446851784363389,-0.02064056321978569,0.013308614492416382
1757863525290070800,2.01307080078125,0.008264588192105293,-0.014632205478847027,0.017125723883509636
1757863525300056600,2.023056640625,0.025843581184744835,-0.012035091407597065,0.017558753490447998
1757863525310041600,2.03304150390625,0.03644882142543793,-0.016084959730505943,0.017293769866228104
1757863525320026600,2.043026611328125,0.03786801919341087,-0.01737792417407036,0.014799718745052814
1757863525330012700,2.0530126953125,0.028011927381157875,-0.006095442920923233,0.009512544609606266
1757863525339997700,2.062997802734375,0.00535428524017334,0.022460302338004112,0.002968891989439726
1757863525349983700,2.072983642578125,-0.021340975537896156,0.05408374220132828,0.00035446672700345516
1757863525359968800,2.08296875,-0.038903988897800446,0.06000501289963722,0.008558867499232292
1757863525369953500,2.09295361328125,-0.02719513513147831,0.03853008151054382,0.019208049401640892
1757863525379939800,2.10293994140625,0.0022485069930553436,0.0046666571870446205,0.023662451654672623
1757863525389924900,2.1129248046875,0.03169481083750725,-0.01565166376531124,0.022309033200144768
1757863525399909600,2.12290966796875,0.049801379442214966,-0.01997610554099083,0.014289190992712975
1757863525409895700,2.132895751953125,0.054125551134347916,-0.020865067839622498,0.009703760035336018
1757863525419880700,2.142880615234375,0.04237302392721176,-0.021954035386443138,0.009220928885042667
1757863525429865500,2.152865478515625,0.02070581167936325,0.0033803503029048443,0.011303254403173923
1757863525439851800,2.162851806640625,-0.004732437431812286,0.02815280854701996,0.011581288650631905
1757863525449836800,2.1728369140625,-0.03188629448413849,0.039871249347925186,0.010837467387318611
1757863525459821800,2.18282177734375,-0.03466876596212387,0.027942152693867683,0.01497974805533886
1757863525469807600,2.1928076171875,-0.02503797598183155,0.025373533368110657,0.022289859130978584
1757863525479792600,2.202792724609375,-0.010822287760674953,0.016459133476018906,0.025126658380031586
1757863525489778000,2.21277783203125,0.012614594772458076,0.004054662771522999,0.01962297037243843
1757863525499763700,2.222763671875,0.029140841215848923,-0.018869562074542046,0.015662848949432373
1757863525509748700,2.232748779296875,0.03503042086958885,-0.028446022421121597,0.012739763595163822
1757863525519734500,2.242734619140625,0.027669711038470268,-0.010282198898494244,0.010670221410691738
1757863525529719600,2.252719482421875,0.004708202555775642,0.01344470214098692,0.012809005565941334
1757863525539704800,2.262704833984375,-0.01079805288463831,0.02617674320936203,0.012977584265172482
1757863525549690600,2.272690673828125,-0.008083492517471313,0.033786460757255554,0.014120612293481827
1757863525559675600,2.282675537109375,0.0016282566357403994,0.016322514042258263,0.011505655013024807
1757863525569660700,2.29266064453125,0.017603494226932526,-0.013923272490501404,0.01287638396024704
1757863525579646500,2.302646484375,0.031038343906402588,-0.021144965663552284,0.014181066304445267
1757863525589631700,2.3126318359375,0.040834780782461166,-0.023068834096193314,0.016053268685936928
1757863525599616800,2.32261669921875,0.04234825447201729,-0.019655993208289146,0.01667218655347824
1757863525609602800,2.332602783203125,0.03750370070338249,-0.023546071723103523,0.015467639081180096
1757863525619587600,2.342587646484375,0.02443130686879158,-0.01635686866939068,0.014576545916497707
1757863525629572600,2.352572509765625,0.010747719556093216,-0.004689560271799564,0.012540825642645359
1757863525639559000,2.362558837890625,-0.000544350128620863,0.01781361736357212,0.0065503111109137535
1757863525649543700,2.372543701171875,-0.00509782275184989,0.02424861490726471,0.005555354058742523
1757863525659528700,2.38252880859375,0.00088949577184394,0.013552294112741947,0.002205097349360585
1757863525669514800,2.3925146484375,0.008363391272723675,0.014487862586975098,-0.000015978966985130683
1757863525679499500,2.40249951171875,0.0073103769682347775,0.038539137691259384,0.0003563309437595308
1757863525689485800,2.41248583984375,0.002832005498930812,0.06019649654626846,0.013247628696262836
1757863525699470800,2.422470947265625,0.011714180000126362,0.05998024716973305,0.030821295455098152
1757863525709455600,2.43245556640625,0.01667378470301628,0.039023566991090775,0.0487251952290535
1757863525719441700,2.442441650390625,0.017407752573490143,0.015955263748764992,0.0610327273607254
1757863525729426700,2.4524267578125,0.016528910025954247,0.017895109951496124,0.06861262023448944
1757863525739411700,2.46241162109375,0.010538128204643726,0.03658437728881836,0.08662943542003632
1757863525749397800,2.472397705078125,0.022429408505558968,0.04176582396030426,0.10976138710975647
1757863525759382800,2.4823828125,0.05931765213608742,0.03681314364075661,0.12651240825653076
1757863525769367800,2.492367919921875,0.0958961695432663,0.00652714166790247,0.13120995461940765
1757863525779353600,2.502353515625,0.11012490838766098,-0.01053519919514656,0.12471769750118256
1757863525789338600,2.512338623046875,0.10111090540885925,-0.007727960590273142,0.11877857893705368
1757863525799324000,2.522323974609375,0.07188191264867783,0.004791026934981346,0.11977487057447433
1757863525809309700,2.532309814453125,0.04893425479531288,-0.012048407457768917,0.12080897390842438
1757863525819294700,2.542294677734375,0.04512593150138855,-0.03134673833847046,0.12625807523727417
1757863525829280500,2.552280517578125,0.049497511237859726,-0.050936684012413025,0.12244655191898346
1757863525839265500,2.562265625,0.06865736097097397,-0.03192970156669617,0.11254704743623734
1757863525849250800,2.572250732421875,0.0691809356212616,-0.01477335300296545,0.10593602061271667
1757863525859236600,2.582236572265625,0.06293608993291855,0.011409248225390911,0.10481775552034378
1757863525869221600,2.5922216796875,0.05446856841444969,0.0171480942517519,0.10255274176597595
1757863525879206700,2.60220654296875,0.04538452625274658,-0.009444634430110455,0.10031887888908386
1757863525889192700,2.612192626953125,0.03897509723901749,-0.031250063329935074,0.09460719674825668
1757863525899177700,2.622177734375,0.011439608410000801,-0.036796364933252335,0.08297611027956009
1757863525909162800,2.632162841796875,-0.03350229933857918,-0.009945308789610863,0.06904857605695724
1757863525919148800,2.642148681640625,-0.07071252167224884,0.03740382939577103,0.059790629893541336
1757863525929133600,2.652133544921875,-0.08602915704250336,0.0807795375585556,0.04825727641582489
1757863525939118600,2.66211865234375,-0.0774705559015274,0.11521340906620026,0.03536384925246239
1757863525949105000,2.67210498046875,-0.0666986033320427,0.1688300371170044,0.025250494480133057
1757863525959089700,2.682089599609375,-0.06409270316362381,0.2320239096879959,0.018619757145643234
1757863525969075700,2.69207568359375,-0.06289853900671005,0.29326197504997253,0.011724034324288368
1757863525979060700,2.702060791015625,-0.05997225642204285,0.3480927348136902,0.008144212886691093
1757863525989045500,2.71204541015625,-0.06738569587469101,0.3995324969291687,0.023204654455184937
1757863525999031800,2.72203173828125,-0.062485482543706894,0.4303053021430969,0.060451094061136246
1757863526009016800,2.732016845703125,-0.05699644237756729,0.4272157847881317,0.13562893867492676
1757863526019001600,2.742001708984375,-0.0359761118888855,0.4106557071208954,0.24887773394584656
1757863526028987600,2.751987548828125,0.016774186864495277,0.4248165488243103,0.3748804032802582
1757863526038973000,2.761972900390625,0.09996228665113449,0.4418383836746216,0.5184208154678345
1757863526048958000,2.7719580078125,0.186589315533638,0.477813184261322,0.6529759168624878
1757863526058943700,2.78194384765625,0.27729684114456177,0.5064099431037903,0.7794209718704224
1757863526068928800,2.7919287109375,0.3334336280822754,0.5718278288841248,0.8742976784706116
1757863526078913800,2.801913818359375,0.38315191864967346,0.6713168621063232,0.9079211354255676
1757863526088899800,2.81189990234375,0.48644688725471497,0.7192084789276123,0.8812581300735474
1757863526098884900,2.821884765625,0.6056963205337524,0.5873876214027405,0.842203676700592
1757863526108870700,2.83187060546875,0.7542149424552917,0.40491658449172974,0.8542275428771973
1757863526118855700,2.841855712890625,0.8755940794944763,0.3762529790401459,0.9034497141838074
1757863526128840700,2.8518408203125,0.8966668844223022,0.4062662720680237,0.929935097694397
1757863526138826800,2.86182666015625,0.8656203150749207,0.4309556484222412,0.9464027285575867
1757863526148811800,2.871811767578125,0.8016447424888611,0.4237707257270813,0.9484968185424805
1757863526158796800,2.881796875,0.7368508577346802,0.3889964818954468,0.931952178478241
1757863526168782600,2.891782470703125,0.6963998675346375,0.286500483751297,0.912002682685852
1757863526178767600,2.901767578125,0.6727312803268433,0.23313631117343903,0.9126418828964233
1757863526188752600,2.911752685546875,0.6485636234283447,0.23606552183628082,0.9412346482276917
1757863526198738700,2.92173876953125,0.6167979836463928,0.25887417793273926,0.9764195084571838
1757863526208723700,2.9317236328125,0.5795206427574158,0.28911036252975464,0.9955029487609863
1757863526218709800,2.941709716796875,0.5429815053939819,0.2663874924182892,1.0104742050170898
1757863526228694800,2.95169482421875,0.5401883721351624,0.21120890974998474,1.0200567245483398
1757863526238679600,2.961679443359375,0.610374391078949,0.10317672044038773,1.0377366542816162
1757863526248665900,2.971665771484375,0.6647316813468933,0.06109078601002693,1.0773671865463257
1757863526258651000,2.98165087890625,0.6801044940948486,0.1533360332250595,1.126288652420044
1757863526268635600,2.9916357421875,0.6537389159202576,0.27479854226112366,1.1499513387680054
1757863526278621700,3.00162158203125,0.644145131111145,0.3471909761428833,1.1646621227264404
1757863526288606700,3.011606689453125,0.7082123160362244,0.33139124512672424,1.171562671661377
1757863526298591700,3.021591796875,0.8256398439407349,0.23010830581188202,1.1744550466537476
1757863526308577800,3.031577880859375,0.9200158715248108,0.12243296951055527,1.198184609413147
1757863526318562800,3.041562744140625,0.9379554986953735,0.10167096555233002,1.2374311685562134
1757863526328547800,3.0515478515625,0.9031053781509399,0.17700940370559692,1.2666513919830322
1757863526338533600,3.06153369140625,0.8286519050598145,0.2534349262714386,1.293798565864563
1757863526348519000,3.071518798828125,0.7362894415855408,0.30407652258872986,1.3325285911560059
1757863526358504700,3.081504638671875,0.7152931094169617,0.3643838167190552,1.3764910697937012
1757863526368489700,3.09148974609375,0.7452938556671143,0.37628787755966187,1.4063829183578491
1757863526378474800,3.101474853515625,0.7830636501312256,0.4092556834220886,1.4257376194000244
1757863526388460500,3.11146044921875,0.8078616261482239,0.5004412531852722,1.4575027227401733
1757863526398445800,3.12144580078125,0.8258047103881836,0.5861777067184448,1.470003366470337
1757863526408430800,3.131430908203125,0.8846485614776611,0.6588529944419861,1.4594242572784424
1757863526418416600,3.141416748046875,0.9047279953956604,0.6308916807174683,1.430379867553711
1757863526428401700,3.151401611328125,0.8771573901176453,0.549087643623352,1.3744078874588013
1757863526438386700,3.16138671875,0.8922287225723267,0.3694171905517578,1.300007939338684
1757863526448372700,3.171372802734375,0.9471521973609924,0.1875171661376953,1.2292019128799438
1757863526458357800,3.181357666015625,1.051798701286316,0.10194074362516403,1.167168140411377
1757863526468343800,3.19134375,1.1114518642425537,0.008777778595685959,1.1251500844955444
1757863526478328800,3.201328857421875,1.1544721126556396,-0.03774471580982208,1.1130473613739014
1757863526488313600,3.211313720703125,1.0156347751617432,-0.01453047338873148,1.1200799942016602
1757863526498300000,3.2212998046875,0.7414863705635071,0.12423726171255112,1.10155189037323
1757863526508285000,3.231284912109375,0.48585245013237,0.30381208658218384,1.0261937379837036
1757863526518269700,3.241269775390625,0.28910478949546814,0.16906093060970306,0.8890073895454407
1757863526528255700,3.251255859375,0.21266646683216095,-0.17638862133026123,0.6970387101173401
1757863526538240800,3.26124072265625,0.20376990735530853,-0.41898447275161743,0.5066946148872375
1757863526548225500,3.2712255859375,0.13120248913764954,-0.401237428188324,0.36057284474372864
1757863526558211800,3.2812119140625,-0.03081383928656578,-0.1643412709236145,0.23400290310382843
1757863526568196900,3.29119677734375,-0.27036038041114807,0.1385544240474701,0.1300317645072937
1757863526578181600,3.301181640625,-0.43337753415107727,0.2988436818122864,0.014607705175876617
1757863526588167700,3.311167724609375,-0.4128493666648865,0.1849924921989441,-0.10053219646215439
1757863526598152700,3.321152587890625,-0.27202218770980835,-0.22270071506500244,-0.17973540723323822
1757863526608138800,3.331138671875,-0.13862019777297974,-0.550071656703949,-0.16298465430736542
1757863526618123800,3.341123779296875,-0.14282666146755219,-0.5343475341796875,-0.0832086056470871
1757863526628108800,3.35110888671875,-0.3500264585018158,-0.301601380109787,-0.034502848982810974
1757863526638094600,3.361094482421875,-0.6818525791168213,-0.07419406622648239,-0.056594036519527435
1757863526648079600,3.37107958984375,-0.8659859299659729,0.09542319178581238,-0.12917263805866241
1757863526658065000,3.38106494140625,-0.9039990901947021,-0.04595364257693291,-0.2364002913236618
1757863526668050700,3.39105078125,-0.7352686524391174,-0.3173380196094513,-0.2967613637447357
1757863526678035700,3.40103564453125,-0.5009006261825562,-0.4734751582145691,-0.28554120659828186
1757863526688020700,3.411020751953125,-0.34468868374824524,-0.4653381407260895,-0.2332329899072647
1757863526698006500,3.421006591796875,-0.25167137384414673,-0.3783254623413086,-0.24838797748088837
1757863526707991800,3.43099169921875,-0.1717882752418518,-0.33991655707359314,-0.31748953461647034
1757863526717977900,3.440977783203125,-0.11155954748392105,-0.20120155811309814,-0.3752303421497345
1757863526727962600,3.450962646484375,-0.16364271938800812,-0.087156742811203,-0.46761831641197205
1757863526737947600,3.46094775390625,-0.2439575344324112,0.026852918788790703,-0.5262256860733032
1757863526747933700,3.47093359375,-0.2982894778251648,0.16559003293514252,-0.5351417064666748
1757863526757918700,3.480918701171875,-0.34093788266181946,0.29443803429603577,-0.5208250880241394
1757863526767903700,3.49090380859375,-0.3435909152030945,0.35393837094306946,-0.5277290940284729
1757863526777889800,3.500889892578125,-0.29486358165740967,0.2948279082775116,-0.5600454807281494
1757863526787874800,3.510874755859375,-0.21909959614276886,0.09845732897520065,-0.5931717157363892
1757863526797859600,3.520859619140625,-0.13120383024215698,-0.16067303717136383,-0.6276341080665588
1757863526807846000,3.530845947265625,-0.056894708424806595,-0.3727472126483917,-0.6516209244728088
1757863526817831000,3.540830810546875,-0.04375387355685234,-0.4122197926044464,-0.6559136509895325
1757863526827816700,3.550816650390625,-0.09131979197263718,-0.3628082871437073,-0.6555038094520569
1757863526837801700,3.5608017578125,-0.13788756728172302,-0.2597713768482208,-0.6682800650596619
1757863526847786800,3.570786865234375,-0.19771920144557953,-0.2052045464515686,-0.7058506011962891
1757863526857772800,3.580772705078125,-0.25548264384269714,-0.17446181178092957,-0.7347400188446045
1757863526867757800,3.5907578125,-0.31004148721694946,-0.18415145576000214,-0.7526109218597412
1757863526877742800,3.600742919921875,-0.40002089738845825,-0.22164584696292877,-0.7767918705940247
1757863526887728600,3.610728759765625,-0.47612473368644714,-0.24743269383907318,-0.7992380857467651
1757863526897713700,3.620713623046875,-0.506434977054596,-0.262896865606308,-0.8132582902908325
1757863526907701800,3.63070166015625,-0.5313869118690491,-0.28362080454826355,-0.8101469278335571
1757863526917687600,3.6406875,-0.5343784689903259,-0.2696746289730072,-0.7981403470039368
1757863526927672600,3.650672607421875,-0.5120782256126404,-0.2460489124059677,-0.7900906205177307
1757863526937659000,3.660658935546875,-0.4667187035083771,-0.27488696575164795,-0.8015534281730652
1757863526947643600,3.6706435546875,-0.41904333233833313,-0.3362160921096802,-0.815757155418396
1757863526957628700,3.680628662109375,-0.39050835371017456,-0.4034108519554138,-0.8177944421768188
1757863526967614700,3.69061474609375,-0.3860315978527069,-0.45333579182624817,-0.8087359666824341
1757863526977599700,3.700599853515625,-0.3729639947414398,-0.49157798290252686,-0.786697268486023
1757863526987584800,3.710584716796875,-0.3730612099170685,-0.5352439880371094,-0.7597396373748779
1757863526997570800,3.72057080078125,-0.3948511779308319,-0.5049816966056824,-0.7363235354423523
1757863527007555800,3.730555908203125,-0.41577884554862976,-0.45091286301612854,-0.7163306474685669
1757863527017540600,3.74054052734375,-0.417219340801239,-0.42216935753822327,-0.6986542344093323
1757863527027527000,3.75052685546875,-0.3848845660686493,-0.4231230318546295,-0.6847389340400696
1757863527037512000,3.760511962890625,-0.32319962978363037,-0.4705965518951416,-0.671710193157196
1757863527047496700,3.77049658203125,-0.2543119192123413,-0.5322551131248474,-0.660129189491272
1757863527057482800,3.780482666015625,-0.21274955570697784,-0.5724936127662659,-0.6475124359130859
1757863527067467800,3.7904677734375,-0.18268485367298126,-0.5839138031005859,-0.6370790004730225
1757863527077453800,3.800453857421875,-0.15931828320026398,-0.5702677369117737,-0.6265373826026917
1757863527087438800,3.81043896484375,-0.14262080192565918,-0.5265522003173828,-0.6019002199172974
1757863527097424000,3.820423828125,-0.12250727415084839,-0.4763020873069763,-0.5756968855857849
1757863527107409700,3.83040966796875,-0.09221647679805756,-0.46239933371543884,-0.5637006759643555
1757863527117394700,3.840394775390625,-0.08603554964065552,-0.4239078760147095,-0.5656673908233643
1757863527127379700,3.850379638671875,-0.0883471742272377,-0.3962509334087372,-0.5835105776786804
1757863527137365800,3.86036572265625,-0.09818702191114426,-0.36513110995292664,-0.5942327380180359
1757863527147350800,3.870350830078125,-0.11704140156507492,-0.3288061022758484,-0.6005955338478088
1757863527157336800,3.8803369140625,-0.12568415701389313,-0.31533879041671753,-0.6150479912757874
1757863527167321600,3.890321533203125,-0.12152696400880814,-0.3153124153614044,-0.6307228207588196
1757863527177306600,3.900306640625,-0.11549197137355804,-0.29804766178131104,-0.643764078617096
1757863527187293000,3.91029296875,-0.13719141483306885,-0.24073591828346252,-0.6489609479904175
1757863527197277700,3.920277587890625,-0.1634051650762558,-0.15817978978157043,-0.6629025936126709
1757863527207262700,3.9302626953125,-0.17744295299053192,-0.10662391781806946,-0.6830339431762695
1757863527217248800,3.940248779296875,-0.19962282478809357,-0.09799740463495255,-0.7045941352844238
1757863527227233500,3.950233642578125,-0.23679816722869873,-0.06977428495883942,-0.7218655347824097
1757863527237218600,3.960218505859375,-0.2767817974090576,-0.03332732990384102,-0.7322020530700684
1757863527247204900,3.970204833984375,-0.3007747530937195,-0.013748303055763245,-0.7317258715629578
1757863527257189600,3.980189697265625,-0.3332512080669403,0.006364955101162195,-0.7191336750984192
1757863527267175700,3.99017578125,-0.3589160740375519,0.03038480319082737,-0.7135037183761597
1757863527277160700,4.00016064453125,-0.36131080985069275,0.04765487089753151,-0.7094488143920898
1757863527287145700,4.010145751953125,-0.32842740416526794,0.062007978558540344,-0.698980450630188
1757863527297131800,4.0201318359375,-0.29228538274765015,0.07389579713344574,-0.6764330863952637
1757863527307116800,4.03011669921875,-0.2644263207912445,0.09395605325698853,-0.6519458293914795
1757863527317101800,4.040101806640625,-0.23368705809116364,0.11355825513601303,-0.623971700668335
1757863527327087600,4.050087646484375,-0.2222578376531601,0.13087332248687744,-0.5862219333648682
1757863527337073000,4.060072998046875,-0.22435294091701508,0.15974092483520508,-0.5304281711578369
1757863527347058000,4.070057861328125,-0.211656853556633,0.15535150468349457,-0.46127334237098694
1757863527357043700,4.080043701171875,-0.18611368536949158,0.11948645114898682,-0.3802429437637329
1757863527367028700,4.09002880859375,-0.15617921948432922,0.08429330587387085,-0.31185057759284973
1757863527377014500,4.1000146484375,-0.12872788310050964,0.0736963227391243,-0.267412006855011
1757863527386999800,4.109999755859375,-0.11160216480493546,0.08963321149349213,-0.2410094141960144
1757863527396984800,4.11998486328125,-0.09603678435087204,0.11738574504852295,-0.21501776576042175
1757863527406970600,4.129970703125,-0.07205341756343842,0.1401272863149643,-0.18661275506019592
1757863527416955600,4.13995556640625,-0.04436719790101051,0.13391944766044617,-0.15678907930850983
1757863527426940700,4.149940673828125,-0.03154034912586212,0.10879385471343994,-0.13070501387119293
1757863527436926700,4.1599267578125,-0.020067451521754265,0.07484041899442673,-0.1096777617931366
1757863527446911700,4.169911865234375,0.023791881278157234,0.06908240169286728,-0.10194633901119232
1757863527456896800,4.179896728515625,0.04705352708697319,0.04453364387154579,-0.0994458943605423
1757863527466882800,4.1898828125,0.016754744574427605,0.08893999457359314,-0.10527262836694717
1757863527476867600,4.19986767578125,-0.026191657409071922,0.1624203324317932,-0.12998490035533905
1757863527486854000,4.20985400390625,-0.08313190191984177,0.21628355979919434,-0.1560513824224472
1757863527496839000,4.2198388671875,-0.1266293078660965,0.23644715547561646,-0.18334372341632843
1757863527506823700,4.22982373046875,-0.14434200525283813,0.19394950568675995,-0.20182180404663086
1757863527516809700,4.239809814453125,-0.14659343659877777,0.1199176162481308,-0.20407617092132568
1757863527526794800,4.249794677734375,-0.15014022588729858,0.06390068680047989,-0.20529375970363617
1757863527536779500,4.259779541015625,-0.1669495701789856,0.02070288173854351,-0.21104885637760162
1757863527546765800,4.269765869140625,-0.17327111959457397,0.010734936222434044,-0.22474762797355652
1757863527556750800,4.279750732421875,-0.16294018924236298,0.0016160061350092292,-0.2405015528202057
1757863527566736600,4.289736572265625,-0.13226322829723358,-0.024749021977186203,-0.26123613119125366
1757863527576721700,4.2997216796875,-0.09494488686323166,-0.04856753721833229,-0.2810085117816925
1757863527586706700,4.309706787109375,-0.06506342440843582,-0.061944060027599335,-0.29289311170578003
1757863527596692700,4.319692626953125,-0.05102536827325821,-0.06992369145154953,-0.2993078827857971
1757863527606677800,4.329677734375,-0.06126042827963829,-0.08241605013608932,-0.2953333854675293
1757863527616662800,4.339662841796875,-0.09541813284158707,-0.08336386829614639,-0.28624799847602844
1757863527626648600,4.349648681640625,-0.15728016197681427,-0.0767911821603775,-0.26851481199264526
1757863527636633600,4.359633544921875,-0.1978560835123062,-0.04729001596570015,-0.246848925948143
1757863527646619000,4.369618896484375,-0.17769755423069,-0.05097316950559616,-0.2248365730047226
1757863527656604700,4.379604736328125,-0.12499652802944183,-0.1189223900437355,-0.21201318502426147
1757863527666589700,4.389589599609375,-0.07003847509622574,-0.16641294956207275,-0.21615174412727356
1757863527676575700,4.39957568359375,-0.04399595409631729,-0.15010108053684235,-0.221516415476799
1757863527686560500,4.409560546875,-0.06876228749752045,-0.11090441048145294,-0.2089415043592453
1757863527696545800,4.4195458984375,-0.09207719564437866,-0.025599902495741844,-0.17721952497959137
1757863527706531800,4.42953173828125,-0.10037986934185028,0.029573071748018265,-0.1488395482301712
1757863527716516600,4.4395166015625,-0.07396503537893295,0.011405520141124725,-0.1373959481716156
1757863527726501600,4.449501708984375,-0.034812841564416885,-0.03596891835331917,-0.1424972265958786
1757863527736487700,4.45948779296875,-0.019896475598216057,-0.05160913243889809,-0.15134531259536743
1757863527746473000,4.469472900390625,-0.030245520174503326,-0.044317398220300674,-0.14838334918022156
1757863527756458800,4.479458740234375,-0.0483880378305912,-0.016835173591971397,-0.1372862160205841
1757863527766443800,4.48944384765625,-0.051906608045101166,-0.011839615181088448,-0.11756204813718796
1757863527776428800,4.4994287109375,-0.03340056538581848,-0.011619904078543186,-0.10283343493938446
1757863527786414600,4.50941455078125,-0.003049319377169013,-0.031205322593450546,-0.09888716787099838
1757863527796399900,4.51939990234375,0.02039182372391224,-0.03533428907394409,-0.10409471392631531
1757863527806385000,4.529385009765625,0.02550962008535862,-0.024709073826670647,-0.10847454518079758
1757863527816370700,4.53937060546875,0.01501303818076849,-0.0013334447285160422,-0.10511896014213562
1757863527826355700,4.549355712890625,-0.011010839603841305,0.004868258256465197,-0.10334742814302444
1757863527836340700,4.5593408203125,-0.021587584167718887,-0.007190268486738205,-0.10206671059131622
1757863527846326800,4.569326904296875,-0.01954813487827778,0.0019891150295734406,-0.09240689873695374
1757863527856311800,4.579311767578125,0.0021811288315802813,-0.01655660569667816,-0.08628109097480774
1757863527866297600,4.589297607421875,0.03660621494054794,0.024711204692721367,-0.06036267802119255
1757863527876282600,4.59928271484375,0.07886631786823273,0.028133101761341095,-0.045109689235687256
1757863527886267600,4.609267578125,0.11919962614774704,0.02388509176671505,-0.040589239448308945
1757863527896254000,4.61925390625,0.141069233417511,0.02965376526117325,-0.04880136251449585
1757863527906235600,4.629235595703125,0.13127785921096802,0.051046404987573624,-0.06172408536076546
1757863527916220700,4.639220703125,0.09611880779266357,0.07614190876483917,-0.06964006274938583
1757863527926206700,4.649206787109375,0.048650361597537994,0.10942582786083221,-0.06197309121489525
1757863527936191700,4.659191650390625,-0.009347163140773773,0.13454103469848633,-0.04525802657008171
1757863527946177800,4.669177734375,-0.04632888361811638,0.14608237147331238,-0.033793915063142776
1757863527956162800,4.679162841796875,-0.02991661988198757,0.08569679409265518,-0.026927221566438675
1757863527966147600,4.689147705078125,0.01985919289290905,0.04000840336084366,-0.017789382487535477
1757863527976134000,4.6991337890625,0.08341899514198303,0.007651527877897024,-0.020929783582687378
1757863527986119000,4.709118896484375,0.13511787354946136,0.010704309679567814,-0.022790268063545227
1757863527996103700,4.719103759765625,0.14934128522872925,0.04537094384431839,-0.021138308569788933
1757863528006089700,4.72908984375,0.1331724375486374,0.08905237913131714,-0.014367487281560898
1757863528016074800,4.73907470703125,0.09157439321279526,0.14664216339588165,-0.009491506032645702
1757863528026059500,4.7490595703125,0.03380243852734566,0.19479770958423615,-0.008767126128077507
1757863528036045800,4.7590458984375,-0.0070861391723155975,0.1977170705795288,-0.013668141327798367
1757863528046030800,4.76903076171875,-0.013818077743053436,0.17968054115772247,-0.019629893824458122
1757863528056016600,4.7790166015625,-0.004069842863827944,0.1843530684709549,-0.026162628084421158
1757863528066001700,4.789001708984375,0.0067636300809681416,0.18927618861198425,-0.04200124740600586
1757863528075986700,4.798986572265625,0.020673586055636406,0.1904626190662384,-0.06228893995285034
1757863528085972700,4.80897265625,0.02708488143980503,0.17151449620723724,-0.07778827100992203
1757863528095957800,4.818957763671875,0.021458953619003296,0.14377208054065704,-0.08769736438989639
1757863528105942800,4.82894287109375,-0.0011209244839847088,0.12393153458833694,-0.09073203057050705
1757863528115928600,4.838928466796875,-0.034625086933374405,0.10545851290225983,-0.09411770850419998
1757863528125913600,4.84891357421875,-0.06876787543296814,0.128755584359169,-0.09736330807209015
1757863528135900000,4.85889990234375,-0.09175682067871094,0.14113982021808624,-0.0994940996170044
1757863528145884700,4.868884765625,-0.08010362088680267,0.13602547347545624,-0.09794600307941437
1757863528155869700,4.87886962890625,-0.03814392164349556,0.1104080006480217,-0.10052287578582764
1757863528165855700,4.888855712890625,0.010921889916062355,0.06216749921441078,-0.10782180726528168
1757863528175840800,4.8988408203125,0.04192907363176346,0.02628992684185505,-0.11685364693403244
1757863528185825800,4.90882568359375,0.04873131960630417,0.03166072443127632,-0.12596938014030457
1757863528195811800,4.918811767578125,0.03389564901590347,0.04734514653682709,-0.12546497583389282
1757863528205796600,4.928796630859375,0.01477361936122179,0.06037040054798126,-0.11933305114507675
1757863528215782700,4.93878271484375,0.010203368961811066,0.06173553690314293,-0.10804471373558044
1757863528225768000,4.948767822265625,0.01239355280995369,0.04484017565846443,-0.09810153394937515
1757863528235752700,4.958752685546875,0.0226171612739563,0.032520923763513565,-0.09449534863233566
1757863528245738800,4.96873876953125,0.03202930465340614,0.027572771534323692,-0.09474141895771027
1757863528255723800,4.978723876953125,0.041906703263521194,0.02491147443652153,-0.09091152995824814
1757863528265708800,4.988708740234375,0.037827007472515106,0.033793650567531586,-0.08885716646909714
1757863528275694800,4.99869482421875,0.02474050037562847,0.055811867117881775,-0.08860283344984055
1757863528285679900,5.008679931640625,0.010976751334965229,0.08177555352449417,-0.09061378985643387
1757863528295665000,5.018664794921875,-0.014190121553838253,0.10265740007162094,-0.09551427513360977
1757863528305650700,5.028650634765625,-0.01991884782910347,0.12342872470617294,-0.09283486753702164
1757863528315635700,5.0386357421875,-0.031683892011642456,0.12723465263843536,-0.10094525665044785
1757863528325621800,5.048621826171875,-0.030940871685743332,0.13337457180023193,-0.10424118489027023
1757863528335606800,5.058606689453125,-0.0057156761176884174,0.13908465206623077,-0.11505068838596344
1757863528345591800,5.068591796875,0.024279773235321045,0.12919287383556366,-0.12913455069065094
1757863528355577600,5.07857763671875,0.04072319343686104,0.11641662567853928,-0.14159761369228363
1757863528365562600,5.088562744140625,0.03452229127287865,0.1083267405629158,-0.14941798150539398
1757863528375547600,5.098547607421875,0.004450940992683172,0.10086242854595184,-0.14764218032360077
1757863528385533700,5.10853369140625,-0.019344136118888855,0.09801657497882843,-0.13551442325115204
1757863528395518700,5.118518798828125,-0.026402845978736877,0.07004912197589874,-0.11762170493602753
1757863528405504800,5.1285048828125,-0.027907798066735268,0.031678035855293274,-0.10442334413528442
1757863528415489800,5.13848974609375,-0.006643255241215229,0.007816111668944359,-0.10004270821809769
1757863528425474600,5.148474609375,0.027995148673653603,0.003600061172619462,-0.10108320415019989
1757863528435460900,5.1584609375,0.06261544674634933,0.007770571392029524,-0.09978944063186646
1757863528445446000,5.16844580078125,0.08091775327920914,0.0363023467361927,-0.09427376836538315
1757863528455430700,5.1784306640625,0.08002479374408722,0.055330634117126465,-0.0868091955780983
1757863528465416700,5.188416748046875,0.05500572919845581,0.08066262304782867,-0.07657919824123383
1757863528475401700,5.198401611328125,0.010552509687840939,0.1108439564704895,-0.059607937932014465
1757863528485387800,5.2083876953125,-0.03554654121398926,0.14241306483745575,-0.051299408078193665
1757863528495372800,5.218372802734375,-0.07951293140649796,0.16157610714435577,-0.05397401750087738
1757863528505357800,5.22835791015625,-0.10358018428087234,0.162190243601799,-0.057800181210041046
1757863528515343600,5.238343505859375,-0.08375801146030426,0.13707396388053894,-0.05824626237154007
1757863528525328600,5.24832861328125,-0.04734621196985245,0.09238132834434509,-0.05633917078375816
1757863528535314000,5.25831396484375,-0.007444600574672222,0.01679682359099388,-0.047636229544878006
1757863528545299700,5.2682998046875,0.018062090501189232,-0.0654679536819458,-0.042933084070682526
1757863528555284700,5.27828466796875,-0.0041497377678751945,-0.05217611789703369,-0.0370728000998497
1757863528565269800,5.288269775390625,-0.08611677587032318,0.05518469214439392,-0.02743641845881939
1757863528575255600,5.298255615234375,-0.1483825445175171,0.18358048796653748,-0.012501942925155163
1757863528585240800,5.30824072265625,-0.14552471041679382,0.25154274702072144,-0.002367816399782896
1757863528595227000,5.318226806640625,-0.07942691445350647,0.23789991438388824,0.008071774616837502
1757863528605211600,5.328211669921875,0.009818010032176971,0.09779047220945358,0.008637696504592896
1757863528615196700,5.33819677734375,0.08105703443288803,-0.05716608464717865,-0.007435812149196863
1757863528625182700,5.3481826171875,0.10371600836515427,-0.1114564836025238,-0.03152250498533249
1757863528635167700,5.358167724609375,0.03805151209235191,-0.08380674570798874,-0.047391749918460846
1757863528645152800,5.36815283203125,-0.0707055926322937,0.028661472722887993,-0.04764608293771744
1757863528655138800,5.378138916015625,-0.0909259095788002,0.1314203441143036,-0.03935566172003746
1757863528665123600,5.38812353515625,-0.06911835074424744,0.1640842705965042,-0.021754032000899315
1757863528675109600,5.398109619140625,-0.06954924762248993,0.12542583048343658,-0.01805383525788784
1757863528685095000,5.408094970703125,-0.04328435659408569,0.06630551815032959,-0.03075764700770378
1757863528695079700,5.41807958984375,-0.015812784433364868,-0.02707875519990921,-0.052730854600667953
1757863528705065700,5.428065673828125,0.015219433233141899,0.05420704558491707,-0.013548832386732101
1757863528715050800,5.43805078125,0.002516687149181962,0.04134504124522209,0.0006612628931179643
1757863528725035800,5.448035888671875,-0.014011423103511333,0.023838486522436142,-0.01486416719853878
1757863528735021800,5.458021728515625,-0.03561311960220337,0.06268654763698578,-0.014949388802051544
1757863528745006800,5.4680068359375,-0.08224108070135117,0.08441901206970215,-0.003920439630746841
1757863528754992600,5.47799267578125,-0.0806165486574173,0.05164534971117973,-0.0005571332876570523
1757863528764977700,5.487977783203125,-0.009767409414052963,0.00615270109847188,-0.0026852653827518225
1757863528774962700,5.497962646484375,0.05302540212869644,-0.04104037582874298,-0.009022523649036884
1757863528784948700,5.50794873046875,0.07878642529249191,-0.06647782772779465,-0.011427624151110649
1757863528794933800,5.517933837890625,0.0803275927901268,-0.00561154680326581,-0.01059219054877758
1757863528804918800,5.527918701171875,0.04735526442527771,0.051052533090114594,-0.013666544109582901
1757863528814904600,5.537904541015625,0.0049188584089279175,0.05946705490350723,-0.011649997904896736
1757863528824889600,5.5478896484375,-0.033679135143756866,0.06263329088687897,-0.0073351445607841015
1757863528834876000,5.5578759765625,-0.06220851466059685,0.06840462237596512,0.008350075222551823
1757863528844860700,5.567860595703125,-0.07152637839317322,0.05926864966750145,0.014495053328573704
1757863528854845700,5.577845703125,-0.044915542006492615,0.033721212297677994,0.014503574930131435
1757863528864831700,5.587831787109375,0.012461995705962181,-0.011088604107499123,0.010353571735322475
1757863528874816800,5.597816650390625,0.05646061152219772,-0.06183833256363869,0.00845686811953783
1757863528884801500,5.607801513671875,0.06482267379760742,-0.0734449252486229,0.004393416922539473
1757863528894787800,5.617787841796875,0.04198979586362839,-0.02947666496038437,0.0007222492713481188
1757863528904773000,5.627773193359375,0.0023579627741128206,0.013938452117145061,-0.0001430117554264143
1757863528914759000,5.637759033203125,-0.032527316361665726,0.07408967614173889,0.005775597412139177
1757863528924744000,5.647743896484375,-0.05058328062295914,0.10802686959505081,0.011239072307944298
1757863528934729200,5.657729248046875,-0.0395258367061615,0.09257227927446365,0.0033776871860027313
1757863528944715000,5.667715087890625,0.00461765518411994,0.055040616542100906,-0.0034088462125509977
1757863528954700000,5.677699951171875,0.05248478055000305,0.0019542276859283447,-0.0057076867669820786
1757863528964685000,5.68768505859375,0.07210295647382736,-0.02931048348546028,-0.00341550400480628
1757863528974670800,5.6976708984375,0.059719789773225784,-0.008400674909353256,0.002805906580761075
1757863528984656100,5.70765625,0.024887239560484886,-0.0035388083197176456,0.002133458387106657
1757863528994642000,5.717641845703125,0.009534116834402084,-0.008070709183812141,-0.0027166905347257853
1757863529004627000,5.727626953125,0.005763613153249025,-0.006025135517120361,0.0007475492893718183
1757863529014612000,5.737612060546875,0.011457717977464199,-0.001580053474754095,0.006427539046853781
1757863529024597800,5.74759765625,0.01537602674216032,0.016441557556390762,0.003216033335775137
1757863529034583000,5.7575830078125,0.017074057832360268,0.020622987300157547,0.0015217302134260535
1757863529044568000,5.767568115234375,0.0171427670866251,0.030424218624830246,0.00015899071877356619
1757863529054554000,5.77755419921875,0.012570120394229889,0.03795989975333214,0.005496231839060783
1757863529064539000,5.787538818359375,0.00341523764654994,0.0625976026058197,0.011516307480633259
1757863529074525000,5.79752490234375,-0.005033640656620264,0.08808485418558121,0.012621519155800343
1757863529084510200,5.80751025390625,0.0006966829532757401,0.08664115518331528,0.003710049670189619
1757863529094495000,5.817494873046875,0.019930830225348473,0.05748193338513374,-0.004277302883565426
1757863529104481000,5.82748095703125,0.04079989343881607,0.03555186837911606,-0.006825415417551994
1757863529114466000,5.837466064453125,0.04177887365221977,0.025472870096564293,-0.003454119898378849
1757863529124450800,5.847450927734375,0.02683507651090622,0.033606696873903275,-0.005648298189043999
1757863529134437000,5.85743701171875,-0.004630704410374165,0.05305682495236397,-0.006057892460376024
1757863529144422100,5.867422119140625,-0.03952290862798691,0.08776473999023438,-0.000176301269675605
1757863529154407000,5.877406982421875,-0.05890912190079689,0.10721806436777115,0.007632619701325893
1757863529164393000,5.88739306640625,-0.033541448414325714,0.0923730731010437,0.010789530351758003
1757863529174378000,5.8973779296875,0.007655789144337177,0.053219012916088104,0.004759334959089756
1757863529184364000,5.907364013671875,0.04001133143901825,0.022182000800967216,-0.003694869577884674
1757863529194349000,5.91734912109375,0.05221233889460564,0.014726747758686543,-0.010544519871473312
1757863529204334000,5.927333984375,0.03921664506196976,0.013193033635616302,-0.01209660992026329
1757863529214319900,5.93731982421875,0.01398718822747469,0.030157901346683502,-0.009778328239917755
1757863529224305000,5.947304931640625,-0.01452621165663004,0.050821103155612946,-0.007390804588794708
1757863529234291200,5.957291259765625,-0.02847451902925968,0.06953034549951553,-0.005606220569461584
1757863529244276000,5.96727587890625,-0.01489426102489233,0.040950097143650055,-0.0057343184016644955
1757863529254261000,5.977260986328125,0.022944996133446693,-0.010961038060486317,-0.007951666601002216
1757863529264247000,5.9872470703125,0.04429316148161888,-0.037636857479810715,-0.005849899724125862
1757863529274231800,5.997231689453125,0.03640061989426613,-0.026754116639494896,-0.007995341904461384
1757863529284216800,6.007216796875,0.014255634509027004,-0.000023968450477696024,-0.005852829199284315
1757863529294203100,6.017203125,-0.0149813462048769,0.029283586889505386,-0.0011952266795560718
1757863529304188000,6.02718798828125,-0.02677169255912304,0.03458647429943085,0.003929760307073593
1757863529314173000,6.0371728515625,-0.021040569990873337,0.02377696894109249,0.003340402850881219
1757863529324159000,6.047158935546875,0.0008338357438333333,-0.0005121259018778801,-0.0033957967534661293
1757863529334144000,6.05714404296875,0.026395121589303017,-0.023032614961266518,-0.011619105003774166
1757863529344130000,6.067130126953125,0.03437741473317146,-0.0370541587471962,-0.016138756647706032
1757863529354115000,6.077114990234375,0.025351962074637413,-0.038899194449186325,-0.01588628813624382
1757863529364100000,6.08710009765625,0.008374842815101147,-0.01979687437415123,-0.011904329992830753
1757863529374086000,6.0970859375,-0.019759589806199074,0.0001073253879440017,-0.010612696409225464
1757863529384071000,6.10707080078125,-0.046232208609580994,0.019896741956472397,-0.005329784471541643
1757863529394056200,6.11705615234375,-0.050033073872327805,0.02345925383269787,-0.004816593136638403
1757863529404042000,6.1270419921875,-0.046550191938877106,0.02051299810409546,-0.010372745804488659
1757863529414027000,6.137027099609375,-0.03508927673101425,0.003938548732548952,-0.0178154818713665
1757863529424012800,6.1470126953125,-0.018141187727451324,-0.011694739572703838,-0.027182618156075478
1757863529433997800,6.156997802734375,-0.0010554107138887048,-0.014167217537760735,-0.030347252264618874
1757863529443983000,6.166983154296875,0.008930111303925514,-0.018937472254037857,-0.02130821719765663
1757863529453969000,6.176968994140625,0.004000866785645485,-0.032703086733818054,-0.00264798104763031
1757863529463954000,6.186953857421875,-0.0018394453218206763,-0.04675019532442093,0.003995806910097599
1757863529473939000,6.19693896484375,0.0014825817197561264,-0.05012894794344902,-0.02852644957602024
1757863529483925000,6.206925048828125,-0.011549063958227634,-0.02165789157152176,-0.03406848758459091
1757863529493910000,6.216909912109375,-0.02425766922533512,0.0020732709672302008,-0.025431057438254356
1757863529503896000,6.22689599609375,-0.03134247660636902,-0.0036677054595202208,-0.02093191258609295
1757863529513881000,6.236881103515625,-0.024639565497636795,-0.025595907121896744,-0.019898872822523117
1757863529523865900,6.246865966796875,-0.021522335708141327,-0.03375876322388649,-0.022578546777367592
1757863529533852200,6.25685205078125,-0.025493109598755836,-0.04114557057619095,-0.025298964232206345
1757863529543837200,6.266837158203125,-0.021733790636062622,-0.04434695839881897,-0.025590315461158752
1757863529553822000,6.276822021484375,-0.0037023264449089766,-0.07632353156805038,-0.029211148619651794
1757863529563808000,6.28680810546875,0.022770026698708534,-0.11729440093040466,-0.030977889895439148
1757863529573793000,6.29679296875,0.03513748198747635,-0.13124030828475952,-0.029565615579485893
1757863529583779000,6.306779052734375,0.025897378101944923,-0.09240742772817612,-0.02666543237864971
1757863529593764000,6.31676416015625,0.01067900937050581,-0.02840474247932434,-0.025912024080753326
1757863529603749000,6.3267490234375,0.005178516730666161,-0.0070677632465958595,-0.03340030089020729
1757863529613735000,6.33673486328125,-0.004475442226976156,-0.02997068129479885,-0.02853071130812168
1757863529623720000,6.346719970703125,-0.004788896068930626,-0.053699713200330734,-0.01847940869629383
1757863529633705000,6.356705078125,-0.0023313311394304037,-0.03906164690852165,-0.022232068702578545
