time,seconds_elapsed,z,y,x
1757614287699235000,72.52423510742187,3.819013221494853,0.3003706015408039,3.3456837618395685
1757614287709191000,72.53419091796874,4.134145631098747,-1.0730120935946703,3.5644080535680054
1757614287719146000,72.54414599609375,4.422744254042208,-2.2711790915995835,3.795259128680825
1757614287729101800,72.55410180664063,4.865954762026667,-3.3526363574564453,4.023345415255427
1757614287739058000,72.56405786132812,5.331723431038856,-4.319804980832338,4.330375766946375
1757614287749013000,72.57401293945313,5.74207357968986,-5.171599504578113,4.76653664868027
1757614287758968800,72.58396875,6.072769176867604,-6.00539426125288,5.23438183170557
1757614287768925000,72.59392504882813,6.250328222253918,-6.800038326278329,5.724238063269853
1757614287778880000,72.6038798828125,6.394823786950111,-7.627994293797015,6.221095113506913
1757614287788836000,72.61383618164062,6.459430991417169,-8.434495969876647,6.773239751201868
1757614287798792000,72.6237919921875,6.433232720321416,-9.23923765054643,7.389552032902836
1757614287808746800,72.63374682617187,6.389260892125964,-9.889579627621174,8.011465787872671
1757614287818702800,72.64370288085938,6.3103773250252,-10.245531246608495,8.586937525141238
1757614287828659000,72.65365893554687,5.881850883692502,-10.231078358364105,9.010078766304254
1757614287838614000,72.66361401367188,5.051007962560654,-9.916215121090412,9.208867646723984
1757614287848570400,72.6735703125,4.074593371933698,-9.563950081661345,9.024702334940432
1757614287858526200,72.68352612304687,3.169997816848755,-9.283425751841069,8.635787773028015
1757614287868481300,72.69348120117188,2.49066004691422,-9.044362144178152,8.131454103299975
1757614287878437400,72.70343725585937,2.234225617733597,-8.810873121777176,7.500482597127556
1757614287888393500,72.7133935546875,2.2641952240616083,-8.349676582986115,6.840197902709245
1757614287898348300,72.72334838867188,2.2856273036688566,-7.519781756359338,6.184212366789579
1757614287908304400,72.73330444335937,1.621068585193157,-6.0529275813221926,5.314704491698742
1757614287918260200,72.74326025390624,0.3489566455334424,-3.5078397786498066,3.6556904989928
1757614287928216600,72.75321655273437,-1.0951228031158446,1.001793362033367,0.7497912162117659
1757614287938171400,72.76317138671875,-0.5926052428990602,7.913895055958628,-2.580074944901466
1757614287948127200,72.77312719726562,3.0060736213222143,14.800197122716902,-2.587932964925468
1757614287958083300,72.78308325195313,4.67004991261065,20.22641903861761,4.2960745611548425
1757614287968038400,72.79303833007812,3.0032313836336133,25.32904028403759,14.079533070659636
1757614287977994500,72.80299438476563,1.0285983668506145,28.06752533721924,15.464807863640784
1757614287987950300,72.81295043945312,-0.7442384043902158,25.137728607630727,8.678025324776769
1757614287997905200,72.8229052734375,-1.122338142299652,20.088457844126225,2.8993764568835494
1757614288007861200,72.832861328125,-2.3195205131813883,17.267950341296196,-0.0304530059307813
1757614288017817300,72.8428173828125,-2.9911347031265496,15.303094037640092,-1.6035849509507416
1757614288027772400,72.8527724609375,-3.041261546820402,13.59719729772806,-1.8178607388377188
1757614288037728300,72.86272827148437,-2.8660768293499945,12.090133861899377,-0.8364499473586678
1757614288047684400,72.87268432617188,-2.250627886480093,10.596579895985126,-0.2077268046349286
1757614288057639400,72.88263940429688,-1.7445149321198463,9.228416396802665,-0.5577364663526415
1757614288067595300,72.89259521484375,-1.6414660610556602,7.972682175970077,-1.2417571334064006
1757614288077551400,72.90255126953124,-1.4100278337046503,6.5867486268192526,-1.711034687322378
1757614288087506200,72.91250610351562,-0.91681849232018,4.8339311457782985,-1.9708103897549207
1757614288097462500,72.92246264648438,-0.3901639774516224,2.833313792911172,-2.1624911917351186
1757614288107418400,72.93241845703125,0.0332233474269509,0.7146025600612164,-2.367155247798562
1757614288117373200,72.94237329101563,0.3850970494508743,-1.425851133519411,-2.6742686015978454
1757614288127329300,72.95232934570312,0.8664955415323377,-3.5756875724732877,-3.0198356046929957
1757614288137285000,72.96228515625,1.4643009834229943,-5.595282597532868,-3.374278280422091
1757614288147240400,72.97224047851563,1.864757806830108,-7.458281870257854,-3.7172558515459295
1757614288157196300,72.9821962890625,2.230279802717269,-9.25641499531865,-4.057383878457546
1757614288167152400,72.99215234375,2.4895135072276,-11.090814196503162,-4.521389044928551
1757614288177107500,73.002107421875,2.834253119587898,-12.903126653563977,-5.015889302906394
1757614288187063600,73.0120634765625,3.267766701683402,-14.515130473291872,-5.523082453718781
1757614288197019400,73.02201928710937,3.895857683983445,-15.639879183864592,-6.166947928255796
1757614288206975200,73.03197534179688,4.506192644840478,-15.86886797223687,-7.018495783764124
1757614288216930300,73.04193041992187,4.611592170684039,-14.96848214380145,-8.199381392100452
1757614288226886400,73.05188647460938,4.290093733179569,-13.139236087596416,-9.309667862078546
1757614288236842500,73.06184252929687,3.8857206131115554,-10.83424649633169,-10.198735593163969
1757614288246797300,73.07179736328125,3.790586168433725,-8.32316559267938,-10.698795238834618
1757614288256753400,73.08175341796876,4.072497276437282,-5.780999814933538,-10.5132621458292
1757614288266709200,73.09170922851563,4.624397291721404,-3.6826211760163305,-9.683318803885578
1757614288276664300,73.10166430664063,5.084982712876797,-2.644799053746462,-8.303219952237605
1757614288286620400,73.11162036132812,5.091490779596567,-2.865686368727684,-6.705515291497111
1757614288296576300,73.121576171875,4.284435853548348,-3.605473054406047,-5.795874143460392
1757614288306531300,73.13153125,2.3830013439670203,-3.049044455781579,-6.52300651474893
1757614288316487400,73.1414873046875,0.2897074609681964,0.8995897096216678,-9.038336308017373
1757614288326443500,73.15144360351563,-0.8585071731269359,7.856091101765632,-11.403734483015535
1757614288336398300,73.1613984375,-1.0333785868644714,14.565162039917707,-9.842703310155867
1757614288346354200,73.17135424804688,0.2471867083638906,17.691639863991735,-3.041708706066012
1757614288356310300,73.18131030273437,0.1263835694223642,18.371610671132803,5.055555542862415
1757614288366265300,73.19126538085938,-3.6758906987175344,18.925057039076087,10.37349828583002
1757614288376221400,73.20122143554687,-8.251708960708976,16.656582530260085,10.982563080620766
1757614288386177300,73.21117724609375,-9.582465397039057,11.31316398525238,7.373741884830594
1757614288396132400,73.22113232421874,-8.228252681797743,6.73244772208631,4.365046098311245
1757614288406088400,73.23108837890625,-5.468879738888144,3.9677527073711154,2.6272104978248474
1757614288416044300,73.24104418945312,-3.3302953463107348,2.883465186524391,1.147500567541644
1757614288425999400,73.25099926757812,-2.428846857079864,3.1165766077846286,0.8235627740610391
1757614288435955200,73.260955078125,-1.8928177801445123,3.9446149928897616,1.3821917322739958
1757614288445911300,73.27091137695312,-0.9494389054179192,4.749474162459373,2.0984750850290057
1757614288455866400,73.28086645507813,0.4345318192273378,4.822314942264557,2.599597976016998
1757614288465822200,73.290822265625,1.8165803436383603,3.913758082333207,2.8252479753553867
1757614288475778300,73.3007783203125,2.9313217471987008,2.443030865254998,2.7598668639063835
1757614288485734100,73.31073413085937,3.7864866241604087,0.8197942883729934,2.530163789784908
1757614288495689500,73.320689453125,4.500737009783089,-0.7899743196487427,2.3597329888433216
1757614288505645300,73.33064526367187,5.161055314210057,-2.32381528776586,2.245810549326241
1757614288515601400,73.34060131835938,5.682954451245069,-3.728396838763356,2.222248910344392
1757614288525556200,73.35055615234376,6.02941577283144,-4.984636086508631,2.311121518148482
1757614288535512300,73.36051220703125,6.187829388242959,-6.056703008207679,2.533091367669404
1757614288545468400,73.37046850585938,6.258936476123333,-6.970680139622091,3.010744243481755
1757614288555423200,73.38042333984374,6.253785669231414,-7.648308767551184,3.714922147901356
1757614288565379300,73.39037939453125,6.11863660955131,-8.076410261470079,4.664431488206982
1757614288575335200,73.40033520507812,5.880473750120401,-8.30917798385918,5.769847137278318
1757614288585290500,73.41029052734375,5.779088428354263,-8.338008941546082,6.8764446896106
1757614288595246300,73.42024633789063,5.767081764218211,-8.166018051680922,7.920085142770409
1757614288605202400,73.43020239257812,5.686611220186949,-7.814743192332982,8.994021949994563
1757614288615157200,73.4401572265625,5.378897270146012,-7.321116794580221,10.016416201508044
1757614288625113300,73.45011328125,4.676843810534477,-6.757547676551342,10.892128191936015
1757614288635069400,73.4600693359375,3.7905373608559367,-6.504675908288359,11.28268935201168
1757614288645024300,73.47002416992187,2.886038251882791,-6.739433343189955,11.336502775263783
1757614288654980400,73.47998046875,2.2685943358033893,-7.388883339861035,10.88585159588456
1757614288664936200,73.48993627929687,1.85070093216598,-7.999993376743793,9.909451033782958
1757614288674891300,73.49989135742187,1.597469098418951,-8.241638817593454,8.480003921598195
1757614288684847400,73.50984741210938,1.554391004192829,-8.01614956177473,6.746941526862979
1757614288694803200,73.51980322265625,1.4901105474621057,-6.991250049442052,4.987085817748308
1757614288704758500,73.52975854492188,1.1464520083367824,-4.7171734828352925,3.149574037501216
1757614288714714400,73.53971435546875,0.875924171873927,-1.0344055918246506,0.7325436557475477
1757614288724670500,73.54967041015625,1.9280857851415871,4.13591205624938,-2.346800003642589
1757614288734625300,73.55962524414062,4.880912092661857,10.207855303686856,-4.366948424801231
1757614288744581000,73.5695810546875,6.948606254979968,15.753097566765543,-2.4357450921609995
1757614288754537200,73.579537109375,6.426730498820543,20.83941649668217,3.9560362583532926
1757614288764492300,73.5894921875,5.134829570585489,25.44164258086681,10.021717815047502
1757614288774448400,73.59944848632813,3.2292642448097464,27.812598974514007,9.108714497101309
1757614288784404200,73.609404296875,1.7242559879451989,25.0174129599452,3.653120356243849
1757614288794359600,73.61935961914062,0.0949699017658829,19.94782655364275,0.7567442502200603
1757614288804315400,73.6293154296875,-2.4862983445733784,16.15266854724884,0.0041208793222904
1757614288814271500,73.639271484375,-3.7361540287613866,12.607901013696193,-0.6728805566191672
1757614288824227300,73.64922729492187,-4.093834078976512,9.414436396542191,-0.8840686076238751
1757614288834182100,73.65918212890625,-4.1229602202177045,7.305773094975948,-0.7951701347261667
1757614288844138500,73.66913842773438,-4.076815724158287,6.328393458709121,-0.845000625821948
1757614288854094600,73.67909448242187,-4.096995465616882,5.896367484822869,-0.9579933832734824
1757614288864049400,73.68904931640625,-3.8392391401827335,5.532023300543427,-0.8551242526903748
1757614288874005200,73.69900512695312,-3.214697374796867,5.10508091353178,-0.6357590327098965
1757614288883961300,73.70896142578125,-2.5916750740632413,4.545779974341392,-0.4632961414188146
1757614288893916400,73.71891650390624,-2.118285700914264,3.619607378220558,-0.455781235744059
1757614288903872500,73.72887255859375,-1.637173332297802,2.263354681584239,-0.6372735289260745
1757614288913828400,73.73882836914062,-1.2220552385926249,0.5430296033471822,-0.9790072374686598
1757614288923783400,73.74878344726562,-0.7170695346966386,-1.4361018938988446,-1.5126698775336145
1757614288933739500,73.75873950195313,-0.129472475348413,-3.563328441637754,-2.134214653060585
1757614288943695400,73.7686953125,0.4122951452389359,-5.837697853711247,-2.7613194008022544
1757614288953650400,73.778650390625,0.7882923579111695,-8.213723805707692,-3.368829659627378
1757614288963606300,73.78860620117187,1.27109487157166,-10.700791965609788,-3.8731951857984064
1757614288973562400,73.79856225585938,2.000694509756565,-13.264849841690063,-4.399089529949427
1757614288983517400,73.80851733398437,2.8890909174516795,-15.905598158740997,-5.106076354309916
1757614288993473500,73.8184736328125,3.9697108557015657,-18.17558891733885,-6.140051153501868
1757614289003429400,73.82842944335937,5.080675371071696,-19.22273650183677,-7.267018709167837
1757614289013384400,73.83838452148437,6.107634154021739,-18.11808131574392,-8.409285540774464
1757614289023340500,73.84834057617188,6.576256458899379,-15.323606079792976,-9.295967838028073
1757614289033296400,73.85829638671875,6.62461337031126,-12.136687523281571,-10.196946956181526
1757614289043251500,73.86825146484375,5.973699146306514,-9.04667685086131,-11.147131711530683
1757614289053207300,73.87820727539062,5.399626169919968,-5.991407821476459,-11.560905404889583
1757614289063163400,73.88816333007813,5.300494764560461,-3.211026577329636,-10.642483569025991
1757614289073119500,73.89811938476562,5.516652128410339,-1.518401991444826,-8.765188644444942
1757614289083074300,73.90807421875,5.592868522128462,-1.140456567314267,-6.86943159597814
1757614289093030400,73.91803051757813,4.611239703984558,-1.3676567187041044,-5.380366173654794
1757614289102986200,73.927986328125,2.313555175036192,-0.619832857042551,-5.482541769015788
1757614289112941600,73.93794165039063,0.1778752717286348,3.3426474628835914,-8.034364432901144
1757614289122897400,73.9478974609375,-0.5922206274956464,10.782427461767195,-10.794960780125855
1757614289132853500,73.957853515625,-0.2270467143937945,17.848803771603105,-8.528815006518364
1757614289142808300,73.96780834960937,-0.0506093665137886,21.167721399331093,-0.1656731946183368
1757614289152764400,73.97776440429688,-2.4723411308914423,21.841499781572814,7.791318477603792
1757614289162720500,73.98772045898437,-6.977619583496451,19.408135154807567,10.413227069628238
1757614289172675300,73.99767529296875,-10.617678798115254,12.436546083647013,7.222996027567982
1757614289182631400,74.00763134765624,-11.252019488459824,5.957704289317131,3.47515857527554
1757614289192587300,74.01758715820313,-8.207731287294626,2.907657963016629,1.451799229246378
1757614289202542300,74.02754223632813,-4.796802607606352,2.150599240019917,-0.5513195850476622
1757614289212498400,74.03749853515625,-2.5410791515529154,3.0590713442772626,-1.048087934087962
1757614289222454300,74.04745434570313,-1.5054688601136206,4.776928571096063,0.136609779882431
1757614289232409600,74.05740966796876,-0.7874982849240303,6.715982324975728,1.572921809400618
1757614289242365400,74.06736547851563,0.2570379480317235,8.196293947479129,2.517427057808637
1757614289252321500,74.07732153320312,1.5627297934710978,8.417173079153894,2.968481557291746
1757614289262276400,74.0872763671875,2.850557188656926,7.183412205198406,3.097332978132367
1757614289272232400,74.097232421875,3.6780671659737822,5.118532515779138,3.0412323207259178
1757614289282188300,74.10718823242188,4.048884345659613,2.93984641443789,2.788243355824053
1757614289292143400,74.11714331054688,4.350159787085652,0.949925812152028,2.452102060461044
1757614289302099500,74.12709936523437,4.560758055503666,-0.7797165450066328,2.203756245189905
1757614289312055300,74.13705517578126,4.746157585257292,-2.163150678557157,2.152280178844184
1757614289322010600,74.1470107421875,4.982224933713674,-3.2914667262226343,2.2985037363767624
1757614289331966500,74.15696655273437,5.267778489872813,-4.201054098245502,2.687702960449457
1757614289341922600,74.16692260742188,5.627765647986531,-4.996018481266498,3.3112817260220644
1757614289351877400,74.17687744140625,5.977696106988192,-5.73362431577444,4.072151239478588
1757614289361833200,74.18683325195312,6.29939298967421,-6.471883645755052,4.848554714414477
1757614289371789600,74.19678955078125,6.38954847689569,-7.24420540433526,5.553710816216468
1757614289381744400,74.20674438476563,6.546223724207282,-8.021944511789084,6.184931328713893
1757614289391700500,74.21670043945312,6.621228404048085,-8.75493437693417,6.797450063350796
1757614289401656300,74.22665625,6.860279152229428,-9.442138642460106,7.450618788284063
1757614289411612400,74.2366123046875,7.11212450005412,-9.893119492185114,8.189155766162276
1757614289421567500,74.2465673828125,7.030994615331291,-10.124563272494076,9.120710639843344
1757614289431523300,74.2565234375,6.578223375058173,-10.144508328413965,9.945208575862646
1757614289441479400,74.2664794921875,5.728442529222369,-10.169548077124356,10.182664748328923
1757614289451434500,74.2764345703125,4.554257879829406,-10.259390260612964,9.824447522497175
1757614289461390600,74.286390625,3.333739349284768,-10.248946023488044,8.996475188365578
1757614289471346400,74.29634643554688,2.4908669676631687,-9.932549000775811,8.082975026813148
1757614289481301200,74.30630126953125,2.317706449496746,-9.165551067566872,7.294398883524536
1757614289491257300,74.31625732421875,2.623959094813466,-8.101870865941047,6.676003950330615
1757614289501213400,74.32621337890625,2.840228686866164,-6.751296214941144,6.223197054222226
1757614289511168500,74.33616845703125,2.449516135621071,-4.853574003881215,5.560035927584767
1757614289521124400,74.34612426757812,1.5215280145108698,-2.0150053591817616,4.176128331303596
1757614289531080400,74.35608056640625,0.9816390472769736,2.47943255045712,1.8161125799961384
1757614289541035500,74.36603540039063,2.4840508579075333,8.773479502928257,-0.8982396832522004
1757614289550991600,74.37599169921874,6.013157880991697,14.928555791604518,-1.006517760206759
1757614289560947500,74.38594750976563,7.71157566332519,20.0524302529335,4.054300525489449
1757614289570902300,74.39590234375,6.280366217643023,25.35610364753008,11.207817943161723
1757614289580858400,74.4058583984375,3.3414299037873745,28.25840212934017,12.387006684452295
1757614289590814500,74.415814453125,1.930351976507902,25.222664314377308,6.250402456533909
1757614289600769500,74.42576953125,1.1825491576343774,21.04809782556295,1.3325725458413362
1757614289610725400,74.43572534179688,-0.6337129138350487,18.38603199519515,-0.3846028361931443
1757614289620681500,74.44568139648437,-1.655703845244646,16.212413698637484,-0.4586500691786408
1757614289630636500,74.45563647460938,-1.8502561110079287,14.224824169647691,-0.1653983597323298
1757614289640592400,74.46559228515625,-1.9891066555544727,12.71564476457834,-0.1665817242980003
1757614289650548500,74.47554858398438,-2.16227944868058,11.847940724039075,-0.6013911914229393
1757614289660503300,74.48550341796874,-2.2983491303369403,11.244884814274313,-1.1386769904211165
1757614289670459400,74.49545947265625,-2.2903955409839747,10.514449894309044,-1.4662889423698189
1757614289680415500,74.50541552734374,-1.9776482729509477,9.374217783400416,-1.55268273897022
1757614289690370300,74.51537036132812,-1.3695765808507798,7.779780015501379,-1.493727861176431
1757614289700326400,74.52532641601563,-0.7401438285529613,5.746898807889223,-1.5936071622937915
1757614289710282200,74.5352822265625,-0.179212073290348,3.343542950418591,-1.9271134329780932
1757614289720237600,74.54523754882813,0.2148734615191817,0.7766992430120706,-2.450768181508779
1757614289730193400,74.555193359375,0.4681602403238415,-1.8383546608120205,-3.1980577901631597
1757614289740149500,74.5651494140625,0.5753834744632244,-4.434123433929681,-4.048506452257931
1757614289750105300,74.57510522460937,0.6427075366735459,-6.9340627658426754,-4.839733986838161
1757614289760060400,74.58506030273438,0.7836857408985495,-9.26615254547894,-5.553239107051492
1757614289770016500,74.5950166015625,1.1567360864639282,-11.290274108052254,-5.95626870355606
1757614289779972400,74.60497241210938,1.9013845329597592,-13.065855209565164,-6.0967106089472765
1757614289789927400,74.61492749023438,2.8298820648968217,-14.730762936484814,-6.463153226810693
1757614289799883300,74.62488330078125,3.4979099207878117,-15.957036085033415,-7.228495209506153
1757614289809839400,74.63483935546876,3.853492414201796,-16.07308589196801,-8.315276300734281
1757614289819794400,74.64479443359374,4.035599039889872,-14.782289710104465,-9.42367067335546
1757614289829750500,74.65475048828125,4.072003355440497,-12.475009962075948,-10.347047501277922
1757614289839706400,74.66470629882812,3.9292742158949374,-9.667084877443314,-10.9744054931283
1757614289849661200,74.6746611328125,4.2890912781387565,-6.720708768975734,-10.871387017202377
1757614289859617000,74.68461694335937,5.13307425135076,-4.096940812820196,-10.092948821568488
1757614289869573000,74.69457299804688,5.967903027248382,-2.3773797046929595,-9.089876525640488
1757614289879528000,74.70452783203125,6.440744411125778,-1.711208290323615,-7.82703685671687
1757614289889484000,74.71448413085938,6.293420929527282,-2.187435224986076,-6.340303092211484
1757614289899440000,74.72444018554687,5.338823618432879,-3.256659032213688,-5.249959340065717
1757614289909395000,74.73439501953125,3.281296045342088,-3.4885061326265334,-5.457000500524043
1757614289919351000,74.74435107421876,1.2886486484408377,-0.8095102102458477,-7.383616213113069
1757614289929307000,74.75430688476563,0.4128472261637449,5.1319280039250845,-9.853958863663673
1757614289939262200,74.76426220703125,-0.0031783377751708,11.958525251305105,-9.655525372552871
1757614289949218000,74.77421801757812,0.5726145942717791,16.521272727060317,-4.854857613950967
1757614289959174100,74.78417407226563,1.4193342989712954,18.09955898610353,2.7699928288623688
1757614289969129000,74.79412890625,-0.0975502736479043,18.39813978161812,9.440245960581302
1757614289979085000,74.8040849609375,-4.331667268061637,16.27424676221609,11.764897699171303
1757614289989041200,74.81404125976563,-7.775045388194918,11.212196012115475,9.67990461152792
1757614289998996000,74.82399584960937,-8.497851128455997,6.564156271260976,6.049801558256149
1757614290008952000,74.8339521484375,-6.721403765502572,3.795932497897744,3.795703949838877
1757614290018908000,74.84390795898437,-4.215829642572999,2.409583938205242,2.3047829627767205
1757614290028863000,74.85386303710938,-2.825871660211682,2.268676168867945,1.86162067784816
1757614290038819000,74.86381909179687,-2.465307578992844,3.1483021178692576,2.615338858245313
1757614290048775000,74.87377490234375,-2.1016876173347234,4.393690301254392,3.304029270675778
1757614290058731000,74.88373095703125,-1.1400099925905465,5.210645566809177,3.5376392891079185
1757614290068686000,74.89368603515625,0.209635853126645,5.175721552944183,3.4595167695075277
1757614290078642200,74.90364208984376,1.5791291396081446,4.291868341636658,3.1681071807965635
1757614290088598000,74.91359790039063,2.708854469549656,2.9191087468355894,2.683359670548141
1757614290098552800,74.923552734375,3.55115811137259,1.4295885664820671,2.042238818544149
1757614290108509200,74.93350927734375,4.337599580720067,0.0023538696497678,1.5770573017701506
1757614290118465000,74.94346508789063,5.05369968586266,-1.3784534225285052,1.4677341727420687
1757614290128420000,74.95342016601562,5.693933525899053,-2.623472188079357,1.7270803977161644
1757614290138376000,74.9633759765625,6.20511603860855,-3.706791156154871,2.252569668197632
1757614290148332000,74.97333203125,6.513052106967568,-4.614821361863613,2.957684853467345
1757614290158287000,74.983287109375,6.697185854569077,-5.419136341553926,3.784414201800525
1757614290168243000,74.99324291992187,6.8421239023357625,-6.174985688760876,4.634569141645729
1757614290178199000,75.00319897460938,6.996366369542479,-6.913561245083809,5.506515349799394
1757614290188153900,75.01315380859376,7.125683654329181,-7.641829342404008,6.411647495979071
1757614290198110200,75.02311010742187,7.227583939880132,-8.249973515218496,7.455147663885355
1757614290208066000,75.03306616210938,7.226185178998112,-8.738091963204742,8.445691902151703
1757614290218021000,75.04302124023438,7.167917698946595,-9.170444684827329,9.236979057964682
1757614290227977000,75.05297705078125,6.908721988359093,-9.53266413203776,9.99583869290352
1757614290237933000,75.06293310546874,6.367002883088588,-9.875638780552148,10.533619874203204
1757614290247888100,75.07288818359375,5.642033827313781,-10.2328412763834,10.682214690911769
1757614290257844000,75.08284399414063,4.60710508839786,-10.44287869604826,10.189286212295292
1757614290267800000,75.09280004882812,3.5918408348947763,-10.341938779962062,9.186948660382628
1757614290277755100,75.10275512695313,2.828390949556231,-9.887788652551174,7.945121968871355
1757614290287711200,75.11271118164062,2.278267588555813,-9.124755531319977,6.7103153852552175
1757614290297667000,75.1226669921875,1.6419441999614235,-7.8972864509850735,5.677894245246052
1757614290307622000,75.13262182617187,1.0152671761125325,-5.793987891322374,4.618488652199506
1757614290317578000,75.14257788085938,0.7234177346795797,-2.314274136960506,3.001349223148823
1757614290327534000,75.1525341796875,1.2944278163641691,2.9634190132051703,0.4529168592888861
1757614290337489200,75.1624892578125,3.3800948577463625,9.62492155997455,-1.6374128401421009
1757614290347445000,75.17244506835938,5.52977932100892,15.499266598081588,0.0190400699041783
1757614290357401000,75.18240112304687,4.864296473425626,21.196068372893333,6.6806269339561455
1757614290367356200,75.19235620117188,3.311977307070792,27.32765623395443,13.203873687201735
1757614290377312000,75.20231201171875,2.3288228867948053,29.42880433758497,11.7650905913949
1757614290387268000,75.21226806640625,2.080985021045804,25.18582306871414,4.923097037440538
1757614290397223000,75.22222290039062,0.9585288053244352,21.101675101971622,0.4349041596710681
1757614290407179000,75.23217895507813,-0.7143953470513225,18.866915815752744,-1.0251911887556313
1757614290417135000,75.24213500976562,-1.3896750737667083,16.498237888431547,-1.074808621622622
1757614290427090000,75.25208984375,-1.7118693845808506,14.41539701038599,-0.0162520466208457
1757614290437046000,75.2620458984375,-1.9701991259887812,12.744970227783918,0.9027534343495964
1757614290447001900,75.272001953125,-2.439097909720242,11.244485001301763,0.9057166680693626
1757614290456958000,75.2819580078125,-2.735333018891513,9.634297875607013,0.5832607837095857
1757614290466913000,75.2919130859375,-2.6481211839064955,7.792263064977527,0.3473907113909721
1757614290476869000,75.301869140625,-2.3043933789372444,5.854418686887621,0.1121601060196757
1757614290486825000,75.31182495117187,-1.953429777495563,3.834206406712532,-0.2141021848857402
1757614290496780000,75.32178002929687,-1.647764284417033,1.6854940033525228,-0.6675736823827028
1757614290506736000,75.33173608398438,-1.2846549026295542,-0.581594604063034,-1.2669731154665351
1757614290516692200,75.34169213867187,-0.8799778311789035,-2.8557167633771896,-1.995252318702638
1757614290526647000,75.35164697265625,-0.2746422860443592,-5.044364286762476,-2.801663393889368
1757614290536603000,75.36160278320312,0.316370134705305,-7.108290036457777,-3.597060030847788
1757614290546559000,75.37155908203125,0.7250254621371627,-9.063543814510108,-4.304886520902812
1757614290556514000,75.38151416015624,1.1844248883783817,-10.966766961073874,-4.812577976626158
1757614290566470100,75.39147021484375,2.017673409347236,-12.85440792310238,-5.092357625558972
1757614290576426000,75.40142602539062,3.353815630368888,-14.629493350052831,-5.413211627680063
1757614290586381000,75.41138110351562,4.662129056483507,-16.030604010069368,-6.161971308887004
1757614290596337200,75.42133715820313,5.648460645490885,-16.584648928427697,-7.483269596520066
1757614290606293000,75.43129296875,6.101696580666303,-15.85079572445154,-9.076729459297656
1757614290616248000,75.441248046875,6.220867149969935,-13.856954149329662,-10.564454572927952
1757614290626204000,75.45120385742187,5.736617067849636,-11.24688154104948,-12.077037064439056
1757614290636160300,75.46116015625,5.218384636628628,-8.508526251727343,-13.105670502603052
1757614290646115000,75.47111499023437,5.187786084747314,-5.841449315199256,-12.803819891637565
1757614290656071000,75.48107080078125,5.892341882568598,-3.8715386507630343,-10.77303770213127
1757614290666027000,75.49102709960937,6.64268561809659,-3.3812907895326614,-8.260318383622169
1757614290675982000,75.50098217773437,6.915591874128579,-4.102153579032421,-6.295557941555977
1757614290685938200,75.51093823242188,6.416704779368638,-5.21556490303278,-5.015297182232141
1757614290695894000,75.52089404296875,5.083419701343774,-6.222197521790862,-4.562657167123258
1757614290705848800,75.53084887695313,2.8467779623791576,-6.199663618421554,-4.975121823710203
1757614290715805000,75.54080493164062,0.1987786512866616,-3.4121652357459067,-6.889004895976186
1757614290725761000,75.55076098632813,-1.5073811234757304,3.352493149593472,-10.472261442399024
1757614290735716000,75.56071606445313,-2.344430498032272,13.001774074798822,-12.91495971469879
1757614290745672000,75.570671875,-1.2317442734360695,20.940174041938786,-9.721934073483943
1757614290755628000,75.5806279296875,0.6179635560393333,23.991782795250412,-0.2548186645470559
1757614290765584000,75.590583984375,-0.4312888917833566,24.02271335556507,8.538549634069204
1757614290775539200,75.60053930664063,-5.394155045032501,21.435886013793944,10.702737254458665
1757614290785495000,75.6104951171875,-9.772800337368247,15.096860686433317,6.430107281777262
1757614290795451100,75.620451171875,-10.60270919252038,9.100604840403795,1.8853341463908555
1757614290805406200,75.63040625,-7.644784100556373,5.838088314333557,0.3711439274221658
1757614290815362000,75.64036206054688,-4.777277530664206,4.729388236764073,-0.446877798320353
1757614290825318100,75.65031811523437,-3.0576091627702118,4.962711839470267,-0.5497288087248802
1757614290835273000,75.66027294921875,-2.7628195762321357,5.678558262112737,0.2854820983581245
1757614290845229000,75.67022900390624,-2.718085531492531,6.53630497226119,2.1401443353705107
1757614290855184600,75.6801845703125,-1.690176608210802,7.169709258538484,4.213811288487911
1757614290865139700,75.6901396484375,-0.1542591260805726,6.754078539136052,5.091105579671264
1757614290875095600,75.70009545898438,1.3449912979096172,5.3585173299402,5.0524955707699055
1757614290885051600,75.7100517578125,2.557304894688725,3.6101872234463688,4.855763622879982
1757614290895006700,75.7200068359375,3.6240059054404496,1.895707364106178,4.591120752802491
1757614290904962800,75.729962890625,4.477793648830056,0.3177501908868551,4.34380486510098
1757614290914918700,75.73991870117187,5.154059171712398,-1.1508920366108415,4.30776295312196
1757614290924873500,75.74987353515625,5.707473390951752,-2.502142394915223,4.593346319897472
1757614290934829800,75.75982983398437,6.189910870692134,-3.715248603376746,5.377323737218975
1757614290944785700,75.76978564453125,6.447816541469097,-4.895101361534,6.531055965691804
1757614290954740700,75.77974072265626,6.513616170591115,-6.031583179998398,7.862480510541796
1757614290964696600,75.78969653320313,6.3833993066161865,-7.128398173984885,9.087355482730269
1757614290974652700,75.79965258789062,6.274386558711528,-8.191990112805366,10.105019198590515
1757614290984607700,75.80960766601562,6.249127029770612,-9.0149162694633,10.955150173038245
1757614290994563600,75.8195634765625,6.359127035146951,-9.574022562864425,12.055804891318084
1757614291004519700,75.82951977539062,6.546613015785813,-9.80952117152214,13.269587976127864
1757614291014474800,75.83947485351563,6.492987224060297,-9.742504567825794,14.109038566607236
1757614291024430800,75.84943090820312,5.869990934550762,-9.430100414142013,14.223146591824293
1757614291034386700,75.85938671875,4.68724479303956,-9.127294109886884,13.561110085302593
1757614291044341500,75.86934155273437,3.256922651585936,-9.015685500270129,12.40456338393092
1757614291054297600,75.87929760742188,2.186802187779546,-9.10553878967464,11.080594415783882
1757614291064253700,75.88925366210937,1.9383242705613373,-9.226732389238476,9.856786780565976
1757614291074208800,75.89920874023437,2.323794244977832,-9.19770444767475,8.696054317942261
1757614291084164600,75.90916455078126,2.9421497229442,-8.637185949388146,7.625388495212793
1757614291094120700,75.91912060546875,3.1828871090382336,-7.391777307736874,6.624851855242252
1757614291104075800,75.92907568359375,2.550793320837617,-5.350383707845211,5.342087004142999
1757614291114031600,75.93903149414062,1.5913433090150355,-2.17194890204072,3.251977596399188
1757614291123987700,75.94898779296875,0.6017196927249431,3.0049492934674022,0.0126451081700623
1757614291133943600,75.95894360351562,0.9038628568962216,10.364903475964068,-2.883334545882046
1757614291143898600,75.96889868164062,1.655157025016844,17.871803538918495,-1.4755273108363152
1757614291153854700,75.97885473632813,1.3108788926884531,24.005339026916023,6.855403070625663
1757614291163810800,75.98881079101562,2.227753791370988,28.42202149670124,16.525149276232717
1757614291173765600,75.998765625,-0.2130442002654075,29.589842456281183,15.25981369884014
1757614291183721700,76.0087216796875,-2.851946304927766,25.82784320764541,5.652452929997444
1757614291193677600,76.01867749023438,-2.583419286893308,22.265049019014835,-0.4272100980371237
1757614291203632600,76.02863256835937,-2.348298279376328,20.54104846713543,-2.899222143104672
1757614291213588700,76.03858862304688,-2.3214134873211383,18.95541359889507,-3.4545389810949563
1757614291223544600,76.04854467773437,-2.445688394026458,17.25921524617672,-2.24861040917784
1757614291233499600,76.05849975585937,-2.288289800876379,15.187590174150468,-0.8878232839822768
1757614291243455700,76.06845581054688,-1.804238456198573,12.579322569465637,-0.7385387314438819
1757614291253411800,76.07841186523437,-1.4237164595782756,9.700938631728292,-1.2576301175817846
1757614291263366700,76.08836669921875,-0.9591361235678196,6.828109405508637,-1.7466650958910583
1757614291273322500,76.09832250976562,-0.2007113729149103,4.056880605110526,-2.3008153743200004
1757614291283278600,76.10827856445313,0.4863762804940342,1.4165291784226894,-2.8958228560552
1757614291293233700,76.11823364257812,1.1284306139558553,-1.0451794992953538,-3.474715507683157
1757614291303189800,76.12818969726563,1.7204074958235025,-3.302018515375256,-3.978537136235833
1757614291313145600,76.1381455078125,2.51115630697608,-5.330087354269623,-4.291626934096217
1757614291323100700,76.1481005859375,3.3690649296879767,-7.059546171554922,-4.421417681613565
1757614291333056800,76.15805688476563,3.863064836928248,-8.555679632568358,-4.5028336898013945
1757614291343012600,76.1680126953125,3.82809230774641,-9.87714684702754,-4.713927048259973
1757614291352967700,76.1779677734375,3.642780456276238,-11.05868419727087,-4.8488838002383705
1757614291362923500,76.18792358398437,3.861243466719985,-12.107597037875651,-4.693523727178573
1757614291372879600,76.19787963867188,4.541939957787096,-13.163826923495533,-4.484081935319304
1757614291382834700,76.20783471679688,5.367509614691138,-14.113968424224852,-4.559540204146504
1757614291392790500,76.21779052734375,5.917799564430117,-14.732228917384148,-5.03482605856657
1757614291402746600,76.22774658203124,6.019295360833406,-14.650525616687537,-5.90138209811449
1757614291412701700,76.23770166015625,5.820611694353818,-13.71887137428522,-6.823770499521493
1757614291422657800,76.24765771484375,5.429006578183174,-12.092283733409642,-7.69922997649312
1757614291432613600,76.25761352539062,4.944548406270146,-9.919303734755516,-8.092548910844325
1757614291442568700,76.26756860351563,4.673988128842413,-7.578700978317856,-7.754723900178075
1757614291452524500,76.27752465820312,4.669532026216388,-5.479941815650463,-7.024304762303829
1757614291462481000,76.28748095703125,4.75044066940397,-3.911190862193704,-6.189964062184095
1757614291472435700,76.29743579101563,4.661996370014548,-3.093203915503621,-5.358871550205349
1757614291482391600,76.3073916015625,4.017966060304642,-2.984455371493101,-4.763324408635497
1757614291492347600,76.31734765625,2.386398585189879,-2.913406151279807,-4.975180860421061
1757614291502303500,76.32730346679688,0.3124585142195225,-1.1878215450793503,-6.642755176201463
1757614291512258800,76.3372587890625,-1.1635784997045993,3.788680919334292,-9.719382050913572
1757614291522214700,76.34721459960937,-1.844875002491474,11.285322038602828,-11.879344747084378
1757614291532170800,76.35717065429688,-1.3872414168789982,17.983592181277274,-9.444807569408416
1757614291542125800,76.36712573242187,-0.4232674978911876,20.70693811751604,-2.497886491036415
1757614291552081700,76.37708154296875,-1.5149877990871667,20.21137578326464,4.825799861770868
1757614291562037800,76.38703784179687,-4.870999478195607,17.53920707655549,8.652152632373571
1757614291571992600,76.39699267578125,-8.693618030706048,12.348197938108443,7.983279557830095
1757614291581948700,76.40694873046876,-10.562637878894805,6.865630450129508,4.756871871495247
1757614291591904800,76.41690478515625,-9.336364145824312,3.5471155579835174,2.6475898535087703
1757614291601859600,76.42685961914063,-6.779556679263711,2.0373913785129782,1.0138298367857932
1757614291611815700,76.43681567382812,-4.607565983907878,2.277338198751211,0.0492944845229387
1757614291621771500,76.446771484375,-3.291341638538241,3.782720549625158,0.3119179776020347
1757614291631726800,76.45672680664063,-2.8242554571866987,5.584332748973369,1.3627967114523052
1757614291641682700,76.4666826171875,-2.187850820049644,6.82676208255291,2.496719493083656
1757614291651638800,76.476638671875,-0.947192003273964,6.855588948586583,3.299626651802659
1757614291661593600,76.48659350585937,0.4983759303674102,5.630833218863606,3.523226148352027
1757614291671549400,76.49654956054688,1.5356088545724749,3.83659768576324,3.33213249861002
1757614291681505800,76.506505859375,2.342954287999868,2.100972162541747,2.908081741386652
1757614291691460600,76.51646069335938,3.080275168086588,0.5885059908866882,2.4789906519085165
1757614291701416700,76.52641674804687,3.891650295421481,-0.7284960608571768,2.2578042078502474
1757614291711372500,76.53637255859375,4.782278115430474,-1.846025926092267,2.320644256514311
1757614291721327900,76.54632788085938,5.54016861307621,-2.730674671691656,2.624941676110029
1757614291731283700,76.55628369140625,6.039293023723364,-3.462044242158532,3.073171765822172
1757614291741239800,76.56623974609376,6.420254580804706,-4.030230498594046,3.622279812300205
1757614291751194600,76.57619458007812,6.765515294429659,-4.548389280056953,4.298920598235726
1757614291761150700,76.58615063476563,7.084315871152281,-5.056714649769663,5.096223068815469
1757614291771106800,76.59610693359375,7.257525489157437,-5.621616477707028,5.872693763768672
1757614291781061600,76.6060615234375,7.364794608265161,-6.217005213844776,6.656003364831209
1757614291791017700,76.61601782226562,7.318548989918828,-6.7687810182273385,7.341369309014081
1757614291800973600,76.6259736328125,7.478443783798814,-7.301262339553237,8.08392312131822
1757614291810928600,76.6359287109375,7.593695718353986,-7.881279903557896,9.017011780437826
1757614291820884700,76.645884765625,7.49695208491385,-8.623557821530103,9.994551575702427
1757614291830840600,76.65584057617187,7.150071661132574,-9.626914195096491,10.898256319427489
1757614291840795600,76.66579565429687,6.363672277361154,-10.780006372100114,11.19171553414464
1757614291850752500,76.67575244140625,5.292238977390528,-11.83678453925252,10.52184058908224
1757614291860708400,76.68570825195313,3.9682051273137326,-12.4699117621541,9.258606952404977
1757614291870663700,76.69566357421876,3.044149669477344,-12.282123583698272,7.780853197690844
1757614291880619500,76.70561962890625,2.654545371735096,-11.313287903892991,6.5029878090709445
1757614291890575600,76.71557568359376,2.2728742050796744,-9.871488675135373,5.558378223505616
1757614291900530700,76.72553076171874,1.5884937648028137,-7.890613549092412,4.784325695610046
1757614291910486500,76.73548657226563,0.9131757519036532,-4.89411118145287,3.704547176620364
1757614291920442600,76.74544262695312,0.8611223240613937,-0.0431406380683183,1.6004573204495012
1757614291930397400,76.7553974609375,2.5534564025670288,7.178471826186776,-1.4272710833199322
1757614291940353500,76.765353515625,4.836043607887626,15.03470730485916,-2.3242025335177776
1757614291950309600,76.7753095703125,4.447129045975208,22.312584677171703,2.8090596416205167
1757614291960265700,76.785265625,3.026153409537673,30.43186494307518,12.631998513120411
1757614291970220500,76.79522045898437,0.7352063721507788,34.27633555417061,17.770549150055647
1757614291980176400,76.80517626953124,-0.5982315583482384,26.720216410017013,10.297421592843532
1757614291990132500,76.81513256835937,-2.3859768526464697,19.465747970342637,1.2316104179233311
1757614292000087600,76.82508764648438,-4.381464441409707,16.526460943353175,-2.63053496607244
1757614292010043600,76.83504370117187,-4.571480232787132,13.669358863097427,-4.005466059693694
1757614292019999500,76.84499951171875,-4.401180364748836,11.212809760099647,-3.381998061019182
1757614292029954600,76.85495458984374,-3.652326867778599,9.91586323891282,-1.6994173147648572
1757614292039910700,76.86491064453125,-3.248930483788252,9.549530511164663,-0.7675792402282356
1757614292049866500,76.87486645507812,-3.7494279363542793,9.085766167712212,-0.4423050835773348
1757614292059821600,76.88482153320312,-3.619169571325183,8.257555348649621,0.0859057208225131
1757614292069777400,76.89477734375,-3.0231776085972784,7.191364040985703,0.6905459771692752
1757614292079733500,76.9047333984375,-2.4141300572022795,5.792540030601621,0.903073167823255
1757614292089688600,76.9146884765625,-1.9998641964122648,4.054114063006639,0.6353145038127899
1757614292099644700,76.92464477539062,-1.5422458083689212,2.0071979003012177,0.2239808970823883
1757614292109600500,76.9346005859375,-1.0503501799315214,-0.2906044098079204,-0.2493713589265942
1757614292119555600,76.9445556640625,-0.6870476136595011,-2.7802386208057404,-0.8816489792615174
1757614292129511700,76.95451171875,-0.3783127961382269,-5.234741312667727,-1.7338829173378645
1757614292139467500,76.96446752929687,-0.1026923127114772,-7.366335992488264,-2.4860335561573503
1757614292149422600,76.97442260742187,0.7062538339108229,-9.15617299836874,-2.81205648534894
1757614292159378400,76.98437841796876,2.3272055147260424,-10.739528231239316,-2.752522930884361
1757614292169334500,76.99433447265625,3.873901872763037,-12.19249533522129,-2.790736341683566
1757614292179289600,77.00428955078125,4.7611365432024,-13.47964760762453,-3.3465599601522085
1757614292189245400,77.01424536132812,5.16604713114798,-14.517723412394522,-4.354675803205371
1757614292199201500,77.02420141601563,5.655477246254682,-14.865151533186436,-5.609406984475255
1757614292209156600,77.03415649414063,6.147554076477885,-14.37475871052742,-6.892029796755313
1757614292219112700,77.04411279296875,6.383703842520713,-13.190709085202217,-8.166877883380652
1757614292229068500,77.05406860351563,6.385604707705975,-11.488541594946383,-9.424961297687888
1757614292239023400,77.0640234375,6.362918244123459,-9.286899565431476,-10.440905350148675
1757614292248979500,77.0739794921875,6.319212373387813,-6.764814452683925,-11.072072086632252
1757614292258935600,77.083935546875,6.504629731059074,-4.2285488388925785,-10.869448742616177
1757614292268890600,77.093890625,6.838564748549461,-2.497103231704235,-9.80653718727529
1757614292278846500,77.10384643554687,6.8128796876728535,-1.937870097053051,-8.391689678329229
1757614292288802600,77.11380249023438,5.913444291830063,-2.0393758303284644,-7.564088515597581
1757614292298757600,77.12375756835938,4.066035971468687,-1.199129705557227,-8.096358824521303
1757614292308713500,77.13371337890625,2.06098092841506,2.179869173645973,-10.019674326521155
1757614292318669600,77.14366967773438,0.8357719019666313,6.948772843718529,-11.300658723944425
1757614292328624400,77.15362426757812,0.1773784281224012,10.38548916787505,-9.488642034959792
1757614292338580700,77.16358081054688,-0.305129778766632,11.534999394738673,-5.406047727400064
1757614292348536600,77.17353662109375,-1.7260884640693663,12.048435239332914,-1.6799214639171958
1757614292358491600,77.18349169921875,-4.930664257824421,12.76712360740304,0.4004898488938808
1757614292368447500,77.19344750976562,-8.064165696924924,12.669499099475145,1.0082514521315693
1757614292378403600,77.20340356445313,-9.333808616122605,11.421049190431832,1.0075570401266216
1757614292388359400,77.213359375,-8.54815975845754,9.801979085579514,0.7664521358944475
1757614292398314500,77.223314453125,-6.856773774456977,8.987790362128615,0.5954293604090809
1757614292408270600,77.2332705078125,-5.398433745265007,9.129441643309592,0.869317467085272
1757614292418226400,77.24322631835938,-4.337801240772008,9.222624369397758,1.5909408656939863
1757614292428181800,77.253181640625,-3.435218194553256,8.748143401619792,2.468345923775434
1757614292438137600,77.2631376953125,-2.347545707443357,7.853388272547721,3.192364839218557
1757614292448093700,77.27309375,-1.1564800658762455,6.464424561920762,3.4831776310801503
1757614292458048500,77.28304858398438,-0.0962000280827283,4.685950661575794,3.361944284027815
1757614292468004400,77.29300439453125,1.0281529611706732,2.829191744545102,3.126550304788351
1757614292477960700,77.30296069335938,2.3162504054695368,1.1776526177644728,3.119942284825444
1757614292487915500,77.31291552734375,3.5820430789798494,-0.1747743831038475,3.395383612293005
1757614292497871600,77.32287158203125,4.586555344583094,-1.271141633322835,3.78272551806122
1757614292507827500,77.33282739257812,5.314886278006434,-2.16107621037066,4.255787558951973
1757614292517782500,77.34278247070313,5.982455284214019,-2.8289743024021385,4.805137597492337
1757614292527738600,77.35273852539062,6.607551760873198,-3.386812183302641,5.417725890234112
1757614292537694500,77.36269458007813,7.189387187954783,-3.989665848493576,6.04123889709413
1757614292547649500,77.3726494140625,7.6303154302209615,-4.602989469772577,6.7347606752038
1757614292557605600,77.38260571289062,7.85051827006936,-5.294372482287884,7.316128484773635
1757614292567561700,77.39256176757813,7.917220400989055,-6.021610067516565,7.675920412576198
1757614292577516500,77.4025166015625,7.90611390056312,-6.627460576435923,8.118450829342008
1757614292587472400,77.41247241210938,7.973221105152368,-6.983557156851887,8.73768338240385
1757614292597428500,77.42242846679687,8.089785291349887,-7.097113977926969,9.390028515994548
1757614292607383600,77.43238354492188,8.442261343181134,-7.294402975177764,10.262074385130404
1757614292617339600,77.44233959960937,8.646440684467553,-7.911196318393945,11.279946775305271
1757614292627295500,77.45229541015625,8.017243786752223,-9.044210168486831,12.081873398554324
1757614292637250600,77.46225048828126,6.688832452243566,-10.561793829286096,12.1587216604352
1757614292647206700,77.47220654296875,4.847445291867852,-12.057809801399706,11.335527792751789
1757614292657162500,77.48216259765626,2.8993741187959907,-12.685815443503856,9.775518364155293
1757614292667117600,77.49211767578124,1.4731833780586718,-12.047070965242384,8.12223268596828
1757614292677073400,77.50207348632813,0.9291881445497274,-10.666706156134603,6.625885874465108
1757614292687029500,77.51202954101562,1.152320023587346,-9.005781361371278,5.343114593625068
