time,seconds_elapsed,z,y,x
1758278303491736300,59.853736328125,-1.5220654823884368,-0.5214420409172773,2.862672281603515
1758278303501821200,59.8638212890625,-1.5205574159130453,-0.5079015913426875,2.4143328862980007
1758278303511906300,59.87390625,-1.494533624601364,-0.3419716089516877,2.1518635608673096
1758278303521991400,59.883991455078124,-1.4985563042461871,-0.0467933153569698,1.99853148650378
1758278303532075500,59.894075439453125,-1.424092599414289,0.3641869478911161,1.9409686475902796
1758278303542160400,59.90416040039062,-1.2388266329124569,0.8081266469329595,2.102227715560794
1758278303552245500,59.91424560546875,-0.8202592755362391,1.0330635295659305,2.2191972676888105
1758278303562330400,59.924330322265625,-0.3150470694079995,0.9937339742183684,2.2212153295129538
1758278303572415200,59.93441528320312,0.1436098679028451,0.8379600596606731,2.220678738418221
1758278303582500400,59.94450024414063,0.5014116448014975,0.4868155486941337,2.2533272085666654
1758278303592585200,59.954585205078125,0.8171867362231016,-0.0072620999574661,2.319183244051039
1758278303602669600,59.96466967773438,1.1080594415783882,-0.5661515357375144,2.38617237521857
1758278303612754400,59.97475439453125,1.2801193050265312,-0.9453466676682232,2.4031541974186896
1758278303622839600,59.98483959960937,1.4950832213081418,-1.0941472360819575,2.480192721174657
1758278303632924400,59.99492431640625,1.5808124165199695,-0.836203571382165,2.4754735836982724
1758278303643009500,60.005009521484375,1.3912315094284713,-0.2993570405840873,2.2887860599607226
1758278303653094400,60.01509448242187,0.9377017058730124,0.5732160672962665,1.833889059705287
1758278303663178500,60.02517846679687,0.3116874567817896,1.601100148397684,1.223758096987754
1758278303673263400,60.03526342773438,-0.3327069370001554,2.5933494370162484,0.6567264174148439
1758278303683348500,60.04534838867188,-0.8413695027779787,3.4193419955074784,0.2417794424928724
1758278303693433300,60.05543334960937,-1.222414061967656,3.9937382124990224,-0.039634968034923
1758278303703518500,60.0655185546875,-1.3831114774674176,4.286637455245852,-0.2132291283782571
1758278303713603600,60.075603515625,-1.4054226779967545,4.23192328376174,-0.2743235754840076
1758278303723688400,60.0856884765625,-1.388764388662577,3.8669413861006494,-0.3098564784949645
1758278303733772500,60.0957724609375,-1.292197280833125,3.2381805417150256,-0.3506245787456631
1758278303743857400,60.105857421875,-1.1356664104282854,2.4743285053163766,-0.5221554133510217
1758278303753942500,60.11594262695313,-0.9079156394183636,1.674837000259757,-0.6522956684257835
1758278303764027400,60.12602734375,-0.7147106966108083,0.908000395092368,-0.7072755051087588
1758278303774112500,60.13611254882812,-0.6771434747606515,0.1191699847817421,-0.8236241488594561
1758278303784197400,60.146197265625,-0.4906839145600795,-0.5512158324122428,-0.8117026057235897
1758278303794281500,60.15628149414062,-0.5187801647642627,-1.213510697609186,-0.7936911482147871
1758278303804366300,60.166366455078126,-0.579839211763069,-1.7680308322638272,-0.8188841877907514
1758278303814451500,60.17645141601562,-0.7492799787539989,-2.289565227639675,-0.8990465426556765
1758278303824536300,60.18653637695313,-0.8708060982078313,-2.708980726277828,-0.944096813737601
1758278303834621400,60.19662133789063,-1.0615157170683145,-3.0452988395124674,-1.0009452207714318
1758278303844706300,60.20670629882813,-1.166259117090702,-3.2300469196200368,-1.0131398086950183
1758278303854790400,60.216790283203125,-1.325415075302124,-3.305154475313425,-1.0289917500823735
1758278303864875300,60.22687524414062,-1.339307407054305,-3.1698756517738103,-1.0082602199599149
1758278303874960400,60.23696044921875,-1.38955992295444,-2.8544880983650684,-1.0698474920839072
1758278303885045200,60.24704516601562,-1.365210932987183,-2.4462527499109505,-1.175377074047923
1758278303895130400,60.25713037109375,-1.3202940790265798,-1.926359107479453,-1.1539680830553174
1758278303905215500,60.26721557617188,-1.396504481395334,-1.3793407267570494,-1.1079837459936737
1758278303915300400,60.27730029296875,-1.325405722951889,-0.785993725579977,-1.0144707650378346
1758278303925384200,60.28738427734375,-1.2338403689324855,-0.0702764822751283,-0.8412766368627548
1758278303935469300,60.29746923828125,-1.318070557758212,0.8147849357783794,-0.6205600022733211
1758278303945554400,60.30755444335937,-1.4664461787581442,1.844119800209999,-0.3919505686074495
1758278303955639300,60.31763940429688,-1.5534779810011383,2.7820494696199893,-0.115824181485176
1758278303965724400,60.32772436523437,-1.5208942466519773,3.580453763961792,0.130651163738966
1758278303975809300,60.33780932617187,-1.4936867985136806,4.209810820674896,0.1883463968604803
1758278303985893400,60.34789331054687,-1.4979397797830405,4.530722690463066,-0.0281388837695121
1758278303995978200,60.35797827148438,-1.463179285916686,4.3390310748279095,-0.5132447059363127
1758278304006063400,60.3680634765625,-1.3151304126530885,3.732872522872686,-1.0535013374388218
1758278304016148200,60.37814819335937,-1.1419636108763516,3.2617829510986804,-1.531360257217288
1758278304026233300,60.3882333984375,-1.247479894967377,2.77156723857224,-1.907222445333004
1758278304036318200,60.398318115234375,-1.3120438448145986,2.349432544103265,-2.091145180532336
1758278304046402600,60.40840258789063,-1.1565573688961566,2.1338550259679554,-2.315078439080715
1758278304056487400,60.4184873046875,-0.8234867131501435,2.105506883361936,-2.616593534481525
1758278304066572500,60.42857250976562,-0.4383183520287275,2.31954593988359,-2.8494360756725072
1758278304076657400,60.43865747070313,-0.1573556307911872,2.908018613022566,-2.983404985657334
1758278304086742500,60.44874243164063,-0.0773982969790697,3.748496792984009,-2.83324248124063
1758278304096827400,60.45882739257812,-0.21147300542593,4.633687390375137,-2.40483352880776
1758278304106911500,60.46891137695312,-0.3305713862761855,5.342119737368821,-1.9077642971247435
1758278304116996400,60.47899633789063,-0.2415684300906956,5.728322117713094,-1.3055220418304203
1758278304127081500,60.48908154296875,0.0182655784003436,5.593771608448028,-0.7257441318005323
1758278304137166600,60.49916650390625,0.4949608612269163,4.841301382285356,-0.5533353087842464
1758278304147251500,60.50925146484375,1.093546055318415,3.964681044840813,-0.8047329128414392
1758278304157336600,60.51933666992188,1.673971323341131,3.208381031256914,-1.3562860143840312
1758278304167420400,60.52942041015625,2.065934459169209,2.490698625358939,-2.0495009185016158
1758278304177505500,60.539505615234376,2.216191363871097,2.0234481933563946,-2.5383555718079207
1758278304187590400,60.54959033203125,2.0130293829336763,2.010134538275003,-2.6772838577657936
1758278304197675500,60.55967553710938,1.6158359452366828,2.2038883471369743,-2.359788518422842
1758278304207760400,60.56976049804688,1.225897447104007,2.391971709147096,-1.8051871352255344
1758278304217845500,60.57984545898437,0.92062314530015,2.560805596286058,-1.1081710852593183
1758278304227930400,60.58993041992188,0.6398671986810862,2.7804975640028715,-0.2287020803853869
1758278304238014500,60.60001440429688,0.3288730579257011,2.7829659999430176,0.6471487339913845
1758278304248099300,60.610099365234376,0.1209178513623774,2.516680623355508,1.2910343745335937
1758278304258184400,60.620184326171874,0.0644340398572385,1.959593268561363,1.659815956738591
1758278304268269300,60.63026928710938,0.0520994589410722,1.0735451775580644,1.6713666938006877
1758278304278354400,60.6403544921875,0.0583557428568601,-0.0311146847099065,1.469971722535789
1758278304288439600,60.650439453125,0.0181377142369747,-1.0772060381531714,1.130993450181186
1758278304298523400,60.6605234375,-0.115068979203701,-2.008990044414997,0.8118219943195581
1758278304308608300,60.67060815429687,-0.3592939151525497,-2.8460429261028763,0.5434413990184664
1758278304318693400,60.680693359375,-0.6677063688516617,-3.544786238253117,0.3322938261546194
1758278304328778500,60.690778564453126,-0.9631243164211511,-4.108032700198889,0.0791140148557722
1758278304338863400,60.70086328125,-1.2291501652896404,-4.628644720032811,-0.1709903345204889
1758278304348948500,60.71094848632813,-1.5134043292880055,-5.011024327218532,-0.5053194658949971
1758278304359032300,60.7210322265625,-1.6659611814953386,-5.340263880369067,-0.9264723097197712
1758278304369117400,60.73111743164063,-1.639366458427906,-5.521359867709875,-1.27814479008317
1758278304379202300,60.74120239257813,-1.4973364070624111,-5.514177262729406,-1.5413405300922691
1758278304389287400,60.75128735351562,-1.32874217389822,-5.308339048320055,-1.686633236515522
1758278304399372300,60.761372314453126,-1.1630676275730132,-4.8321547837555405,-1.6522463982671498
1758278304409457400,60.77145751953125,-1.0349825149297711,-4.127753884235024,-1.4007644769273695
1758278304419541200,60.781541259765625,-0.987725600649044,-3.2441163615047928,-1.0030075601287185
1758278304429626400,60.79162646484375,-0.9473135838270188,-2.2199901716321704,-0.4819289091637357
1758278304439711200,60.80171118164063,-0.8321884174566715,-1.1474345896333455,0.1405164684647694
1758278304449796400,60.81179638671875,-0.7145336595434695,-0.1779687952309847,0.7752635111205279
1758278304459881200,60.82188110351562,-0.6330285117674619,0.6094938338577747,1.4025427386462688
1758278304469966300,60.83196630859375,-0.4602303971726447,1.2556085486263036,2.0604823312431573
1758278304480050400,60.84205053710937,-0.259821806596592,1.8165987560778856,2.697485518795252
1758278304490135600,60.85213549804688,0.0764803784165531,2.3637363792657853,3.3325632912427183
1758278304500220400,60.862220458984375,0.5237656615592539,2.8556425290971994,3.932947351449728
1758278304510305300,60.87230517578125,1.0453425809025765,3.207033708301186,4.57466266221553
1758278304520390400,60.88239038085938,1.3861599052526057,3.458715389996766,5.464036390510201
1758278304530475300,60.89247534179688,1.5369402493067086,3.555380112981796,6.1882595963537685
1758278304540560400,60.90256030273437,1.5592890053674575,3.259748814922571,6.486084020543098
1758278304550644500,60.91264453125,1.5196965613000093,2.723699571982026,6.547002307364345
1758278304560729600,60.9227294921875,1.347513509863615,1.9832681586593388,6.320775384920835
1758278304570814500,60.932814453125,1.230236206960678,1.2650082451343536,5.83144522305727
1758278304580899600,60.942899658203125,1.1148264514952897,0.7037310374349355,5.248114004459977
1758278304590984400,60.952984375,0.8913291001461445,0.4588678035825491,4.72989735532999
1758278304601069600,60.96306958007813,0.4958204006657004,0.3897551043897867,4.252853259065747
1758278304611153400,60.9731533203125,0.1787155219450593,0.3242418909937143,3.696182376118004
1758278304621238500,60.98323852539063,0.0304417538844048,0.3581897533029318,3.340561596520245
1758278304631323400,60.99332348632812,-0.3559872748225927,0.6289245105147362,3.0359920819848774
1758278304641408500,61.00340844726563,-0.6804732037052512,1.038217843589187,2.617694773721695
1758278304651493400,61.013493408203125,-0.8900374529004097,1.371209442749619,2.1882520943269133
1758278304661578500,61.02357861328125,-0.9933706938639284,1.4480214642733336,1.6321461517855524
1758278304671662300,61.03366235351562,-0.8753355583310126,1.3296172031670808,1.0762497603416443
1758278304681747500,61.04374755859375,-0.7141881340414286,1.007563762128353,0.5944447332859039
1758278304691832300,61.05383227539063,-0.4684112924754619,0.6172738202095032,0.3499213989123702
1758278304701917400,61.06391748046875,-0.1633211150668561,0.2117179200977086,0.3181853674337268
1758278304712002600,61.07400244140625,-0.0208949039906263,-0.0836374836295843,0.5156038362830877
1758278304722087400,61.08408740234375,-0.0282436593182384,-0.2908253590822219,0.8850549883127212
1758278304732172500,61.09417260742188,-0.0612210691601037,-0.3961988737016916,1.3206786944299935
1758278304742256400,61.10425634765625,-0.0222562554717063,-0.3117185095071792,1.7066192089676857
1758278304752341500,61.11434155273437,0.060476388272643,0.0166068514078855,1.9153094518072904
1758278304762426400,61.12442626953125,0.0884532864134758,0.573836245021224,1.8966376306936144
1758278304772511500,61.134511474609376,0.0731371324032545,1.3062813357651233,1.7002568343289195
1758278304782596400,61.14459643554687,0.0013689502656459,2.040331523618102,1.422773187378794
1758278304792681500,61.15468139648438,-0.0372585577597841,2.66477742741406,1.189507160078734
1758278304802765300,61.16476538085937,-0.119998288832046,3.131764824566245,1.0345770028688013
1758278304812850400,61.17485034179688,-0.1119119764775037,3.409701475980877,0.9741793789207934
1758278304822935300,61.18493530273437,-0.0380225644022226,3.504205221539736,1.0152383884094656
1758278304833020400,61.1950205078125,0.0018844985723495,3.389322120296955,1.0350806415420024
1758278304843105300,61.205105224609376,0.1321335477838292,3.037197950643301,1.0075503911901265
1758278304853190400,61.2151904296875,0.2100620061168447,2.401700491479039,0.8869304267957806
1758278304863274200,61.22527416992188,0.2815665688822045,1.565778659647703,0.6789690827526151
1758278304873359400,61.235359375,0.3016729528436437,0.6772019269496202,0.4194653291292488
1758278304883444200,61.2454443359375,0.1630137661507353,-0.1548883638948202,0.0668662354402244
1758278304893529300,61.255529296875,-0.0345412250924855,-0.8848200105130672,-0.2406809797316789
1758278304903614200,61.2656142578125,-0.2619705090630799,-1.5163310303896664,-0.3965336586140096
1758278304913699300,61.27569921875,-0.4365327107209712,-2.016125303122401,-0.6351916080854833
1758278304923783400,61.28578344726562,-0.649756870663166,-2.3709563936471936,-0.85582334087044
1758278304933868300,61.29586840820313,-0.921786928382516,-2.6609353650331498,-1.0259165804207324
1758278304943953400,61.305953369140624,-1.0096177720487116,-2.853341850939393,-1.176531797040999
1758278304954038300,61.31603833007812,-1.2365711090706288,-2.8765654901385305,-1.3008332994922995
1758278304964123400,61.32612329101563,-1.527529300752282,-2.774498615849018,-1.458292975179851
1758278304974208300,61.33620825195312,-1.7096815191477537,-2.497068744912744,-1.561502589763701
1758278304984293400,61.34629345703125,-1.8536944148935377,-2.136783480635285,-1.6615110702186822
1758278304994377500,61.35637744140625,-1.816710399758816,-1.7516262254297732,-1.7315034748554228
1758278305004462600,61.36646264648437,-1.784160567679256,-1.2261767024368049,-1.7304267855346205
1758278305014547500,61.37654736328125,-2.0803715653225776,-0.7044318791806697,-1.7198314495012164
1758278305024632600,61.386632568359374,-2.416183190339804,-0.1100631337404251,-1.611590855012834
1758278305034717400,61.39671752929687,-2.6464631875663995,0.5521557436108588,-1.2866542597532271
1758278305044802300,61.40680224609375,-3.0255051747620105,0.9692226332962512,-0.8356295708864927
1758278305054886400,61.41688647460938,-3.286817439112067,1.2626117053866386,-0.5947060145705938
1758278305064971500,61.42697143554688,-3.246532190474868,1.3067992221593856,-0.5736269861847162
1758278305075056400,61.43705639648437,-3.1284272045761345,1.165975623974204,-0.5048112241119146
1758278305085141500,61.4471416015625,-2.7490044013693926,1.3122504733026026,-0.134222592484951
1758278305095226400,61.457226318359375,-1.957113434444368,1.736982783049345,0.4386450997650623
1758278305105311500,61.4673115234375,-1.330590432113409,2.112900500744581,0.9980208577573298
1758278305115395300,61.47739526367187,-0.6159907946616411,2.072045927786827,1.398314307296276
1758278305125480400,61.48748046875,0.1974681532099843,1.556034095224738,0.9502069671809672
1758278305135565300,61.4975654296875,1.0262295918926596,0.7687146739989519,-0.339943902516365
1758278305145650400,61.507650390625,1.427132405501604,0.2309223867833614,-1.8216396728545423
1758278305155735600,61.51773559570312,0.940686566902697,0.6286462780952453,-2.7205729643940924
1758278305165820400,61.5278203125,0.1614195192292332,2.045648334726691,-3.03373056679368
1758278305175904500,61.53790454101563,-0.1681058651253581,3.660847735625506,-3.072660893690586
1758278305185989400,61.5479892578125,0.066427697892487,4.748270047366619,-3.002072276726365
1758278305196074500,61.55807446289062,0.4484232741966843,5.149321621796489,-3.0160961259037253
1758278305206159400,61.56815942382813,0.801723209631443,5.161323025235533,-2.9980589494317766
1758278305216244500,61.578244384765625,0.9778218270763754,5.221258146238327,-2.81058290566504
1758278305226331000,61.58833081054688,1.075740934036672,5.484546679097414,-2.388611877325177
1758278305236416000,61.598416015625,1.0741834754616022,5.801456912028789,-1.7925497719705104
1758278305246500000,61.6085,1.1008914496451616,5.605053465440869,-1.3389333130449057
1758278305256585200,61.618585205078126,1.1789192766994236,4.678052017280459,-1.3724182340174913
1758278305266670000,61.62867016601562,1.2558832739144563,3.395788101440668,-1.9536118560642
1758278305276755200,61.63875512695312,1.2201359609678386,2.299173598462343,-2.80110780583322
1758278305286840000,61.64884008789063,0.9856380537852644,1.620106462162733,-3.704979138296842
1758278305296925200,61.65892529296875,0.6364394161894917,1.3265420335054396,-4.466109640777111
1758278305307009000,61.669009033203125,0.3861392519801855,1.4154337844014169,-4.87861316806972
1758278305317094100,61.67909423828125,0.1872936729371547,1.8289099561184643,-4.922569798696041
1758278305327179000,61.68917895507813,-0.0067944824457168,2.475333298444748,-4.5237779858917
1758278305337264000,61.69926416015625,-0.3455336853474378,3.143095196875929,-3.698066874690354
1758278305347349200,61.70934936523437,-0.8572942902058363,3.5414480337411165,-2.7003508450984954
1758278305357434000,61.71943408203125,-1.4763286903470754,3.584772796204686,-1.81579766882807
1758278305367519200,61.729519287109376,-1.985613845002651,3.3208827903211118,-1.2210197580650448
1758278305377603000,61.73960302734375,-2.238924296943843,2.770692793825269,-0.971880454328656
1758278305387688200,61.74968823242188,-2.2237202980712056,2.06886963583827,-1.031648402070999
1758278305397773000,61.75977294921875,-2.0969465602874755,1.3096546115905046,-1.2216864052802323
1758278305407858200,61.76985815429688,-2.0618767082110048,0.4953033910542726,-1.4550386495590208
1758278305417943000,61.77994311523437,-2.16236215852797,-0.2949965072870254,-1.631296841479838
1758278305428028200,61.79002807617187,-2.38157964060083,-0.982479589754343,-1.6731269814714789
1758278305438112000,61.80011206054687,-2.527894091287255,-1.6212895344674587,-1.5504793837070463
1758278305448197000,61.81019702148438,-2.60730694295913,-2.1693284904092547,-1.3873000151984394
1758278305458282000,61.82028198242188,-2.5983155349910256,-2.6628876681447027,-1.1754038159243765
1758278305468367000,61.8303671875,-2.584425541326404,-3.08268719766438,-0.885554316136986
1758278305478452000,61.84045190429688,-2.621069803112745,-3.3879140070647,-0.5076850259825587
1758278305488537000,61.850537109375,-2.535539053082466,-3.5145278781116005,0.0250175368785858
1758278305498622200,61.86062231445312,-2.3713497768789527,-3.4062679944008587,0.7068530419129878
1758278305508706000,61.8707060546875,-2.467633391591906,-3.2866046731442213,1.365745916646719
1758278305518791000,61.880791015625,-2.3334219050228597,-2.9866029049158094,2.0864571688465774
1758278305528876000,61.8908759765625,-2.198628234651685,-2.5151649580955504,2.846068060544133
1758278305538961200,61.90096118164063,-2.1610294486194848,-2.0707968045085665,3.491041496323049
1758278305549046000,61.9110458984375,-1.8482517854481932,-1.525569398856163,4.109137738831341
1758278305559131100,61.92113110351563,-1.395344936096668,-0.9082084848850964,4.757105972512066
1758278305569215000,61.93121508789063,-1.0586047980576754,-0.4317974258273839,5.173588632568717
1758278305579300000,61.941300048828126,-0.5597019942719489,0.0166863463848829,5.501141255545615
1758278305589385000,61.95138500976562,0.0205739284079521,0.4447819950848817,5.5917725435853
1758278305599470000,61.96146997070313,0.5408323124986142,0.9229863673001528,5.640394243413209
1758278305609555000,61.97155493164063,0.9488613247256724,1.3884832336336372,5.615483089518547
1758278305619640000,61.98164013671875,1.409659292653203,1.911450292161107,5.62168662033379
1758278305629725000,61.99172485351563,1.807221271401644,2.594605574557185,5.899280741921067
1758278305639809000,62.00180908203125,2.0268799213707447,3.292746244639158,6.2556058703958985
1758278305649894000,62.011893798828126,2.1908388959497214,3.6245524334073065,6.292199863299727
1758278305659979000,62.02197900390625,2.401285334806889,3.44125279854238,6.017775603920221
1758278305670063900,62.03206396484375,2.734557650604844,3.024472909104824,5.561254071202874
1758278305680149000,62.04214892578125,2.834055551189184,2.694962722319364,4.450412305429578
1758278305690233900,62.05223388671875,2.6795480033054946,2.596018948486447,2.94900294983983
1758278305700319000,62.06231909179687,2.3225847230575978,2.602146491456032,1.7198010543629525
1758278305710403000,62.072403076171874,1.6362661543250083,2.4525889671951533,1.320351654432714
1758278305720488200,62.08248828125,0.915221578517556,2.093969005781412,1.7444222854003308
1758278305730573000,62.09257299804688,0.2458145432278513,1.6395850696146488,2.540797412002086
1758278305740658000,62.10265795898437,-0.2067535756886005,1.34021224693954,3.367966320796311
1758278305750743000,62.11274291992188,-0.5218051751412451,1.0435276404350995,3.5809637593105434
1758278305760828000,62.122827880859376,-0.8414885260477661,0.6558990266799927,3.2455475633516904
1758278305770912300,62.13291235351563,-1.0395910316385328,0.08675999956429,2.5869044986605645
1758278305780997000,62.1429970703125,-1.049290587875992,-0.2781447412073612,2.1182003607183693
1758278305791082200,62.153082275390624,-1.13713122228384,-0.2596814482778311,2.0257088317647574
1758278305801167000,62.1631669921875,-1.293168756213784,-0.240527834996581,2.229552072964609
1758278305811252200,62.173252197265626,-1.3220605041772129,-0.4121311868488788,2.3254227229624984
1758278305821337000,62.18333715820312,-1.3342916247189045,-0.7610626979410647,2.435053310504556
1758278305831422200,62.19342211914063,-1.2905654418475925,-1.0694985325157642,2.643749544693529
1758278305841506000,62.20350610351562,-1.1804277815662323,-1.1668769567281008,2.938904165151715
1758278305851591200,62.21359106445313,-0.9784032802261412,-0.9617179567545652,3.098264706024527
1758278305861676000,62.223676025390624,-0.7467828281760215,-0.4843740007609128,3.0553374184459448
1758278305871761200,62.23376123046875,-0.5028017839856446,0.213097391757369,2.8028698470696805
1758278305881846000,62.243845947265626,-0.358919382751733,0.9990420174986124,2.413684359261393
1758278305891931100,62.25393115234375,-0.3479119587861001,1.7491192110449074,1.979856888911128
1758278305902016300,62.26401635742187,-0.4124100037902593,2.418890111210942,1.589802655444294
1758278305912100000,62.27410009765625,-0.5499129331201315,3.026854251283407,1.248089843559265
1758278305922185200,62.28418530273437,-0.659656333386898,3.471785883972049,0.9753500301353633
1758278305932270000,62.29427001953125,-0.7377567872859537,3.6818876010447736,0.7667373825766146
1758278305942355200,62.304355224609374,-0.7618547981668263,3.529460658827424,0.6006228373989463
1758278305952440000,62.31444018554687,-0.7359610629756003,3.057222501540184,0.4481414615806192
1758278305962525200,62.324525146484376,-0.6106231301486492,2.3088620487838982,0.2860044051991775
1758278305972610000,62.334610107421874,-0.5244814086131752,1.4559984345018864,0.0731183546375483
1758278305982694100,62.34469409179688,-0.520717233774066,0.6116647481560706,-0.1622075278017669
1758278305992779000,62.35477905273437,-0.6385216292910277,-0.1949871500492095,-0.486447592164576
1758278306002864000,62.36486401367188,-0.7270213121294975,-0.8711644101262092,-0.6926460181884467
1758278306012949000,62.374948974609374,-0.5726175168812274,-1.4332564413398503,-0.8906430175781249
1758278306023034000,62.3850341796875,-0.4989310069669038,-1.838457536664605,-1.0437151258312165
1758278306033119000,62.39511889648438,-0.4580804525971412,-2.095471811559796,-1.177454757104814
1758278306043203000,62.405203125,-0.5560455906562507,-2.174773311811685,-1.2745192930623888
1758278306053288000,62.41528784179688,-0.7483890943288802,-2.232259286096692,-1.3634677425816657
1758278306063373000,62.425373046875,-0.6328652109645306,-2.25469908144176,-1.4401713352948426
1758278306073458000,62.4354580078125,-0.4745568094931542,-2.149832931822538,-1.4611533330470323
1758278306083543000,62.44554296875,-0.6697640320338308,-1.9785873073667288,-1.506063318875432
1758278306093628200,62.45562817382813,-0.8398102175720036,-1.6890215929567811,-1.5497420093432068
1758278306103713000,62.46571313476562,-0.9100291244409978,-1.2803367471694946,-1.4694032749980688
1758278306113796900,62.475796875,-1.1256734242022035,-0.8447948741167783,-1.38735919803977
1758278306123882000,62.48588208007813,-1.4491023913778365,-0.3801297824323177,-1.3328063545972109
1758278306133967000,62.495967041015625,-1.580800141560286,0.1065174239575862,-1.2206623229295015
1758278306144052000,62.50605200195312,-1.7964836042881012,0.518831566157937,-1.0666016420304774
1758278306154137000,62.51613720703125,-2.0190598952695726,0.8509937287569046,-0.9702262573808432
1758278306164222000,62.526221923828125,-1.918591396087408,1.3631576537191867,-0.8941489798724651
1758278306174307000,62.53630712890625,-1.8159435070395469,1.977137108558416,-0.945543067023158
1758278306184391000,62.54639086914062,-1.9311440036684275,2.429569326135516,-0.9840057764083148
1758278306194476000,62.55647607421875,-2.1444670208752155,2.8018682688117025,-0.9075666798502208
1758278306204561000,62.566560791015625,-2.2942820270285007,2.972031943249702,-0.7787924158990382
1758278306214646000,62.57664599609375,-2.318627655994892,3.011159838545322,-0.7087199317634105
1758278306224730000,62.586730224609376,-2.0121552304476498,3.0084406427145,-0.8792425026416778
1758278306234815000,62.59681494140625,-1.5469839428067207,2.8210131142646078,-1.2329174088686703
1758278306244900000,62.60690014648438,-1.2674053694039582,2.496785251796245,-1.8136989429831505
1758278306254984000,62.61698388671875,-2.0888836653411387,1.8391706533700227,-2.2508318846195934
1758278306265069000,62.62706909179688,-3.1076749239265915,0.6115232938587665,-1.733789539965987
1758278306275154000,62.63715380859375,-2.565126382094621,-0.0220031574934721,-1.240268356153369
1758278306285239000,62.64723901367187,-1.5325485902190208,0.28943010533154,-1.293286829635501
1758278306295324000,62.657323974609376,-0.7139034718811511,0.8890887738734483,-1.5821102012455464
1758278306305409000,62.66740893554688,0.2114673063375055,1.711543805888295,-1.936366706752777
1758278306315494000,62.67749389648438,0.9342465969830752,2.6714655268758536,-2.25218096114099
1758278306325578000,62.68757788085937,1.3060808447569607,3.2934301352500914,-2.8741882396131757
1758278306335662800,62.69766284179688,1.600130426582694,3.910851839497685,-3.5079672044217585
1758278306345748000,62.707748046875,1.8285533977657555,4.961215463432669,-3.425449080210924
1758278306355833000,62.7178330078125,2.036123112142831,6.235697639355063,-2.496280809405446
1758278306365918000,62.72791796875,2.2632402614243325,6.537562278845906,-1.4703063613176346
1758278306376003000,62.738003173828126,2.4458612663753327,5.249629669719934,-0.877830297756195
1758278306386088000,62.748087890625,2.879535445860028,3.5228111378103493,-0.8666074774742126
1758278306396173000,62.75817309570313,3.406046460604668,2.5635797371745106,-1.09703360517323
1758278306406257000,62.7682568359375,3.586279693636298,2.5671353838294744,-1.3686182572126389
1758278306416342000,62.77834204101563,3.1496400884747504,3.113805389505625,-1.4559960964143277
1758278306426427000,62.78842700195312,2.3351263708531853,3.685343294456601,-1.32273679600358
1758278306436512000,62.79851196289062,1.4143793069124222,3.8887808774650097,-1.1529384477466345
1758278306446596900,62.80859692382813,0.7873193481605499,3.87453198736012,-1.0927475984171031
1758278306456682000,62.81868188476562,0.505613699601218,3.731828566777706,-1.053538162317872
1758278306466766800,62.82876684570312,0.4194786270022392,3.410152726879716,-0.8007377057254313
1758278306476851000,62.83885083007812,0.4064518991034477,2.8749487025916576,-0.3816226513385772
1758278306486935800,62.84893579101563,0.4353847097296267,2.229058444228768,0.0020385200902819
1758278306497021000,62.85902099609375,0.3392144191980362,1.4677940862357617,0.1911357353180647
1758278306507105800,62.86910571289062,0.105761125697568,0.6258838276445865,0.1739741726368665
1758278306517191000,62.87919091796875,-0.1957387721341103,-0.2125368352651596,0.0689823508113622
1758278306527276000,62.88927612304688,-0.6521393818855286,-0.9964701211839914,-0.1245654140844941
1758278306537360000,62.89935986328125,-1.004267058670521,-1.712965363124013,-0.3188388629063963
1758278306547444700,62.90944482421875,-1.1312847612779586,-2.2519524130821225,-0.4159542522683739
1758278306557529900,62.91952978515625,-1.2063549806356428,-2.7045553110510108,-0.424432450017333
1758278306567615000,62.92961499023438,-1.2701824329018592,-3.109460053777694,-0.5293351322546601
1758278306577699800,62.93969995117188,-1.356778766337037,-3.503047868198156,-0.7117034776188432
1758278306587785000,62.94978491210937,-1.3890250854253767,-3.762036073514819,-0.9069948713116348
1758278306597869800,62.95986987304688,-1.327597095516324,-3.8382968908965593,-1.0057888614103196
1758278306607955000,62.96995483398437,-1.1579383018605411,-3.7428631710112095,-0.8841099625475705
1758278306618038800,62.980038818359375,-1.1034493904996665,-3.5454981859147545,-0.7078383266232907
1758278306628124000,62.9901240234375,-1.0300023884296416,-3.157930362436175,-0.3699549368333071
1758278306638208800,63.00020874023438,-0.8983301380146295,-2.5306524500846863,0.1245413025565445
1758278306648294000,63.0102939453125,-0.9754683227527886,-1.817099691337347,0.5325791191445663
1758278306658378800,63.02037866210937,-1.1160153690189123,-0.9663549689054488,0.9338159504808484
1758278306668463900,63.0304638671875,-1.1921059444002806,-0.0215051448434591,1.343753572808206
1758278306678549000,63.04054907226563,-1.2333246744953097,0.7981243083566427,1.8010249009795485
1758278306688633000,63.05063305664063,-1.3457418240159749,1.424532452136278,2.324968841715157
1758278306698718000,63.060718017578125,-1.3556810342282055,1.769267680582404,2.9621619988813994
1758278306708802800,63.070802734375,-1.3290361884087325,1.911639092731476,3.690626787817478
1758278306718888000,63.08088793945313,-1.3576071799851954,1.977165750131011,4.516982334402203
1758278306728972800,63.09097290039063,-1.2432495639212429,1.7722744611829515,5.306839165151119
1758278306739058000,63.10105786132812,-0.8469332013197243,1.5320084919929504,6.028298166978359
1758278306749142800,63.11114282226563,-0.3899345526099205,1.221782266870141,6.5168579289913176
1758278306759227100,63.12122705078125,0.0500394576713442,0.8357266015201806,6.706726420852542
1758278306769312000,63.13131201171875,0.4344543700769543,0.366141589090228,6.490008500510454
1758278306779397000,63.14139721679688,0.7096177573859691,-0.1852326487541198,5.89427781906724
1758278306789482000,63.15148193359375,0.755944624274969,-0.7463426831930875,5.130112478935718
1758278306799567000,63.16156713867188,0.7866001670405268,-1.0723650278627872,4.295094610206783
1758278306809652000,63.17165185546875,0.6231397896334528,-1.0183458529055118,3.407727545559406
1758278306819736800,63.18173681640625,0.3541448618263006,-0.611811463150382,2.493153325034678
1758278306829821000,63.19182104492187,0.0521443209961056,-0.1232698213160038,1.7786211998611687
1758278306839906000,63.20190600585938,-0.2363829902768135,0.4339367759436369,1.2731164405271411
1758278306849991000,63.21199096679688,-0.5312824669301509,1.0938514680057765,0.9861465878292918
1758278306860076000,63.22207592773437,-0.7312526660889387,1.6853472883582117,0.7312029817283153
1758278306870161200,63.2321611328125,-0.8628723825991154,2.020823105549812,0.5006991126179695
1758278306880246000,63.24224609375,-0.8902771068751811,2.004866827005148,0.2751777080953121
1758278306890331100,63.2523310546875,-0.742393653306365,1.6765514029622075,0.1474067759677767
1758278306900415000,63.2624150390625,-0.4638078903332352,1.1068483122229575,0.2800911991000175
1758278306910500000,63.2725,-0.2223546110548079,0.2880032873988151,0.5220253937631845
1758278306920585000,63.2825849609375,-0.107983697117865,-0.5998918927758932,0.8015712339401244
1758278306930670000,63.292670166015625,-0.0428512997329235,-1.3281541448771952,1.1165089977547529
1758278306940755000,63.3027548828125,0.0049684360623359,-1.804288725081086,1.5376888757169245
1758278306950840000,63.31284008789063,0.0210104931943118,-1.9592589220404624,1.9157891981482504
1758278306960925000,63.322925048828125,0.0527843724653124,-1.7019459564596413,2.340211711293459
1758278306971009000,63.333009033203126,0.083453359234333,-1.0012070865780114,2.657731600555777
1758278306981094000,63.343093994140624,0.0946603974252939,0.038053544062376,2.840387092298269
1758278306991179000,63.35317895507813,0.0195000886313617,1.2516542580425738,2.8427514833420515
1758278307001263900,63.363263916015626,-0.182642778391391,2.4257249256670472,2.7320336850851774
1758278307011349000,63.37334887695312,-0.425980921568349,3.3988375521391627,2.5310236214846373
1758278307021433900,63.38343383789063,-0.5853612631201743,4.011225938394666,2.357289687344432
1758278307031519000,63.39351904296875,-0.6158779819369316,4.307432405993342,2.260666757674515
1758278307041602800,63.40360278320313,-0.5395845043946057,4.229196489146352,2.231810665546357
1758278307051688000,63.41368798828125,-0.3614356764215976,3.9545314067482944,2.223173477843404
1758278307061772800,63.42377270507812,-0.2792027258276939,3.521366784220933,2.0274701423488555
1758278307071858000,63.43385791015625,-0.1816624621171504,2.934211623421312,1.6697186343327164
1758278307081943000,63.443943115234376,0.0150624715100973,2.21329622695148,1.2916887467890976
1758278307092028000,63.45402783203125,0.1751010943075641,1.5001801060557365,0.9375677042298018
1758278307102113000,63.46411303710938,0.1023520479064434,0.822628050494194,0.6596430355139077
1758278307112198000,63.47419799804688,-0.1058375519346445,0.1989467013299465,0.3742947926685214
1758278307122282000,63.48428198242188,-0.2946002014458179,-0.3726607617259025,0.0484112719476223
1758278307132366800,63.494366943359374,-0.5020487005960196,-0.811025875505805,-0.2518975164033472
1758278307142452000,63.50445190429687,-0.7153882305461913,-1.1436246759563684,-0.5677566328465938
1758278307152536800,63.514536865234376,-1.008142438799143,-1.4020657687842846,-0.8508215870603919
1758278307162622000,63.5246220703125,-1.331772919896245,-1.533508959683776,-1.1101631358593702
1758278307172706800,63.53470678710938,-1.6171955431520937,-1.5725854170531033,-1.3993775526136158
1758278307182792000,63.5447919921875,-1.8807815976530315,-1.4986603491425514,-1.6738091185167432
1758278307192875800,63.55487573242188,-2.26351527897343,-1.3268553372383116,-1.884288144469261
1758278307202961000,63.5649609375,-2.5624504408836364,-1.0762345627725125,-1.9907079532712697
1758278307213045800,63.57504565429687,-2.604075998213887,-0.8049187908023595,-2.108997648087144
1758278307223130600,63.58513061523438,-2.662707635402679,-0.5373848754584789,-2.1379209602326155
1758278307233215700,63.5952158203125,-2.8712124386727806,-0.1156540856152772,-2.1222472980216143
1758278307243300600,63.60530053710937,-2.7746061678767204,0.6106137777984142,-2.095515066179633
1758278307253385700,63.6153857421875,-2.531851889002323,1.552410644030571,-2.0020874254196883
1758278307263469800,63.6254697265625,-2.6090514485389,2.3531366593182086,-1.719259494832158
1758278307273554700,63.6355546875,-2.691227042922377,2.903032641303539,-1.3074760985076426
1758278307283639600,63.6456396484375,-2.6317127776801583,3.0126012695252893,-1.0555904186725615
1758278307293724700,63.655724609375,-2.415289164109528,2.799796723234653,-1.2863824570745228
1758278307303809800,63.66580981445313,-2.243389167398214,2.687393163847923,-1.6697890692204236
1758278307313894700,63.675894775390624,-2.14844819946587,2.812697121340036,-1.9897388159781693
1758278307323979800,63.68597973632812,-2.073250042879581,3.024543636253476,-2.2544237716317177
1758278307334063900,63.69606396484375,-2.013153301574289,2.989955722475052,-2.691810980290174
1758278307344149000,63.70614892578125,-2.903157728987932,2.254221527057886,-2.9570360341697928
1758278307354233900,63.71623388671875,-3.2698809173583983,1.191156826981902,-2.512656774666905
1758278307364318700,63.72631860351562,-2.2429002148374915,0.7916378689467907,-2.44504103603363
1758278307374403800,63.73640380859375,-1.1457657796382903,0.8009101396828889,-2.8229969815582034
1758278307384488700,63.74648876953125,-0.4071396621719002,0.9851081846922636,-3.076371438646316
1758278307394573600,63.75657348632812,-0.053128363597393,1.2490946366876363,-3.2161925817906853
1758278307404658000,63.766657958984375,0.0256005974635481,1.5480816749155522,-3.4507957029134038
1758278307414742800,63.77674267578125,0.0610632482498884,2.00508660723567,-3.726981711268425
1758278307424828000,63.78682788085938,0.0864905349731445,2.807767848244309,-3.730903853148222
1758278307434912800,63.79691284179688,0.0837307148709893,3.86882354658544,-3.298717720264196
1758278307444998000,63.80699780273437,0.0866752438902854,5.025443313193321,-2.3934452888309954
1758278307455082800,63.81708276367188,0.12593436435014,6.032835225886106,-1.214351824608445
1758278307465168000,63.82716796875,0.2190948786064982,6.221235398760437,-0.0730377636820077
1758278307475251700,63.837251708984375,0.5468839406877756,5.379712093660235,0.6477852783292531
1758278307485336800,63.8473369140625,1.003518870651722,4.015737862861156,0.6982213341027498
1758278307495422000,63.857421875,1.5719593941092491,2.801374932336807,0.2910316953092813
1758278307505506800,63.8675068359375,1.978691936784983,1.9625585481077432,-0.3191992206513881
1758278307515592000,63.877592041015625,2.1537416296988723,1.429463478797674,-0.9991755807504056
1758278307525676800,63.8876767578125,1.9988076730966569,1.1405115123718976,-1.5416779453530909
1758278307535762000,63.89776196289063,1.610939989888668,1.0134557427763935,-1.7616814632371067
1758278307545846800,63.9078466796875,1.0759124912112952,1.0358575441986322,-1.7134876334324478
1758278307555931000,63.917930908203125,0.6044657765626907,1.2227566648602486,-1.578048943156004
1758278307566015700,63.928015625,0.1030304586246609,1.3583704194426536,-1.2764052529394625
1758278307576100900,63.93810083007813,-0.3344593336254358,1.384533619225025,-0.8131105728253721
1758278307586185700,63.948185791015625,-0.662399786876142,1.2841916690319777,-0.2122553879752755
1758278307596270800,63.95827075195312,-1.005385249045491,1.0414520032048225,0.3857742180600762
1758278307606355700,63.96835571289063,-1.418555131292343,0.6263999604731798,0.7723907321631908
1758278307616440800,63.97844091796875,-1.7032186067439614,0.1325081897825002,0.9335378641918302
1758278307626524700,63.988524658203126,-1.853376873376965,-0.4455272604942321,0.8927090101972222
1758278307636609800,63.99860986328125,-1.8969503499045968,-1.0343541538983585,0.681362115368992
1758278307646694700,64.00869458007813,-1.7833312772482632,-1.653382124298811,0.429463283791393
1758278307656779800,64.01877978515626,-1.5755251237668095,-2.314316807058453,0.1906894528552889
1758278307666865000,64.02886499023438,-1.4262392560541628,-2.943475710850954,0.0445363302104175
1758278307676949800,64.03894970703125,-1.4417263096518813,-3.435395304685831,-0.0284954421222209
1758278307687035000,64.04903491210938,-1.653191570162773,-3.7780864600837223,-0.0739887807965278
1758278307697118700,64.05911865234376,-1.8613526745617388,-3.9464574058860538,-0.2118408888902515
1758278307707203800,64.06920385742187,-1.8657120388150212,-3.9264842929154633,-0.5537742847234011
1758278307717288700,64.07928881835937,-1.640331357937306,-3.707599549928307,-1.0687795705914496
1758278307727373800,64.08937377929688,-1.3509382236152887,-3.2738732018649577,-1.5539114039823412
1758278307737458700,64.09945874023437,-1.0895990712583064,-2.7096365598380565,-1.9415937937512997
1758278307747543800,64.10954370117187,-0.9073387893784792,-1.9780168140023944,-2.121073578067124
1758278307757628700,64.11962866210938,-0.8141771060783416,-1.0880758072137833,-2.0599774504609405
1758278307767712800,64.12971264648438,-0.8197703960407525,-0.163629888755083,-1.7027584418863058
1758278307777797600,64.13979760742187,-0.7734084578383713,0.7132739418059587,-1.1349791588164866
1758278307787882800,64.1498828125,-0.7370493696689605,1.3769617226660251,-0.4754968668222427
1758278307797967600,64.15996752929688,-0.8013210585713386,1.8294617447823285,0.4206212942313402
1758278307808052700,64.170052734375,-0.9033031771868468,2.1858669527560477,1.2993991750359537
1758278307818137900,64.18013793945312,-0.9270667684815824,2.479330259126425,2.2124578764311966
1758278307828222700,64.19022265625,-0.8582515909306705,2.6857442275971173,3.1712668138712643
1758278307838306600,64.200306640625,-0.812395556423813,2.7868852192133664,4.129176610514522
1758278307848391700,64.2103916015625,-0.7151900045603513,2.8266747932881118,5.032268190777302
1758278307858476800,64.22047680664062,-0.5577911191493272,2.7771009073019024,5.97443447484374
1758278307868561700,64.23056176757812,-0.4063981961548328,2.6151532725453377,6.988582291537523
1758278307878646800,64.24064672851563,-0.1743605416059493,2.283781968063116,7.624161583766341
1758278307888731600,64.25073168945312,0.1669637093529105,1.8859493556797504,8.029973504465818
1758278307898816800,64.26081665039062,0.4823284664079547,1.3470090674728157,8.089374956983328
1758278307908900900,64.27090087890625,0.6688312812283634,0.5954582942426204,7.740798250678181
1758278307918985700,64.28098583984375,0.8125538157254457,-0.1260626669049263,7.180020224672555
1758278307929070600,64.29107055664062,0.6940846726894379,-0.6418816072434187,6.41338235694766
1758278307939155700,64.30115576171875,0.4771656768172979,-0.8601274678051472,5.441410132682323
1758278307949240600,64.31124047851563,0.1313905839294195,-0.8459130644917487,4.225976650317013
1758278307959325700,64.32132568359376,-0.3459308679714798,-0.7401128488928079,3.020047493878007
1758278307969410600,64.33141064453125,-0.8095867826133966,-0.5297936896771193,2.1121914756923914
1758278307979495000,64.34149487304687,-1.112621342666447,-0.3054389908462763,1.4380562428370118
1758278307989579800,64.35157983398437,-1.2449430699661372,0.0277712195008993,1.0006494526952503
1758278307999665000,64.36166479492188,-1.2727274412095546,0.4211491905629634,0.8473959965258836
1758278308009750000,64.37175,-1.2153335291221736,0.7803618571728468,0.8141913537994027
1758278308019835000,64.3818349609375,-1.0005375167533754,1.0538011971682308,0.8551865042716265
1758278308029919700,64.39191967773438,-0.6601182518102229,1.2016992637842894,0.9780606042683124
1758278308040004600,64.40200463867187,-0.2109434285938739,1.1942629763036965,1.18958475535959
1758278308050089000,64.4120888671875,0.0772626879006624,0.94052260851264,1.3830401657968758
1758278308060173800,64.422173828125,0.2977022591143846,0.4090548481434583,1.5611010232254865
1758278308070259000,64.43225903320312,0.4739823706060648,-0.2634709036886692,1.7771261389978228
1758278308080343800,64.44234375,0.6042343058943748,-0.8909750260114669,1.9932384946621955
1758278308090429000,64.45242895507812,0.6990615843191742,-1.306333942735195,2.227761536286026
1758278308100513800,64.462513671875,0.7628263466127216,-1.3966402366042137,2.440268268673867
1758278308110599000,64.47259887695313,0.767035927131772,-1.0864601887106895,2.630900876775384
1758278308120682800,64.48268286132813,0.6692360626369714,-0.4442787217378616,2.67343916503638
1758278308130768000,64.49276782226562,0.5041891466908156,0.4279056790858507,2.6566268541842697
1758278308140852700,64.50285278320312,0.2817607397474348,1.4363468085706232,2.543476568083465
1758278308150937900,64.51293774414063,-0.0130361533142626,2.4262445656269787,2.351091417226195
1758278308161022700,64.52302270507812,-0.2142002384327352,3.2783325193613764,2.238475238002092
1758278308171107800,64.53310791015625,-0.3461227372817695,3.911988150051236,2.129549437728524
1758278308181193000,64.54319287109375,-0.4857154784977436,4.317206781032681,2.088901785519719
1758278308191276800,64.55327685546875,-0.5125906259417533,4.525582404965162,2.0082422947876157
1758278308201361700,64.56336157226562,-0.4488513634156435,4.490485957142711,1.8823631677560504
1758278308211446800,64.57344677734375,-0.4530868820935487,4.136462091347575,1.6026077764816582
1758278308221532000,64.58353198242187,-0.449768551325798,3.5064889485627413,1.162964313329011
1758278308231616500,64.59361645507812,-0.5266998153150081,2.8891280345916748,0.8484227092251181
1758278308241701400,64.60370141601562,-0.6969044062852859,2.22883164973557,0.4008464072465896
1758278308251786500,64.61378637695313,-0.8049820652969181,1.6212527095884084,-0.1140048571035265
1758278308261870300,64.62387036132813,-1.0017331562787293,0.95561028752923,-0.6314250951588154
1758278308271955500,64.63395556640624,-1.1452584146380425,0.3093278149783611,-1.0922025317549704
1758278308282040300,64.64404028320313,-1.2434288660109043,-0.2548404379874467,-1.5081921475976705
1758278308292125400,64.65412548828125,-1.3798305561006068,-0.6667647040873765,-1.8361460448518396
1758278308302210300,64.66421020507812,-1.504329042428732,-0.9628127662539482,-2.0838564848288894
1758278308312295400,64.67429541015625,-1.628820368363708,-1.1731266647726295,-2.231028867518902
1758278308322380500,64.68438061523437,-1.781313069293648,-1.226578853496909,-2.2893466164529324
1758278308332464400,64.69446435546875,-1.9485376215398311,-1.286868779286742,-2.356523963668942
1758278308342549200,64.70454931640624,-2.051358675197512,-1.3459130889296531,-2.373862051960826
1758278308352634400,64.71463427734375,-2.08511408367455,-1.3940800307273864,-2.426565760405361
1758278308362719500,64.72471948242188,-2.07107036075294,-1.4200216967135666,-2.4905501567989585
1758278308372804400,64.73480444335938,-2.0733290994651616,-1.358354637351632,-2.5211405253738164
1758278308382889500,64.74488940429687,-2.020125478674472,-1.230896716696024,-2.474515844582021
1758278308392974300,64.75497436523438,-2.1182420079030093,-1.043605381846428,-2.4611788086250423
1758278308403058400,64.76505834960938,-2.1721657596617936,-0.8510270465046167,-2.4164462251901626
1758278308413143300,64.77514331054688,-2.2988503578573463,-0.5463187080204487,-2.360729598665237
1758278308423228400,64.785228515625,-2.317767239773273,-0.2036445037573576,-2.3313351618766784
1758278308433313300,64.79531323242188,-2.4366335654333238,0.1112573119610547,-2.153436509272456
1758278308443398400,64.8053984375,-2.596039991274476,0.4948281747579574,-1.9072721296936272
1758278308453483300,64.81548315429687,-2.701313260389864,0.8619564367979764,-1.6574959893584251
1758278308463568400,64.825568359375,-2.644403040166199,1.215698563042283,-1.4545955819666383
1758278308473652500,64.83565258789062,-2.4326643695414063,1.5237632262170313,-1.404402102777362
