time,seconds_elapsed,z,y,x
1758278256162517800,12.524517822265626,1.9282817461051045,8.391245441693068,4.69458258858174
1758278256172603600,12.534603759765623,2.010072432824224,8.223651910004019,4.9499020422577855
1758278256182688500,12.5446884765625,2.091128083267063,8.053791017904878,5.189799762657285
1758278256192773600,12.554773681640626,2.1711066059976813,7.884837303778529,5.411655045887827
1758278256202859500,12.564859619140623,2.2517415468104183,7.721271127909421,5.610883486768603
1758278256212944400,12.5749443359375,2.3363050592437387,7.568123470202088,5.782347722411156
1758278256223029500,12.585029541015626,2.429314620722085,7.428145675191283,5.923805526846647
1758278256233115400,12.595115478515623,2.5344790226355194,7.302596803027391,6.03480448013246
1758278256243200500,12.605200439453125,2.65208482684046,7.1911828391999,6.117493284735083
1758278256253285400,12.615285400390626,2.780565368542075,7.09373719497025,6.173954592147469
1758278256263371500,12.62537158203125,2.918378094473481,7.008713809940218,6.207366447883844
1758278256273456600,12.63545654296875,3.065200640812516,6.934039384967089,6.220452139428257
1758278256283541500,12.64554150390625,3.225715027895569,6.867572816368937,6.213018190035224
1758278256293627400,12.65562744140625,3.3957740729153154,6.811380973547696,6.184189570435882
1758278256303712500,12.66571240234375,3.560693416959047,6.769079124391078,6.137704298114777
1758278256313797400,12.67579736328125,3.707402273790538,6.743201171290874,6.079044603875279
1758278256323883500,12.685883544921875,3.827797416453064,6.734777626338601,6.01341214801371
1758278256333968600,12.69596875,3.917898250877857,6.741805333018302,5.9471454859018325
1758278256344053500,12.706053466796876,3.9751939632877695,6.762088242590427,5.8857777017474175
1758278256354139600,12.7161396484375,3.997354357169568,6.794784059011936,5.8328773016870015
1758278256364224500,12.726224609375,3.9832662105843424,6.841256471851468,5.788019338306785
1758278256374309600,12.7363095703125,3.934405441303551,6.903600407561659,5.747272901898622
1758278256384395500,12.7463955078125,3.85309260122925,6.9839815197438,5.7050902952075
1758278256394480400,12.75648046875,3.742985043825209,7.083576450961828,5.655387229883671
1758278256404565500,12.7665654296875,3.6087165663719176,7.202570494654775,5.592004598775506
1758278256414651600,12.776651611328123,3.4580443588674066,7.338814363834262,5.509458417513966
1758278256424736500,12.786736572265625,3.301288447535038,7.488170228043198,5.403627806776762
1758278256434821600,12.796821533203126,3.1466169412612914,7.645826887607574,5.273569932755827
1758278256444907500,12.806907470703123,2.9987139062091708,7.806980157116055,5.121442265745997
1758278256454992600,12.81699267578125,2.8593305699601768,7.96721222012639,4.951580789124965
1758278256465077800,12.827077880859376,2.728725291189551,8.123296515807509,4.768281154260039
1758278256475163400,12.837163330078123,2.6057401320338247,8.273776415610312,4.574401088669896
1758278256485248500,12.84724853515625,2.487913963076472,8.41781722227633,4.372757987862825
1758278256495333400,12.85733349609375,2.372523058442026,8.555650406473875,4.164415097156167
1758278256505419500,12.86741943359375,2.25662464267686,8.687798530772328,3.9497085166364903
1758278256515504600,12.877504638671876,2.1364605322912333,8.81497178926766,3.7285640120238064
1758278256525589500,12.887589599609376,2.00718957086429,8.93772547775507,3.501236434862017
1758278256535674600,12.897674560546877,1.864522098378092,9.056382836839555,3.267394653500616
1758278256545760500,12.907760498046876,1.7056407193243504,9.17034473158419,3.027533757980168
1758278256555845400,12.917845458984376,1.530235052579641,9.278164470312,2.782883290095627
1758278256565931500,12.927931640625,1.3410266320623456,9.377802656149864,2.5355171335116027
1758278256576016400,12.938016357421876,1.1442536215096712,9.467024661913513,2.2883383161932227
1758278256586101500,12.9481015625,0.9479457442507148,9.544104394462703,2.044962252158672
1758278256596186600,12.9581865234375,0.7633652757950127,9.607910803940891,1.809888444784284
1758278256606272500,12.9682724609375,0.6010816505497321,9.658532153153418,1.588035061249882
1758278256616357600,12.978357666015626,0.4703560698676854,9.697130471616983,1.3837636577658354
1758278256626442500,12.9884423828125,0.3766255737036466,9.725807115525006,1.1988448972664774
1758278256636528400,12.9985283203125,0.3220165065618232,9.746635384020207,1.0343015469282866
1758278256646613500,13.008613525390626,0.3044590946971439,9.761462950795888,0.8896774604815989
1758278256656698400,13.018698486328123,0.3186367279304191,9.771842305991052,0.7615581533078104
1758278256666784500,13.028784423828125,0.3575979614222422,9.778883456674215,0.6449511508818715
1758278256676869600,13.03886962890625,0.4148484099183231,9.783325823035836,0.5336914643006399
1758278256686954500,13.04895458984375,0.4876431586246937,9.785489138549565,0.4205021248310804
1758278256697040600,13.05904052734375,0.5784007033925503,9.785046655479071,0.2978392381659708
1758278256707125500,13.06912548828125,0.6926236602261662,9.780869662055371,0.1589058559078723
1758278256717210600,13.079210693359377,0.8335910507962108,9.77115666181445,-0.0016653135666325
1758278256727296500,13.089296630859376,1.0005009110700338,9.753696408447622,-0.186489736143127
1758278256737381400,13.09938134765625,1.1869437393315136,9.72654653571546,-0.3947483095671981
1758278256747466500,13.109466552734377,1.3836990680970251,9.688442138248682,-0.6243696967545896
1758278256757552600,13.119552734375,1.580404274110496,9.639209613046049,-0.8708393428903073
1758278256767637500,13.129637451171876,1.7664146292388438,9.580223171070218,-1.1267129963830114
1758278256777722600,13.13972265625,1.9351497321784492,9.51393721973598,-1.3822345485024152
1758278256787808500,13.14980859375,2.0846319992460307,9.443277291101216,-1.627634665710479
1758278256797893600,13.1598935546875,2.214857046527416,9.37094621438384,-1.8574581513412296
1758278256807978800,13.169978759765623,2.327694028895348,9.298352102816104,-2.071926100799441
1758278256818064400,13.180064453125,2.4260109030015764,9.226085908028482,-2.272485498023033
1758278256828149500,13.1901494140625,2.5095941722258925,9.155671478587388,-2.458860010288656
1758278256838234400,13.200234375,2.576962365838885,9.089233551561833,-2.62973300203979
1758278256848320500,13.210320556640625,2.6290759994357824,9.028878159320351,-2.7816724530011414
1758278256858405600,13.220405517578126,2.667735692697763,8.97644128511846,-2.9115397728860377
1758278256868490500,13.230490478515623,2.694763400354981,8.933607521042227,-3.016500907312333
1758278256878576600,13.24057666015625,2.712650062440336,8.901241959488392,-3.0951264079988
1758278256888661500,13.25066162109375,2.722837694455683,8.879950165134668,-3.146910663510859
1758278256898746400,13.260746337890623,2.7262159387171265,8.870468635562062,-3.170633192142844
1758278256908832500,13.27083251953125,2.725777255038917,8.872683389002084,-3.164807262468338
1758278256918917400,13.28091748046875,2.7255349707156418,8.88606309505701,-3.127254945926368
1758278256929002500,13.29100244140625,2.7274782137379048,8.910093958985804,-3.0563799132362006
1758278256939088600,13.301088623046876,2.730851197302341,8.943080282786488,-2.9553584563463926
1758278256949173500,13.311173583984376,2.731317645770311,8.982439064228535,-2.833031761099398
1758278256959258600,13.321258544921877,2.723466347748041,9.026675680840016,-2.6967116118133068
1758278256969343500,13.331343505859374,2.7039161363646387,9.074778909751773,-2.551004333239794
1758278256979429400,13.341429443359376,2.669457401923835,9.12607070557177,-2.399840104434639
1758278256989514500,13.351514404296877,2.6172847316160794,9.1797637173146,-2.2476981166385115
1758278256999599400,13.361599365234374,2.5448048940777777,9.235250626736878,-2.098686243561655
1758278257009685500,13.371685546875,2.4508305792205034,9.291566388198731,-1.9571968749441204
1758278257019770600,13.3817705078125,2.3356607699908314,9.347906699579951,-1.825300679580122
1758278257029855500,13.39185546875,2.199804000432789,9.404164008852838,-1.70087116683498
1758278257039941600,13.401941650390626,2.044164525909722,9.460594921126962,-1.5776370013542471
1758278257050026500,13.412026611328123,1.8722564920224247,9.51695744433999,-1.4465765261620285
1758278257060111600,13.422111572265624,1.6897770874992013,9.57220002361238,-1.2992409157343208
1758278257070197500,13.432197509765626,1.5050316377401352,9.624374447485804,-1.1299036821831017
1758278257080282400,13.442282470703123,1.3260925361722706,9.671316815924644,-0.9367566070426256
1758278257090367500,13.452367431640624,1.1606631237145513,9.711078917470571,-0.7198490824125706
1758278257100453600,13.46245361328125,1.0151434036023914,9.742057993102073,-0.4818414866086095
1758278257110538500,13.47253857421875,0.8946215658202766,9.763125915572047,-0.2267815241189673
1758278257120623600,13.48262353515625,0.8018237473964691,9.773729727172851,0.0411344082458643
1758278257130709500,13.49270947265625,0.7373318398721516,9.773745509263872,0.317192885797657
1758278257140794600,13.502794677734377,0.700697661088407,9.763393042075634,0.5963041704822332
1758278257150879700,13.512879638671874,0.6901912454474717,9.743095519456269,0.8752828782957047
1758278257160965400,13.52296533203125,0.7048050233419985,9.713262691250442,1.1515884944424033
1758278257171050500,13.533050537109377,0.742539564583078,9.67438263323605,1.423143043604493
1758278257181136000,13.543135986328124,0.8007979845453054,9.62684463699162,1.689077268666774
1758278257191222000,13.553221923828126,0.8759672803632914,9.571188800743222,1.948184131927043
1758278257201307000,13.563306884765623,0.964661682056263,9.50794879297614,2.199714276322722
1758278257211392000,13.57339208984375,1.0631976057406514,9.437540793275833,2.443937750966847
1758278257221478000,13.583477783203126,1.1688687150672077,9.360020331221818,2.682191795812547
1758278257231562800,13.593562744140623,1.279249390324205,9.275171718236804,2.916347173167765
1758278257241647900,13.60364794921875,1.3916718005418776,9.182388220599291,3.149189129836857
1758278257251732700,13.613732666015624,1.5035710636682809,9.080704208147525,3.383855963845551
1758278257261819000,13.62381884765625,1.6117879850201309,8.969584258830547,3.622026714321971
1758278257271904000,13.633904052734374,1.7129453432492912,8.849452151018381,3.863081495802104
1758278257281988900,13.64398876953125,1.8033103815682232,8.72170138489604,4.1049195366144176
1758278257292075000,13.654074951171877,1.8813095670498907,8.5891896879822,4.34245140466541
1758278257302160000,13.664159912109374,1.9458483824558557,8.45705617673099,4.567519804723561
1758278257312245000,13.674244873046876,1.99735177519992,8.331327271825074,4.77178653203249
1758278257322331000,13.684330810546877,2.037474965143204,8.217295234453678,4.949256730091571
1758278257332415700,13.694415771484374,2.068599148333817,8.117518516927957,5.098741773638129
1758278257342500900,13.7045009765625,2.0938307663545013,8.030639859420061,5.224470094022155
1758278257352587000,13.7145869140625,2.114772432096302,7.9534291939675805,5.333019900590181
1758278257362671900,13.724671875,2.135770358069986,7.881464027953148,5.43059940033257
1758278257372757000,13.734757080078126,2.171319518096,7.81215551392734,5.515977590149641
1758278257382843000,13.7448427734375,2.220190078118444,7.750883006840944,5.582556971472502
1758278257392928000,13.754927978515624,2.266571013282239,7.704366754859685,5.628125128948688
1758278257403012900,13.765012939453126,2.301975211879611,7.675355179908871,5.65333672709465
1758278257413098800,13.7750986328125,2.3276102961346505,7.661879027742147,5.661116128924489
1758278257423184000,13.785183837890624,2.3459705670811237,7.657897264629602,5.6589247563600535
1758278257433268700,13.795268798828126,2.3526465377137065,7.656430699208379,5.658137989896535
1758278257443353900,13.805353759765625,2.3375177960343656,7.654903343510627,5.666468011346459
1758278257453440000,13.81543994140625,2.293522294702381,7.655510661754012,5.683601516976952
1758278257463524900,13.82552490234375,2.222468982835859,7.664061632478237,5.700277341967821
1758278257473610000,13.83560986328125,2.133309520914405,7.68669724265635,5.703862799239158
1758278257483695900,13.84569580078125,2.035671861243993,7.729448004624247,5.6817292933642864
1758278257493780700,13.85578076171875,1.9386295371182265,7.795048311781882,5.625773012864589
1758278257503865900,13.865865966796877,1.8501386221081015,7.881037326973677,5.535033588275313
1758278257513951700,13.87595166015625,1.7746565340138971,7.979854259556531,5.416907559588552
1758278257524036900,13.886036865234376,1.712847874224186,8.082682765868306,5.28268555162549
1758278257534122000,13.8961220703125,1.6625675935342907,8.182697968325018,5.142927536845207
1758278257544208000,13.906207763671874,1.6213341042615472,8.276683827489615,5.003815418753027
1758278257554293000,13.91629296875,1.5868253931991756,8.364736204952,4.866573478446901
1758278257564377900,13.9263779296875,1.555770621982962,8.448876961928606,4.729316048310697
1758278257574463700,13.936463623046874,1.5246978767186403,8.531851597735285,4.588373207660019
1758278257584548900,13.946548828125,1.488291807602346,8.61642080925703,4.439894710807502
1758278257594633700,13.9566337890625,1.4433767072074115,8.70446967958808,4.280100454692542
1758278257604718800,13.96671875,1.3906521021053193,8.79639451456964,4.106081858392059
1758278257614805000,13.976804931640626,1.335179075077921,8.890722319039702,3.91697938246727
1758278257624889900,13.986889892578125,1.2821642548575996,8.985854425629974,3.7122555590406057
1758278257634975000,13.99697509765625,1.2352348920308054,9.079878863239289,3.4929052443683144
1758278257645061000,14.00706103515625,1.195110167717561,9.1710923350811,3.260854438076913
1758278257655146000,14.01714599609375,1.163434341993555,9.25764541389644,3.0187460558906194
1758278257665231000,14.027231201171874,1.1431048898659646,9.337809668457508,2.76930075494498
1758278257675316700,14.037316650390624,1.137399152505025,9.410310841044785,2.5145094167962667
1758278257685401900,14.04740185546875,1.1488802583970128,9.47454687411189,2.2546425289489327
1758278257695486700,14.05748681640625,1.178712502080947,9.53034650274515,1.9883475077502428
1758278257705572900,14.06757275390625,1.224797084646672,9.577724924513698,1.7138951913200318
1758278257715658000,14.077657958984377,1.2822247528731825,9.616786768835782,1.429581259958446
1758278257725742800,14.087742919921874,1.345807144337147,9.647255556857584,1.1356356499638407
1758278257735828000,14.097827880859375,1.411622263289243,9.668688220986724,0.8331745058845729
1758278257745913900,14.107913818359377,1.4760590796254571,9.680658060243726,0.5258265761444345
1758278257755999000,14.1179990234375,1.5385251804105935,9.682765846177936,0.2176888842660933
1758278257766083800,14.128083740234375,1.5996253996700047,9.674915717199443,-0.0870834958976134
1758278257776170000,14.138169921875,1.6616322123803198,9.657218147945404,-0.384075962774828
1758278257786254800,14.1482548828125,1.7282380433186888,9.629894672212004,-0.669862158646062
1758278257796340000,14.158340087890624,1.8035493048906328,9.59318202136457,-0.9425865553051233
1758278257806425900,14.16842578125,1.8925572295121849,9.547247368663548,-1.1994521424446254
1758278257816511000,14.178510986328124,1.99842466512844,9.492769928544758,-1.4366720950022338
1758278257826595800,14.188595947265624,2.1235968129344283,9.430451127275823,-1.6514605085864662
1758278257836681700,14.198681640625,2.268140162295103,9.36115722629726,-1.84246282678321
1758278257846766800,14.208766845703124,2.4298373294219373,9.286003493374585,-2.009088536353409
1758278257856851700,14.218851806640624,2.6048341231048107,9.206254833877086,-2.151762876971811
1758278257866937900,14.228937744140625,2.7862697176635263,9.124256934148072,-2.270462906154245
1758278257877023000,14.23902294921875,2.9648551834881305,9.043686436873674,-2.364689003815502
1758278257887107800,14.24910791015625,3.1334669523090124,8.968056318610905,-2.434282764523476
1758278257897193000,14.25919287109375,3.287810834063589,8.899618157678843,-2.4814307385370133
1758278257907279000,14.269279052734374,3.4245141374483703,8.839854301589726,-2.509990185806155
1758278257917364000,14.279364013671875,3.540482988101244,8.790161173138022,-2.5235735977396367
1758278257927449000,14.289448974609376,3.6336738974958656,8.751833488309384,-2.524328507760167
1758278257937534700,14.29953466796875,3.706070732925832,8.724844943618773,-2.512469143140316
1758278257947619800,14.309619873046875,3.761201668517292,8.707975641882419,-2.488953242996335
1758278257957704700,14.31970458984375,3.800997087810933,8.699391353410482,-2.4583304334566
1758278257967790800,14.329790771484374,3.823324070431292,8.69823750720024,-2.427599779628217
1758278257977876000,14.3398759765625,3.824678992171586,8.704626915976405,-2.4024302670583126
1758278257987960800,14.3499609375,3.803268539874256,8.718729675608873,-2.385221065843105
1758278257998046000,14.3600458984375,3.758991591252386,8.74148686634004,-2.3720798447191718
1758278258008132000,14.370132080078124,3.693750472795963,8.774188527980446,-2.353763412914425
1758278258018217000,14.380217041015625,3.611154899434745,8.816448291561008,-2.3238313621178266
1758278258028302000,14.390302001953126,3.514620524831116,8.866413222691417,-2.2813423198260367
1758278258038388000,14.400387939453124,3.40721608890593,8.922143877741695,-2.2263405635721982
1758278258048472800,14.410472900390625,3.2907708529129622,8.982209931647777,-2.158962140826136
1758278258058558000,14.420557861328126,3.166251616057753,9.04518632004261,-2.080824715917557
1758278258068643800,14.430643798828124,3.0339553154602643,9.109861329048872,-1.993977622591704
1758278258078729000,14.44072900390625,2.8936189162701367,9.1752693285048,-1.9004697562024
1758278258088813800,14.450813720703126,2.745193026387691,9.240738118237257,-1.8008438453242182
1758278258098900000,14.46089990234375,2.589463535493612,9.30596725399494,-1.692347230248153
1758278258108984800,14.47098486328125,2.427181115824729,9.37085561349094,-1.5704294080629944
1758278258119069700,14.481069580078126,2.259427863529325,9.434813998660443,-1.4316592352762818
1758278258129154800,14.49115478515625,2.088417947525531,9.496603223097324,-1.2741371618770063
1758278258139241000,14.501240966796876,1.917151426412165,9.554608252820373,-1.0974386057775467
1758278258149325800,14.511325927734376,1.7485203683689237,9.60718716584146,-0.902789674706757
1758278258159411000,14.521410888671875,1.5866434607610105,9.652660630771518,-0.6921659795865416
1758278258169497000,14.5314970703125,1.4356646715253591,9.68973217805922,-0.4672658853000029
1758278258179582200,14.541582275390626,1.3000313354596496,9.717386493182184,-0.2295518473488278
1758278258189667000,14.5516669921875,1.1852524983089416,9.734740948086976,0.0195119822818436
1758278258199753000,14.5617529296875,1.0951101628299802,9.74137117988169,0.2771326232890598
1758278258209837800,14.571837890625,1.0314720956560224,9.73725322316885,0.5406940730717033
1758278258219923000,14.5819228515625,0.9947041344247758,9.722457220575214,0.8091928148597478
1758278258230008000,14.592008056640625,0.9854960880313068,9.696827689278123,1.081991007407382
1758278258240094000,14.602093994140626,1.0044309439953416,9.660187519145012,1.3573092199519277
1758278258250179000,14.612178955078123,1.050774981214851,9.612505145993827,1.632788541342318
1758278258260264000,14.622263916015624,1.122524897043407,9.553892798027396,1.9061606613203883
1758278258270350000,14.63235009765625,1.2171748461399228,9.484526416334509,2.175459540510177
1758278258280435200,14.642435302734375,1.330235188934952,9.404790616318582,2.43942421906516
1758278258290520000,14.65252001953125,1.4577115220300851,9.314910438907146,2.697763166692853
1758278258300606000,14.66260595703125,1.5956718397386371,9.214971808817982,2.951019550359249
1758278258310691000,14.672691162109375,1.7411068772420286,9.105026163977383,3.19959537499398
1758278258320776000,14.68277587890625,1.8912267115607857,8.98501855932772,3.4442812064528465
1758278258330861000,14.692861083984376,2.0423338033512235,8.855205015456676,3.6857314169913526
1758278258340947000,14.702947021484375,2.191408950922638,8.716151934075356,3.9238749871999024
1758278258351032000,14.713031982421874,2.334946922633052,8.568456696555018,4.159320112104714
1758278258361117200,14.7231171875,2.4688284465953707,8.413431554538011,4.39197706759572
1758278258371203000,14.733203125,2.5887390206113454,8.253616255635023,4.620241925607622
1758278258381288000,14.743287841796874,2.69239784026742,8.092215148845314,4.84122013374269
1758278258391372800,14.753372802734376,2.779516151750088,7.93380854769647,5.049688112133741
1758278258401459000,14.763458984375,2.852026676687598,7.782983779978752,5.240372596552968
1758278258411544000,14.7735439453125,2.912180701138079,7.643110029864311,5.410402415478229
1758278258421629000,14.78362890625,2.9618147928789256,7.514969387641549,5.560871209365129
1758278258431714000,14.793714111328123,3.0021006260380148,7.397630709940195,5.694983911734819
1758278258441800200,14.80380029296875,3.0330840855836865,7.289211836275458,5.817058385786414
1758278258451885000,14.813885009765626,3.06041925175488,7.187567571312188,5.928160214924812
1758278258461970200,14.82397021484375,3.0978108247771856,7.092702006703615,6.022254210639
1758278258472055800,14.834055908203124,3.146310067269206,7.011665645483136,6.091605979284644
1758278258482141000,14.844140869140626,3.1973557793736456,6.950405413356423,6.135077456742525
1758278258492226000,14.85422607421875,3.240656868700683,6.910679552167654,6.157192842438817
1758278258502312000,14.86431201171875,3.264605315043032,6.891984204047918,6.165491299706697
1758278258512397000,14.87439697265625,3.2624691797971725,6.893073752850293,6.1654053749889135
1758278258522482000,14.88448193359375,3.231856599390506,6.91492025847733,6.157057233360409
1758278258532567000,14.894567138671874,3.1713042232722044,6.961127298378944,6.136441146311164
1758278258542653200,14.904653076171876,3.083435093422234,7.034585333299637,6.097330786672234
1758278258552738000,14.914738037109377,2.9763322707921267,7.134770047104358,6.033810792919993
1758278258562823200,14.9248232421875,2.861611958895624,7.256945643442869,5.942921730726957
1758278258572909000,14.934908935546876,2.753314665783942,7.393050396412611,5.8251551830023525
1758278258582994000,14.944993896484377,2.661460265690088,7.534711029943823,5.684639627853036
1758278258593079000,14.9550791015625,2.5897692404419184,7.674307716682553,5.528875650167465
1758278258603164000,14.965163818359375,2.536497961242497,7.806638211810588,5.365906271147727
1758278258613250000,14.97525,2.496852179552614,7.929372611075639,5.202033805808425
1758278258623335200,14.985335205078124,2.4652304221034047,8.042813112294674,5.040453835320473
1758278258633420000,14.995419921875,2.436973172651231,8.14876939523816,4.881505674640834
1758278258643506200,15.005506103515623,2.408498042664677,8.249881745281815,4.723238774223625
1758278258653591000,15.015591064453124,2.3767557275757194,8.348948268711567,4.562511036650836
1758278258663676000,15.025676025390624,2.339682865113765,8.448492346525192,4.395365833251178
1758278258673762000,15.035761962890623,2.2955149298243223,8.550430041477084,4.2179558409467335
1758278258683847000,15.045846923828124,2.242976056552678,8.655505449932813,4.027613301832973
1758278258693932000,15.05593212890625,2.180367478556931,8.76319484027922,3.8239755200773473
1758278258704017000,15.066016845703125,2.107041545583308,8.871784394335746,3.60862801130563
1758278258714103000,15.07610302734375,2.024032569115609,8.978816197556256,3.384453637477755
1758278258724188200,15.086188232421875,1.9333533502809703,9.08172302980125,3.1551281644970177
1758278258734273000,15.09627294921875,1.837605888271332,9.178191937953232,2.9247847466453907
1758278258744359000,15.10635888671875,1.7390921764187517,9.2665628798455,2.697547770376503
1758278258754444000,15.116444091796875,1.6388316208988427,9.346193465921282,2.476545304583013
1758278258764529000,15.12652880859375,1.5386787635371089,9.417174297073483,2.262672690669447
1758278258774614000,15.136614013671876,1.4413351183772087,9.480072359535097,2.054551479889452
1758278258784700000,15.146699951171875,1.3494642055399717,9.53570423038602,1.8492333438314497
1758278258794785000,15.156784912109377,1.265413464934379,9.584703531354664,1.643943995476514
1758278258804870100,15.1668701171875,1.1890545940056445,9.627813189762833,1.4358815291464329
1758278258814956000,15.1769560546875,1.1184345589898526,9.66539502466023,1.2246001007698477
1758278258825041200,15.187041259765625,1.051463621066138,9.697556588074564,1.0110396946106106
1758278258835126000,15.1971259765625,0.9879928002178668,9.724138890051842,0.7971005913320929
1758278258845211100,15.207211181640623,0.9300065482605248,9.744892924267052,0.5852637940950691
1758278258855297000,15.217297119140625,0.8803438880123198,9.759752055224777,0.3776403402367606
1758278258865382000,15.2273818359375,0.8442318334065377,9.768668352130057,0.1754518074413761
1758278258875467000,15.237467041015623,0.8297423394788056,9.77145885963142,-0.0220727338646538
1758278258885553200,15.24755322265625,0.8442888973560184,9.767846514353156,-0.2161969286752864
1758278258895638000,15.257637939453126,0.8915757683835923,9.757473588898778,-0.4088763863040134
1758278258905723100,15.26772314453125,0.9728924809154122,9.739669052138924,-0.6022500367419794
1758278258915809000,15.27780908203125,1.087908999279514,9.713322312483191,-0.7988695007007569
1758278258925894100,15.28789404296875,1.234137890574336,9.677244452407956,-0.999118151474744
1758278258935979000,15.29797900390625,1.4049047916024922,9.63083692149818,-1.2014930006224662
1758278258946064000,15.30806396484375,1.5880632644310593,9.574874795779586,-1.403637986537069
1758278258956150000,15.31814990234375,1.769732813876122,9.511592117914557,-1.602519075284898
1758278258966235000,15.32823486328125,1.9360744458079335,9.44433469119966,-1.7962550562292336
1758278258976320000,15.338320068359376,2.0766927306793628,9.377020565861462,-1.982223325781524
1758278258986406100,15.34840625,2.1841247852638364,9.31421251977086,-2.155326414672285
1758278258996491000,15.358490966796875,2.2525034710936245,9.26083456532657,-2.309449201022088
1758278259006576000,15.368576171875,2.2809711484260857,9.21969065403342,-2.442301966458559
1758278259016661000,15.378660888671876,2.2740739362582563,9.19078604658842,-2.55507728176713
1758278259026747000,15.388746826171875,2.239508526572585,9.172593971815704,-2.649244634978473
1758278259036832000,15.39883203125,2.186210651627183,9.16310776606798,-2.725494638705253
1758278259046916900,15.408916748046876,2.1223959127120677,9.160476248520611,-2.7841514103353022
1758278259057003000,15.4190029296875,2.0553275788284835,9.163611039415,-2.82387113404423
1758278259067088100,15.429088134765625,1.9915593094035984,9.17256533024311,-2.8404443754434583
1758278259077173000,15.439173095703126,1.934381524284929,9.188593504980206,-2.828127037923038
1758278259087258000,15.449258056640623,1.883480919739604,9.212991448655725,-2.78274768101722
1758278259097344000,15.459343994140625,1.8391367511004209,9.245213217824697,-2.704441913804412
1758278259107429000,15.46942919921875,1.8018875091582536,9.283040551915764,-2.5978385651290417
1758278259117514200,15.47951416015625,1.7709968424625693,9.324435807621478,-2.4675626644432542
1758278259127599900,15.489599853515625,1.7452393008716405,9.367696857199071,-2.317498213573545
1758278259137685000,15.49968505859375,1.7215782931685446,9.411408573153617,-2.152191916038841
1758278259147769900,15.509769775390623,1.6957580616049468,9.454655594205857,-1.975928171160072
1758278259157855000,15.51985498046875,1.6628713987864554,9.497360178944469,-1.7903654136687517
1758278259167941000,15.529941162109376,1.6191602673538028,9.539932077214122,-1.5932337989367544
1758278259178025700,15.540025634765623,1.5632840663529932,9.582169044440985,-1.3815095952287315
1758278259188110600,15.550110595703124,1.4970482377707957,9.622768181332946,-1.153936080481857
1758278259198196700,15.56019677734375,1.4250497540086506,9.659635730481147,-0.9116190970461816
1758278259208281900,15.57028173828125,1.3532555606469512,9.690521867132189,-0.6579183306131512
1758278259218366700,15.58036669921875,1.2874981632314622,9.713702836233375,-0.3958684361709281
1758278259228451800,15.590451904296875,1.2325009370222686,9.728047003406283,-0.1281599405782763
1758278259238537700,15.600537841796877,1.1912090686257928,9.732996150246262,0.1420755253418814
1758278259248622600,15.61062255859375,1.1645115427710115,9.728586517110466,0.4109748198879882
1758278259258707700,15.620707763671875,1.1521982238385826,9.7152827989012,0.675364336258918
1758278259268792600,15.63079248046875,1.1547111565075814,9.693604635578394,0.93330493221879
1758278259278878700,15.640878662109374,1.1721387497138231,9.664064652839302,1.1842037929736078
1758278259288963800,15.6509638671875,1.2051772420931606,9.626766311058402,1.42944755057618
1758278259299048700,15.661048583984376,1.254262248583883,9.581478139567375,1.6710766248129307
1758278259309134800,15.671134765625,1.319286801680177,9.52775473268628,1.910951987250149
1758278259319219700,15.6812197265625,1.3996185217626391,9.465088725414873,2.150242827797681
1758278259329304600,15.6913046875,1.493821384678781,9.39304932512045,2.389452273672074
1758278259339390700,15.701390625,1.6014147673048078,9.311323812592027,2.627758194835484
1758278259349475600,15.7114755859375,1.72154541381225,9.219563228261473,2.8646684238567945
1758278259359560700,15.721560791015625,1.8513984129108487,9.117673464104532,3.1001205630242823
1758278259369645600,15.7316455078125,1.988218912934512,9.005697774741053,3.333881095843017
1758278259379731700,15.741731689453124,2.1300798913434145,8.883529777187109,3.5659579133585093
1758278259389816800,15.75181689453125,2.2756644203200933,8.750670289748907,3.7970381210520863
1758278259399901700,15.761901611328126,2.424249446287006,8.606823544350267,4.026906907129288
1758278259409986800,15.77198681640625,2.5756340398445725,8.451641165944933,4.255145169395208
1758278259420072700,15.78207275390625,2.729758725890517,8.285545763859153,4.479791252388059
1758278259430157600,15.792157470703126,2.884888497325778,8.110065278312563,4.698365906512737
1758278259440242700,15.80224267578125,3.0380121896356345,7.927452456668019,4.908803139150143
1758278259450328600,15.81232861328125,3.1860087481901047,7.7401815800845615,5.109728447076678
1758278259460413700,15.82241357421875,3.33007118216604,7.549726812767982,5.299304677993059
1758278259470498800,15.832498779296875,3.4707229309156533,7.358330380687117,5.475349811685085
1758278259480583700,15.842583740234376,3.602052140046656,7.171838671782613,5.635629805490375
1758278259490669800,15.852669921875,3.716106096988917,6.998890919584036,5.777236078485847
1758278259500754700,15.862754638671875,3.808843709658086,6.847479876410961,5.8970437766492365
1758278259510839800,15.87283984375,3.8872131897568702,6.721189830490946,5.990456219840049
1758278259520925700,15.88292578125,3.9652883630841966,6.619003129214048,6.052741118839383
1758278259531010600,15.893010498046875,4.043298362220823,6.538540768489241,6.0884828788280485
1758278259541095700,15.903095703125,4.116421466098726,6.477592671051621,6.104609837764501
1758278259551180500,15.9131806640625,4.189913695549965,6.430514109012484,6.104384212315082
1758278259561266700,15.9232666015625,4.269851740139723,6.390702907627821,6.090784726029634
1758278259571351800,15.933351806640625,4.356023126161098,6.355207815876603,6.066858491519093
1758278259581436700,15.943436767578126,4.443434283110499,6.3247045410633085,6.035262160772085
1758278259591521800,15.953521728515623,4.522580008278787,6.303261940062046,5.998796178162098
1758278259601607700,15.963607666015625,4.583847546929121,6.296248261907697,5.959528582134842
1758278259611692500,15.973692626953126,4.621096496610344,6.308048589816689,5.918140340691805
1758278259621777700,15.983777587890623,4.630249524880945,6.342769774585962,5.873709078291058
1758278259631863600,15.993863525390625,4.607731111341715,6.403918363031744,5.824864675623179
1758278259641948700,16.00394873046875,4.552297101150453,6.493237399429082,5.76930236287713
1758278259652033800,16.01403369140625,4.4704085070148105,6.607976123765111,5.702673297193647
1758278259662118700,16.02411865234375,4.37527640042454,6.741707717862725,5.619316968593001
1758278259672204800,16.034204833984376,4.278860683764517,6.887939312571286,5.515253367528319
1758278259682289700,16.04428955078125,4.18699517775476,7.042123912110925,5.389615063515305
1758278259692374800,16.054374755859374,4.101323265688121,7.200189736998081,5.244691628795862
1758278259702460700,16.064460693359376,4.020577996368706,7.358529118129611,5.085017199668288
1758278259712545500,16.074545654296877,3.942431219109893,7.514644977992773,4.915051093629002
1758278259722630700,16.084630615234374,3.863848973043263,7.666675029847025,4.739529691550136
1758278259732715500,16.094715576171875,3.78074135850668,7.814614012995362,4.561600643807649
1758278259742801700,16.1048017578125,3.6885029275313017,7.95975196724832,4.382654820238054
1758278259752886800,16.11488671875,3.582719078545272,8.103708602762222,4.202904694548249
1758278259762971600,16.1249716796875,3.4592309383034703,8.248264957734943,4.021221554969251
1758278259773056800,16.135056884765625,3.3155043121531604,8.394320026832819,3.835781108683348
1758278259783143000,16.145142822265626,3.15179434389919,8.54131617617309,3.644517947593331
1758278259793227800,16.155227783203124,2.970604540795088,8.687675781175495,3.4453143488928677
1758278259803313000,16.16531298828125,2.775780180092156,8.83087546084225,3.2374478435263034
1758278259813398500,16.1753984375,2.570614165855944,8.968321107026934,3.0218451909497377
1758278259823483600,16.185483642578124,2.357869679189473,9.09749752203822,2.8011411235809325
1758278259833568500,16.195568603515625,2.140708983515948,9.216517869216204,2.5775118164151904
1758278259843653600,16.205653564453126,1.92187962397784,9.324256359401344,2.352664804022759
1758278259853739800,16.21573974609375,1.703248563490808,9.420397350773214,2.1273098421081897
1758278259863824600,16.22582470703125,1.4878483016185462,9.504666702565553,1.9021032026231288
1758278259873909800,16.23590966796875,1.28016811260432,9.576951017531751,1.6773738252609969
1758278259883995600,16.24599560546875,1.0862667119652032,9.637411623713374,1.4528336868606506
1758278259894080500,16.25608056640625,0.9091795949395746,9.686922381335496,1.2277283157929777
1758278259904165600,16.26616552734375,0.7499789208035915,9.726628368780016,1.0003185402404515
1758278259914250500,16.27625048828125,0.6102203215014189,9.75743091880083,0.7684863451357931
1758278259924336600,16.286336669921877,0.4931813208663836,9.779859608229994,0.5305891143711283
1758278259934421800,16.296421875,0.4043179923472926,9.79407868771851,0.2879680151560344
1758278259944506600,16.306506591796875,0.3486507213894277,9.800351776638626,0.0441438831269973
1758278259954591700,16.316591796875,0.3265828280966729,9.799217219650744,-0.1976536475784145
1758278259964677600,16.326677734375,0.3368886065989732,9.79101988466978,-0.4390891172055154
1758278259974762800,16.3367626953125,0.377026336524263,9.775256498348712,-0.6874689078114926
1758278259984848000,16.346847900390625,0.4428681973528117,9.75028806130886,-0.951902592117712
1758278259994933500,16.35693359375,0.5254083141997457,9.714151164522766,-1.236777006906271
1758278260005018600,16.3670185546875,0.6107252753488719,9.66593570740819,-1.5385266417153178
1758278260015103500,16.377103515625,0.6882602043196558,9.606520226365328,-1.8470061693012716
1758278260025188600,16.387188720703126,0.7546973276276141,9.53812590457499,-2.1505729365348816
1758278260035274800,16.397274658203123,0.8095951851155608,9.463736726284026,-2.4398003589011727
1758278260045359600,16.407359619140625,0.8516574533626436,9.385800669166445,-2.711424027776718
1758278260055444700,16.41744482421875,0.8772700335249304,9.305575039806962,-2.967672286735475
1758278260065529600,16.427529541015623,0.8826632708705962,9.223584154340625,-3.2119770099222658
1758278260075615700,16.43761572265625,0.8654023394681513,9.14043357744515,-3.4458600000768898
1758278260085700900,16.447700927734374,0.8257075310047716,9.05719590678811,-3.668215049523115
1758278260095785700,16.45778564453125,0.7663370581474155,8.975810585999488,-3.875299172340333
1758278260105870800,16.467870849609376,0.6913678880114108,8.899497746169567,-4.060950338767468
1758278260115956700,16.477956787109374,0.605342705527693,8.832605645635724,-4.217706834621727
1758278260126041600,16.48804150390625,0.5126664676569402,8.77975609897971,-4.338596482802927
1758278260136126700,16.498126708984376,0.4170157074874266,8.743938351145387,-4.420408504571021
1758278260146212600,16.508212646484374,0.3218512329975143,8.72580648212731,-4.463977597184479
1758278260156297700,16.518297607421875,0.2302339113288559,8.72440655220151,-4.472373085086048
1758278260166382800,16.5283828125,0.1454257034194655,8.738612187686561,-4.44813208553791
1758278260176467500,16.538467529296874,0.0690370310075115,8.76756063427329,-4.392665926642716
1758278260186553600,16.5485537109375,-0.0011578611592416,8.810351143729687,-4.306748223121464
1758278260196638500,16.558638427734376,-0.0673198061603121,8.866022177547215,-4.190403817154467
1758278260206723300,16.568723388671874,-0.1294174206929281,8.933213553288578,-4.043678593710065
1758278260216808400,16.578808349609375,-0.1851187948497943,9.009560879909992,-3.868324657152593
1758278260226894600,16.58889453125,-0.2308408642460592,9.091975543746353,-3.6678430013403296
1758278260236979500,16.5989794921875,-0.26244428232098,9.177101220107078,-3.447075221085548
1758278260247064600,16.609064697265627,-0.275757133684773,9.261876183333992,-3.2112317445129155
1758278260257150500,16.619150390625,-0.2681596277604811,9.343877005672454,-2.964866581664979
1758278260267235600,16.629235595703125,-0.2386763253783807,9.421517294713857,-2.7108015119642017
1758278260277320700,16.63932080078125,-0.1866134173217229,9.494031326782704,-2.449276481646299
1758278260287405600,16.649405517578124,-0.1122147405500523,9.56082055146396,-2.1791065187104044
1758278260297491500,16.659491455078125,-0.0156876131045399,9.62121043049693,-1.8980187097884715
1758278260307576300,16.669576416015627,0.1019996634053532,9.6741418102175,-1.6034164625160394
1758278260317661400,16.679661376953124,0.2395589899644255,9.718130005025865,-1.292639179381728
1758278260327746600,16.68974658203125,0.3949198667418211,9.751191147628424,-0.9636792468901724
1758278260337832400,16.69983251953125,0.5651855037169531,9.770962016025186,-0.6158338505342602
1758278260347917600,16.70991748046875,0.746711224244535,9.77498060401678,-0.2501416491793468
1758278260358002400,16.72000244140625,0.9361999230079352,9.761000009459256,0.1295827673224732
1758278260368087600,16.730087646484375,1.1297118859380484,9.727642514258624,0.5168256331630051
1758278260378173700,16.740173583984376,1.3230235039904712,9.674771924814582,0.904875321874395
1758278260388258600,16.750258544921873,1.5114485190451143,9.603582419347765,1.2872966493099929
1758278260398343700,16.76034375,1.6908518771238623,9.51594914408028,1.6607526530668135
1758278260408428500,16.770428466796876,1.8584059535853563,9.413825571167468,2.02400728854388
1758278260418514400,16.780514404296873,2.013168060752004,9.298820889371632,2.376863279603421
1758278260428599600,16.790599609375,2.1547882161423564,9.172332106009126,2.719482831069827
1758278260438684400,16.800684326171876,2.282720037920028,9.035547554081678,3.052615007744729
1758278260448770600,16.8107705078125,2.397023439578712,8.889545091953874,3.376488357686996
1758278260458855700,16.820855712890626,2.4981147468343377,8.735678472322226,3.690222298669815
1758278260468940500,16.8309404296875,2.587473530720174,8.575009186938404,3.993066304586828
1758278260479025700,16.841025634765625,2.667744168265164,8.408721477150916,4.28333110717684
1758278260489111300,16.851111328125,2.740722602975368,8.23823631567359,4.559634896692633
1758278260499196400,16.861196533203124,2.807027551271021,8.064872383889556,4.82170265558511
1758278260509281500,16.871281494140625,2.869187654846906,7.889587128654122,5.068785026791692
1758278260519366400,16.881366455078126,2.929555029787123,7.714016626736521,5.299250317457318
1758278260529452500,16.89145263671875,2.989547141674161,7.540457464641332,5.511306675729156
1758278260539537400,16.901537353515625,3.0502927022770043,7.371577400273084,5.703153774186968
1758278260549622500,16.91162255859375,3.1114538579434154,7.210388474929332,5.873630167835951
1758278260559707400,16.921707275390624,3.173385413460433,7.058962234187126,6.022545302540063
1758278260569793500,16.93179345703125,3.2366663377597926,6.918662367615103,6.150322372147441
1758278260579878700,16.941878662109374,3.3006288145825264,6.789999162822961,6.258765211209655
1758278260589963500,16.951963623046876,3.3608483054846525,6.673142715680599,6.351712959498166
1758278260600049400,16.96204931640625,3.4138881140157578,6.566463963681459,6.434075016364455
1758278260610134500,16.972134521484374,3.4717692250981926,6.463807306805252,6.506641070881486
1758278260620219400,16.982219482421876,3.5513100870639085,6.361376859900355,6.564408200195431
1758278260630304500,16.992304443359377,3.65424526862055,6.262909471407532,6.602487463220953
1758278260640390700,17.002390625,3.773153387595713,6.1769362383067605,6.616582624068856
1758278260650475500,17.0124755859375,3.9002652712926262,6.11056260868907,6.604493542346358
1758278260660560600,17.022560546875,4.0286140033081175,6.066585519796609,6.567890197092295
1758278260670645500,17.0326455078125,4.156596824620664,6.042916474917531,6.509705134627223
1758278260680731600,17.042731689453124,4.280859164105356,6.037334875392913,6.433911350235342
1758278260690816800,17.052816650390625,4.394851746249199,6.04855068141222,6.345919178527593
1758278260700901600,17.062901611328126,4.493177388183772,6.075914489156007,6.250200796481967
1758278260710986500,17.072986572265624,4.573837025046348,6.1185255503922695,6.149312902843952
1758278260721072400,17.083072265625,4.637867014147341,6.175695298334956,6.043289984405041
1758278260731157500,17.093157470703126,4.687716209943592,6.246211434584856,5.931318386694788
1758278260741242400,17.103242431640624,4.722931607970595,6.329570685794949,5.813847607046365
1758278260751327500,17.113327392578125,4.740705749592185,6.427191102069616,5.690985197487473
1758278260761413600,17.12341357421875,4.7381250854492185,6.54165743920505,5.561230690327286
1758278260771498500,17.13349853515625,4.716306636872887,6.674335140335559,5.42033987212479
1758278260781583600,17.14358349609375,4.680625374899805,6.824031196284293,5.262577998620271
1758278260791668500,17.15366845703125,4.638506188833714,6.986638756254315,5.083455941700935
1758278260801754400,17.16375439453125,4.595587961344421,7.156508416181802,4.882146602892876
1758278260811839500,17.173839599609376,4.554643956537545,7.328458974036573,4.660396825863421
1758278260821924400,17.18392431640625,4.515004896849393,7.498750074246526,4.421974146452546
1758278260832010500,17.194010498046875,4.473541836604476,7.665142413452267,4.171737402868271
1758278260842095600,17.204095703125,4.427117646820843,7.826635290178656,3.913410584069789
1758278260852180500,17.214180419921874,4.372460466220975,7.983018276545405,3.650120882166922
1758278260862265600,17.224265625,4.30593515317291,8.134626888117193,3.3848411754906174
1758278260872350500,17.2343505859375,4.224495764109492,8.281641157636045,3.1206445878759026
1758278260882436600,17.2444365234375,4.12558852289468,8.42440069231987,2.859962438122928
1758278260892521700,17.254521728515623,4.007950862246752,8.563185478153825,2.6035662951260803
1758278260902606600,17.264606689453124,3.8723590272352095,8.697537249976396,2.3511830410324035
1758278260912692500,17.2746923828125,3.721811322893202,8.826258322435617,2.1013521017700434
1758278260922777300,17.28477734375,3.5602880510285493,8.947861671844125,1.852163698194921
1758278260932862500,17.294862548828124,3.391621337150037,9.061060765522718,1.6013943090386689
1758278260942947600,17.304947509765626,3.218899794922769,9.164809893810748,1.347337130383402
1758278260953033500,17.315033447265623,3.0445035974815484,9.258217660826444,1.08939383100979
1758278260963118600,17.32511865234375,2.8703210427910086,9.34063875440359,0.8271168132808059
1758278260973203500,17.335203369140626,2.69763807900846,9.411645889040829,0.5604276051327586
1758278260983288600,17.34528857421875,2.5286694595739245,9.470638760757446,0.2884800015324726
1758278260993374500,17.35537451171875,2.36572740695253,9.517016481050849,0.0110991094206343
1758278261003459300,17.365459228515626,2.210027288283408,9.550496725848316,-0.2723717290301807
1758278261013544400,17.37554443359375,2.063125977619737,9.570701894009114,-0.5617486246034503
1758278261023629300,17.38562939453125,1.9278401398174465,9.577269581961632,-0.854246812268719
1758278261033715500,17.395715576171874,1.8064903267785903,9.570395020017028,-1.146534352857992
1758278261043800600,17.405800537109375,1.7000991595491766,9.550858544898032,-1.4356763619631527
1758278261053885400,17.415885498046876,1.6093023056842386,9.5197000210464,-1.7192555493094026
1758278261063970600,17.425970458984374,1.5340613328695296,9.478210072794557,-1.9951411134131247
1758278261074056700,17.436056640625,1.472980695093423,9.427536116611956,-2.2632439146861434
1758278261084141600,17.4461416015625,1.4242263087965548,9.368647874313591,-2.523964642883837
1758278261094226700,17.456226806640625,1.386990803118795,9.302059140640496,-2.778187825755775
1758278261104311600,17.4663115234375,1.3601304148525,9.2281820035249,-3.026728871338069
1758278261114397400,17.4763974609375,1.339999188710749,9.148081461849808,-3.2691587405636904
1758278261124482600,17.486482666015625,1.322413117007166,9.063210637032984,-3.5042616279020904
1758278261134567400,17.4965673828125,1.3047776532039046,8.974826835659146,-3.731012574219704
1758278261144652500,17.506652587890624,1.2852373786926268,8.884815140822528,-3.946976461324096
