time,seconds_elapsed,z,y,x
1758278492804046600,249.16604663085937,-1.9979345798492432,-2.828502893447876,-1.9209237098693848
1758278492814130700,249.1761306152344,-1.8419252634048464,-2.6574501991271973,-1.8262901306152344
1758278492824214800,249.18621484375,-1.6603211164474487,-2.4364259243011475,-1.732486367225647
1758278492834298600,249.1962985839844,-1.4783172607421875,-2.190913200378418,-1.622913837432861
1758278492844382700,249.2063828125,-1.2937045097351074,-1.9385054111480715,-1.4784661531448364
1758278492854466600,249.2164665527344,-1.13868248462677,-1.716447830200195,-1.282297134399414
1758278492864550700,249.22655053710935,-0.9932461380958556,-1.5020720958709717,-1.056581735610962
1758278492874634800,249.236634765625,-0.888388454914093,-1.2776973247528076,-0.8125956654548645
1758278492884718600,249.24671850585935,-0.7718991041183472,-1.025421142578125,-0.5469011664390564
1758278492894802700,249.256802734375,-0.626661479473114,-0.7812910079956055,-0.2792755961418152
1758278492904886800,249.26688671875,-0.4403118789196014,-0.6043822765350342,-0.0280944854021072
1758278492914970600,249.276970703125,-0.2242892980575561,-0.5084291100502014,0.1912005841732025
1758278492925054700,249.2870546875,-0.008331699296832,-0.4531405866146087,0.3662802577018738
1758278492935139600,249.2971396484375,0.1775409579277038,-0.3807486891746521,0.5191707611083984
1758278492945223700,249.3072236328125,0.3123363256454468,-0.2608313262462616,0.6727222204208374
1758278492955307800,249.3173078613281,0.4119510650634765,-0.0913008823990821,0.8466852307319641
1758278492965391600,249.3273916015625,0.4846993088722229,0.0770516395568847,1.026242733001709
1758278492975475700,249.3374758300781,0.5509030818939209,0.1781934350728988,1.2071610689163208
1758278492985559800,249.34755981445312,0.6375938057899475,0.2050072103738784,1.3936532735824585
1758278492995643600,249.3576435546875,0.7352074384689331,0.2079398781061172,1.561125874519348
1758278493005727700,249.36772778320312,0.8375945091247559,0.2714919745922088,1.685375094413757
1758278493015811600,249.3778115234375,0.9182555675506592,0.4197781085968017,1.7871956825256348
1758278493025895700,249.38789575195312,0.9847304224967957,0.6544046998023987,1.8705893754959104
1758278493035979800,249.39797973632807,1.0679429769515991,0.9593055248260498,1.947004795074463
1758278493046063600,249.40806372070315,1.1939376592636108,1.3304542303085327,2.0335192680358887
1758278493056147500,249.4181474609375,1.377028226852417,1.7628072500228882,2.125907182693481
1758278493066231800,249.42823168945316,1.6021803617477417,2.230811834335327,2.222653388977051
1758278493076315600,249.43831567382813,1.8746403455734253,2.703556776046753,2.304207324981689
1758278493086399700,249.44839965820316,2.170593023300171,3.1551315784454346,2.3814470767974854
1758278493096483600,249.45848364257813,2.469172477722168,3.566611289978028,2.423941373825073
1758278493106568400,249.468568359375,2.750713586807251,3.931708335876465,2.419178009033203
1758278493116652800,249.4786528320313,2.987445831298828,4.2287445068359375,2.377368927001953
1758278493126736600,249.4887365722656,3.158036231994629,4.44243049621582,2.3215339183807373
1758278493136820700,249.4988208007813,3.2523350715637207,4.567714691162109,2.2484943866729736
1758278493146904800,249.50890478515623,3.26676082611084,4.615901470184326,2.164022922515869
1758278493156988700,249.5189887695313,3.2163939476013184,4.597517967224121,2.0513882637023926
1758278493167072800,249.52907275390623,3.1453816890716557,4.543049812316895,1.917175531387329
1758278493177156600,249.53915649414063,3.1148457527160645,4.519761562347412,1.771122694015503
1758278493187240700,249.54924072265624,3.137028932571411,4.486618995666504,1.5987824201583862
1758278493197324800,249.55932470703124,3.171484470367432,4.454220771789551,1.4085354804992676
1758278493207408600,249.56940869140624,3.184699535369873,4.442446231842041,1.2190604209899902
1758278493217492500,249.57949243164063,3.16056227684021,4.391611099243164,1.0244650840759275
1758278493227576800,249.58957690429688,3.102567434310913,4.283384799957275,0.8121392130851746
1758278493237660700,249.59966064453124,3.038954019546509,4.102157115936279,0.5892430543899536
1758278493247744800,249.60974487304688,2.971867561340332,3.827303171157837,0.3552955090999603
1758278493257828600,249.61982861328124,2.8959720134735107,3.5309295654296875,0.1290985941886901
1758278493267912700,249.62991259765624,2.8226678371429443,3.1437690258026123,-0.1131222918629646
1758278493277996800,249.63999682617188,2.784130334854126,2.6718125343322754,-0.3274676203727722
1758278493288081700,249.6500815429688,2.780055522918701,2.188096761703491,-0.4887973964214325
1758278493298165800,249.6601657714844,2.7874057292938232,1.7462680339813232,-0.6034051775932312
1758278493308249600,249.67024951171877,2.8051862716674805,1.4318933486938477,-0.694050133228302
1758278493318333700,249.6803337402344,2.8060648441314697,1.1961678266525269,-0.758836567401886
1758278493328417800,249.69041772460935,2.781338691711426,0.961532711982727,-0.7994369864463806
1758278493338501600,249.7005017089844,2.741117238998413,0.7232743501663208,-0.8046749234199524
1758278493348585700,249.71058569335935,2.69661021232605,0.4187138974666595,-0.7783911228179932
1758278493358669800,249.720669921875,2.6524205207824707,0.0946556702256202,-0.7386623620986938
1758278493368753700,249.73075366210935,2.598475933074951,-0.121973842382431,-0.6761558055877686
1758278493378837500,249.74083740234371,2.517529249191284,-0.1977346539497375,-0.5872781276702881
1758278493388921900,249.750921875,2.407914161682129,-0.2333746701478958,-0.4827549457550049
1758278493399005700,249.7610056152344,2.270289421081543,-0.2299559712409973,-0.3891842365264892
1758278493409089800,249.77108984375,2.103750467300415,-0.221890315413475,-0.3189961016178131
1758278493419173600,249.7811735839844,1.8993057012557983,-0.2198865562677383,-0.2542360126972198
1758278493429257700,249.7912578125,1.6421778202056885,-0.2076037973165512,-0.208272784948349
1758278493439341800,249.801341796875,1.3209505081176758,-0.1328978687524795,-0.1705245971679687
1758278493449425700,249.81142578125,0.9361077547073364,-0.0206498838961124,-0.1336084008216858
1758278493459510800,249.8215107421875,0.5253697633743286,0.0830786377191543,-0.1054835468530654
1758278493469594600,249.8315947265625,0.1252074539661407,0.1524960696697235,-0.076802372932434
1758278493479678700,249.8416787109375,-0.2155429422855377,0.1556196808815002,-0.0441344380378723
1758278493489762800,249.8517626953125,-0.4545533955097198,0.0945853590965271,-0.017217868939042
1758278493499846700,249.8618466796875,-0.5926989912986755,0.0051364386454224,0.0040570595301687
1758278493509930500,249.87193041992188,-0.6594314575195312,-0.0559860356152057,0.0166258476674556
1758278493520014800,249.88201489257813,-0.7133135795593262,-0.1215631812810897,0.0395162515342235
1758278493530098700,249.8920986328125,-0.8305802941322327,-0.2511081397533417,0.0902995392680168
1758278493540182500,249.9021826171875,-1.0402352809906006,-0.4981621205806732,0.1596027165651321
1758278493550266600,249.9122666015625,-1.3601839542388916,-0.8118739724159241,0.2095817178487777
1758278493560350700,249.92235083007813,-1.7686002254486084,-1.1293704509735107,0.2051142752170562
1758278493570434600,249.9324345703125,-2.187433958053589,-1.3877424001693726,0.15522101521492
1758278493580518700,249.9425185546875,-2.513211727142334,-1.51987886428833,0.094105988740921
1758278493590602800,249.95260278320316,-2.686494827270508,-1.4883462190628052,0.062767244875431
1758278493600686800,249.96268676757813,-2.7042810916900635,-1.382285475730896,0.0627304911613464
1758278493610770700,249.97277075195316,-2.598076820373535,-1.283782958984375,0.0776521861553192
1758278493620854500,249.9828544921875,-2.4541609287261963,-1.2062982320785522,0.107440173625946
1758278493630939600,249.99293969726563,-2.3399553298950195,-1.2057461738586426,0.0983036682009697
1758278493641023700,250.00302368164063,-2.261749029159546,-1.2727603912353516,0.0299997106194496
1758278493651107800,250.01310791015624,-2.218127965927124,-1.4030249118804932,-0.0797424986958503
1758278493661191700,250.02319165039063,-2.228110313415528,-1.5856192111968994,-0.2043965458869934
1758278493671275500,250.03327563476563,-2.3051226139068604,-1.8420264720916748,-0.314744621515274
1758278493681360000,250.04335986328124,-2.4567341804504395,-2.2119359970092773,-0.4046374857425689
1758278493691443700,250.05344360351563,-2.6571595668792725,-2.6188712120056152,-0.4778475165367126
1758278493701527600,250.06352758789063,-2.852590322494507,-2.9803707599639893,-0.5538530945777893
1758278493711611600,250.07361157226563,-2.984424829483032,-3.2363533973693848,-0.6088830232620239
1758278493721695700,250.08369580078124,-3.0215234756469727,-3.380427598953247,-0.6160762310028076
1758278493731779600,250.09377954101564,-2.9616291522979736,-3.374305009841919,-0.5976972579956055
1758278493741863700,250.10386376953124,-2.848587989807129,-3.192241907119751,-0.5957789421081543
1758278493751947500,250.11394750976564,-2.744018793106079,-2.8451004028320312,-0.6264132857322693
1758278493762031900,250.12403198242188,-2.686772584915161,-2.3733513355255127,-0.6797657608985901
1758278493772115700,250.13411572265625,-2.700767993927002,-1.9345591068267824,-0.7502796053886414
1758278493782199600,250.1441994628906,-2.768028259277344,-1.5671815872192385,-0.827936589717865
1758278493792283600,250.15428369140625,-2.8561832904815674,-1.334837555885315,-0.9186683297157288
1758278493802367700,250.16436767578125,-2.93037223815918,-1.350514531135559,-1.03131103515625
1758278493812452900,250.17445288085935,-2.954005002975464,-1.5197395086288452,-1.1753381490707395
1758278493822536700,250.1845366210937,-2.923218011856079,-1.8250623941421509,-1.371274471282959
1758278493832620500,250.19462060546877,-2.869778871536255,-2.2808423042297363,-1.602253556251526
1758278493842705000,250.2047048339844,-2.8129186630249023,-2.8245184421539307,-1.8230583667755127
1758278493852788700,250.21478881835935,-2.783712148666382,-3.4056389331817627,-1.999529838562012
1758278493862872600,250.22487255859372,-2.8035809993743896,-3.992122411727905,-2.15603256225586
1758278493872956700,250.23495678710935,-2.851982355117798,-4.525329113006592,-2.282778024673462
1758278493883040800,250.2450407714844,-2.8885059356689453,-4.920915603637695,-2.371933698654175
1758278493893124600,250.25512451171875,-2.857708692550659,-5.14192533493042,-2.428126096725464
1758278493903208700,250.2652087402344,-2.7379589080810547,-5.163327693939209,-2.4308321475982666
1758278493913292500,250.27529248046875,-2.5547192096710205,-4.995631217956543,-2.4076595306396484
1758278493923377000,250.285376953125,-2.363680124282837,-4.633116245269775,-2.3779211044311523
1758278493933460700,250.2954606933594,-2.178518056869507,-4.082509517669678,-2.362029790878296
1758278493943544600,250.3055446777344,-1.9993900060653689,-3.389303207397461,-2.3319129943847656
1758278493953628700,250.31562866210936,-1.808848023414612,-2.648526906967163,-2.258445978164673
1758278493963712800,250.3257126464844,-1.5997768640518188,-1.9794293642044067,-2.095196485519409
1758278493973796600,250.33579663085936,-1.3742936849594116,-1.39095938205719,-1.8548299074172971
1758278493983881700,250.3458818359375,-1.1790423393249512,-0.8583115339279175,-1.5827677249908447
1758278493993965600,250.35596557617188,-1.0447386503219604,-0.3942650258541107,-1.3138028383255005
1758278494004049700,250.36604956054688,-0.950771152973175,0.015140070579946,-1.0712445974349976
1758278494014133800,250.3761337890625,-0.8634365200996399,0.3744204640388489,-0.8297832012176514
1758278494024217600,250.38621752929689,-0.7433231472969055,0.6475223302841187,-0.6086641550064087
1758278494034301700,250.3963017578125,-0.5700413584709167,0.8149131536483765,-0.4277686476707458
1758278494044385800,250.4063857421875,-0.3540382385253906,0.8369455337524414,-0.2532460987567901
1758278494054469600,250.4164697265625,-0.1062428131699562,0.718404233455658,-0.0713333040475845
1758278494064553700,250.4265537109375,0.1389749348163604,0.5336546301841736,0.1097280979156494
1758278494074637600,250.43663745117183,0.346905767917633,0.3192818462848663,0.2956516146659851
1758278494084722000,250.4467219238281,0.4871233105659485,0.0840903744101524,0.4692116975784302
1758278494094805800,250.4568056640625,0.5684288144111633,-0.198581263422966,0.6524888277053833
1758278494104889600,250.4668896484375,0.6144368052482605,-0.506727933883667,0.8527305722236633
1758278494114973700,250.4769736328125,0.6439310312271118,-0.7377856373786926,1.0502886772155762
1758278494125057800,250.4870578613281,0.6729195713996887,-0.8336578607559204,1.2198606729507446
1758278494135141600,250.4971416015625,0.7061616778373718,-0.7875438928604126,1.3650075197219849
1758278494145225700,250.5072258300781,0.745673656463623,-0.6175809502601624,1.490071415901184
1758278494155309600,250.5173095703125,0.7936723232269287,-0.334627240896225,1.5914256572723389
1758278494165394700,250.52739477539063,0.8463712334632874,0.0803406462073326,1.6681811809539795
1758278494175478800,250.53747875976563,0.9128410816192628,0.6199599504470825,1.7500063180923462
1758278494185562600,250.54756274414063,1.0100592374801636,1.276761770248413,1.816543459892273
1758278494195646700,250.55764672851564,1.1677674055099487,2.016974687576294,1.8697556257247925
1758278494205730600,250.56773046875,1.4066082239151,2.777974843978882,1.8967856168746948
1758278494215814700,250.57781469726564,1.6928836107254028,3.4639391899108887,1.8961573839187624
1758278494225898800,250.58789868164064,1.964656472206116,4.017242431640625,1.8575074672698972
1758278494235982600,250.59798266601564,2.166759729385376,4.435113430023193,1.785759449005127
1758278494246066700,250.6080666503906,2.288280963897705,4.704263687133789,1.689202904701233
1758278494256150800,250.61815087890625,2.359255313873291,4.82628059387207,1.5695571899414062
1758278494266234600,250.6282346191406,2.4267868995666504,4.822665214538574,1.438226580619812
1758278494276318700,250.6383186035156,2.505884885787964,4.716139793395996,1.3069835901260376
1758278494286402800,250.64840283203125,2.5764315128326416,4.5067524909973145,1.166654109954834
1758278494296486700,250.6584865722656,2.632422924041748,4.21874475479126,1.009699463844299
1758278494306570800,250.66857080078125,2.6623597145080566,3.8926286697387695,0.8498551845550537
1758278494316654600,250.6786545410156,2.675203800201416,3.5594637393951416,0.691290020942688
1758278494326738700,250.68873876953128,2.6893696784973145,3.257076501846313,0.5442577004432678
1758278494336822800,250.69882275390623,2.7152600288391118,2.9899778366088867,0.4001221060752868
1758278494346906600,250.70890673828129,2.758219957351685,2.774427890777588,0.2473157793283462
1758278494356991700,250.71899169921875,2.8170292377471924,2.58362889289856,0.0913765206933021
1758278494367075600,250.72907568359372,2.881927490234375,2.4343936443328857,-0.0450790598988533
1758278494377159700,250.73915966796875,2.9664738178253174,2.3153247833251958,-0.16603584587574
1758278494387243800,250.7492438964844,3.0625572204589844,2.232055902481079,-0.266628235578537
1758278494397327600,250.75932763671875,3.165900707244873,2.1261255741119385,-0.3409248292446136
1758278494407411500,250.76941137695312,3.2716619968414307,1.9614990949630735,-0.3951174914836883
1758278494417495300,250.7794953613281,3.375354766845703,1.7654606103897097,-0.4189035296440124
1758278494427579400,250.78957934570312,3.479064464569092,1.6101895570755005,-0.4162794947624206
1758278494437663200,250.7996633300781,3.5768380165100098,1.5470563173294067,-0.4002043902873993
1758278494447747300,250.80974731445312,3.656084299087525,1.4701546430587769,-0.3946027159690857
1758278494457831400,250.8198315429688,3.7093021869659424,1.366217017173767,-0.3985191583633423
1758278494467915300,250.82991528320312,3.7173879146575928,1.2980856895446775,-0.4110354781150818
1758278494477999000,250.8399990234375,3.6767542362213135,1.2213715314865112,-0.4206060767173767
1758278494488083500,250.85008349609376,3.58626389503479,1.138018250465393,-0.4313220977783203
1758278494498167300,250.86016723632807,3.468768119812012,1.0931909084320068,-0.4333397150039673
1758278494508251400,250.87025146484376,3.3222644329071045,1.0776718854904177,-0.4235906898975372
1758278494518335200,250.88033520507813,3.143506526947021,1.1256217956542969,-0.4368076920509338
1758278494528419300,250.89041943359376,2.9161782264709477,1.2412748336791992,-0.488015204668045
1758278494538504400,250.90050439453125,2.64955997467041,1.3797019720077517,-0.5350317358970642
1758278494548588300,250.91058837890623,2.35927963256836,1.5138461589813232,-0.5602441430091858
1758278494558672400,250.92067236328128,2.061533212661743,1.6032575368881226,-0.5804814696311951
1758278494568756200,250.9307561035156,1.761181116104126,1.6046775579452517,-0.5891205072402954
1758278494578840300,250.94084033203129,1.4568673372268677,1.5299423933029177,-0.5982812643051147
1758278494588924400,250.95092431640623,1.1699460744857788,1.3918441534042358,-0.6201066970825195
1758278494599008300,250.9610083007813,0.9104743003845216,1.1672816276550293,-0.66236811876297
1758278494609092400,250.97109228515623,0.6485266089439392,0.835932195186615,-0.6784906387329102
1758278494619176400,250.98117651367187,0.3763760328292846,0.4130304455757141,-0.6677786111831665
1758278494629260300,250.99126025390623,0.1165745481848716,-0.0405905693769454,-0.6481689214706421
1758278494639344000,251.0013442382813,-0.120208166539669,-0.4660246968269348,-0.660430908203125
1758278494649428500,251.01142846679687,-0.3323055207729339,-0.8156745433807373,-0.6950522661209106
1758278494659512300,251.02151220703124,-0.5181810855865479,-1.095055103302002,-0.735894501209259
1758278494669596200,251.03159619140624,-0.6864233613014221,-1.3270105123519895,-0.7979879975318909
1758278494679680300,251.04168017578124,-0.8385628461837769,-1.5409218072891235,-0.8667047023773193
1758278494689764400,251.05176440429688,-0.9619569182395936,-1.736899495124817,-0.9053668975830078
1758278494699848400,251.06184838867188,-1.0670857429504397,-1.9240508079528809,-0.8842786550521851
1758278494709932300,251.07193237304688,-1.1685357093811035,-2.1207242012023926,-0.8060048818588257
1758278494720017200,251.08201708984376,-1.2604032754898071,-2.2946372032165527,-0.6735198497772217
1758278494730101200,251.09210131835937,-1.3294901847839355,-2.309844493865967,-0.5437256097793579
1758278494740185300,251.1021853027344,-1.3755309581756592,-2.050497770309448,-0.4456368684768677
1758278494750269400,251.11226953125,-1.3856596946716309,-1.4512875080108645,-0.3974091410636902
1758278494760353300,251.1223532714844,-1.3480734825134275,-0.6197966933250427,-0.3427078127861023
1758278494770437000,251.1324370117188,-1.2633620500564575,0.2196913510560989,-0.2060085535049438
1758278494780521500,251.142521484375,-1.1299017667770386,0.9470880031585692,-0.0399777777493
1758278494790605300,251.15260522460937,-0.9843432307243348,1.5171293020248413,0.1275150775909423
1758278494800689200,251.1626892089844,-0.8451853394508362,1.916372895240784,0.2680341005325317
1758278494810773200,251.17277319335935,-0.753741979598999,2.183601140975952,0.3622575402259826
1758278494820857300,251.182857421875,-0.7344849109649658,2.3122479915618896,0.4258945882320404
1758278494830941200,251.19294116210935,-0.7886546850204468,2.228311538696289,0.4780600368976593
1758278494841025300,251.203025390625,-0.9131353497505188,1.9024856090545652,0.5154595971107483
1758278494851109400,251.213109375,-1.0804071426391602,1.3971259593963623,0.5261365175247192
1758278494861193500,251.223193359375,-1.270485281944275,0.7881385684013367,0.5060663819313049
1758278494871277300,251.23327734375,-1.4856423139572144,0.130641371011734,0.4594520032405853
1758278494881361200,251.2433610839844,-1.685923457145691,-0.5544341802597046,0.4045368432998657
1758278494891445500,251.25344555664063,-1.8624497652053835,-1.2222449779510498,0.3404960632324219
1758278494901530400,251.2635302734375,-1.998990774154663,-1.824081301689148,0.2848887145519256
1758278494911614500,251.27361450195312,-2.093855619430542,-2.310301780700684,0.2395721077919006
1758278494921698300,251.2836982421875,-2.142382860183716,-2.6852853298187256,0.2006841003894806
1758278494931782100,251.2937822265625,-2.161824941635132,-2.967901468276977,0.1569139808416366
1758278494941866500,251.3038664550781,-2.1573495864868164,-3.177281856536865,0.1040957793593406
1758278494951950300,251.31395043945312,-2.1521599292755127,-3.335255622863769,0.0464929342269897
1758278494962034200,251.3240341796875,-2.1438913345336914,-3.4591400623321533,-0.0187172293663024
1758278494972118300,251.3341181640625,-2.147003412246704,-3.5386924743652344,-0.0839910432696342
1758278494982202400,251.34420239257813,-2.1657886505126958,-3.578371286392212,-0.1408503204584121
1758278494992286200,251.3542861328125,-2.1923577785491943,-3.5767464637756348,-0.1886554062366485
1758278495002370300,251.36437036132813,-2.220073699951172,-3.5285141468048096,-0.2120344936847686
1758278495012454100,251.3744541015625,-2.2432565689086914,-3.448537349700928,-0.2221451848745346
1758278495022538500,251.38453857421877,-2.288144111633301,-3.306342601776123,-0.2331086248159408
1758278495032622300,251.39462231445316,-2.3484036922454834,-3.106355905532837,-0.2711151242256164
1758278495042706200,251.4047060546875,-2.431971788406372,-2.8712821006774902,-0.3212730884552002
1758278495052790500,251.4147905273437,-2.5309972763061523,-2.5999748706817627,-0.3706318736076355
1758278495062874400,251.42487426757813,-2.634748697280884,-2.301511287689209,-0.3988919854164123
1758278495072958200,251.43495825195316,-2.703608274459839,-1.998168706893921,-0.4182113707065582
1758278495083043300,251.44504321289065,-2.7270634174346924,-1.7026501893997192,-0.4278128445148468
1758278495093127200,251.45512719726565,-2.700131416320801,-1.4083884954452517,-0.4176326692104339
1758278495103211500,251.4652114257813,-2.634117603302002,-1.0866533517837524,-0.3979785144329071
1758278495113295400,251.47529541015624,-2.5373375415802,-0.7535688281059265,-0.3666373789310455
1758278495123379200,251.48537915039063,-2.4308478832244877,-0.4340742230415344,-0.3258849084377289
1758278495133463300,251.49546337890624,-2.3249611854553223,-0.1142623946070671,-0.2685278654098511
1758278495143547400,251.50554736328124,-2.240814685821533,0.1964278370141983,-0.2115386128425598
1758278495153631200,251.51563134765624,-2.1874353885650635,0.5046442747116089,-0.1620600074529647
1758278495163715300,251.52571533203124,-2.151943683624268,0.7421606779098511,-0.1288011223077774
1758278495173799200,251.53579907226563,-2.1133713722229004,0.8827803730964661,-0.1075560227036476
1758278495183883500,251.54588354492188,-2.050931215286255,0.907425820827484,-0.1149095445871353
1758278495193967400,251.55596728515624,-1.9719301462173464,0.7794997692108154,-0.144840806722641
1758278495204051200,251.56605126953124,-1.8851162195205688,0.5041846036911011,-0.1903595626354217
1758278495214135300,251.57613525390624,-1.7900450229644775,0.0569873861968517,-0.2177485674619674
1758278495224219400,251.58621948242188,-1.6749871969223022,-0.4839714765548706,-0.1934549510478973
1758278495234303200,251.59630322265625,-1.5323306322097778,-0.9666513204574584,-0.1359543800354004
1758278495244387300,251.60638720703125,-1.354246973991394,-1.289478063583374,-0.0963619574904441
1758278495254471400,251.61647143554688,-1.1183515787124634,-1.477705478668213,-0.0892230868339538
1758278495264556300,251.6265563964844,-0.8339323997497559,-1.5899769067764282,-0.0715349018573761
1758278495274640400,251.63664038085935,-0.5245305895805359,-1.6363606452941897,-0.0291957017034292
1758278495284724200,251.6467241210937,-0.2443681955337524,-1.5832316875457764,0.0218725409358739
1758278495294808300,251.65680834960935,-0.0330072194337844,-1.417529582977295,0.0671068653464317
1758278495304892400,251.6668923339844,0.1184246465563774,-1.167749285697937,0.1258106529712677
1758278495314976300,251.67697631835935,0.2246381640434265,-0.8771227598190308,0.2041198462247848
1758278495325060400,251.6870603027344,0.3084915280342102,-0.5502857565879822,0.2986063957214355
1758278495335144200,251.69714428710935,0.3827537596225738,-0.1506765931844711,0.402762621641159
1758278495345228300,251.7072282714844,0.4582365453243255,0.3625446259975433,0.4995720088481903
1758278495355312400,251.7173125,0.5638098120689392,0.977609395980835,0.5825188159942627
1758278495365396200,251.7273962402344,0.7264072895050049,1.626591682434082,0.6532742381095886
1758278495375480300,251.73748022460936,0.9523797035217284,2.2276008129119877,0.7163061499595642
1758278495385564400,251.747564453125,1.2107174396514893,2.7267868518829346,0.7698908448219299
1758278495395648300,251.7576481933594,1.467095971107483,3.120556592941284,0.8106539845466614
1758278495405732900,251.76773291015624,1.704926371574402,3.428126096725464,0.831009030342102
1758278495415817000,251.77781689453124,1.9032474756240845,3.658674478530884,0.8296779990196228
1758278495425901000,251.78790112304688,2.0497610569000244,3.799034357070923,0.810910165309906
1758278495435985000,251.79798486328124,2.1392738819122314,3.860831022262573,0.769963800907135
1758278495446069000,251.80806909179688,2.166089534759521,3.842730045318604,0.7102312445640564
1758278495456153900,251.81815380859376,2.13730263710022,3.7550859451293945,0.6365761756896973
1758278495466238000,251.82823803710937,2.074399709701538,3.607143878936768,0.5476534962654114
1758278495476322000,251.8383220214844,1.9914284944534304,3.425348281860352,0.4478110671043396
1758278495486406000,251.84840600585937,1.9122025966644287,3.2239460945129395,0.3391327857971191
1758278495496490000,251.8584899902344,1.8460832834243772,3.020995855331421,0.2317783683538437
1758278495506573800,251.86857373046877,1.8002082109451294,2.799983024597168,0.1259246468544006
1758278495516658000,251.8786579589844,1.7761545181274414,2.585392713546753,0.0182660892605781
1758278495526742000,251.88874194335935,1.7892807722091677,2.412104845046997,-0.0812120288610458
1758278495536825900,251.8988259277344,1.8297439813613887,2.2713119983673096,-0.1751696914434433
1758278495546910000,251.90890991210935,1.8966695070266724,2.1214842796325684,-0.2678623497486114
1758278495556994000,251.918994140625,1.98462975025177,1.9880625009536743,-0.3518160879611969
1758278495567078000,251.92907788085935,2.090433359146118,1.857415080070496,-0.4245275855064392
1758278495577162000,251.9391618652344,2.2008893489837646,1.7213466167449951,-0.4972121715545654
1758278495587245800,251.94924584960935,2.317960262298584,1.584001064300537,-0.5539425611495972
1758278495597330000,251.9593298339844,2.42448091506958,1.4384864568710327,-0.600800096988678
1758278495607414000,251.9694140625,2.521655797958374,1.2899940013885498,-0.6400686502456665
1758278495617497900,251.9794978027344,2.59531307220459,1.1388413906097412,-0.680008590221405
1758278495627582000,251.98958203125,2.6224730014801025,0.9731009602546692,-0.7192119359970093
1758278495637666800,251.99966674804688,2.574821949005127,0.7977733612060547,-0.7543558478355408
1758278495647751000,252.0097509765625,2.439040422439575,0.5917357206344604,-0.7622707486152649
1758278495657835000,252.0198349609375,2.2331085205078125,0.3754492402076721,-0.7376548647880554
1758278495667918800,252.0299189453125,1.9963494539260864,0.1656382381916046,-0.7060929536819458
1758278495678003000,252.0400029296875,1.7199043035507202,-0.0401937589049339,-0.6874433755874634
1758278495688087000,252.05008715820316,1.4241410493850708,-0.2417543083429336,-0.664758026599884
1758278495698171000,252.0601708984375,1.0972117185592651,-0.4142397940158844,-0.640775203704834
1758278495708255000,252.0702548828125,0.7607799172401428,-0.5426004528999329,-0.6165167093276978
1758278495718339000,252.08033911132813,0.4048500061035156,-0.6463294625282288,-0.6062781810760498
1758278495728423000,252.0904228515625,0.0517044737935066,-0.7459876537322998,-0.6160517334938049
1758278495738507000,252.10050708007813,-0.2669185101985931,-0.8166801929473877,-0.6284990906715393
1758278495748590800,252.1105908203125,-0.5367377400398254,-0.9708620309829712,-0.5248432755470276
1758278495758675000,252.12067504882813,-0.7349592447280884,-1.1091102361679075,-0.3748289942741394
1758278495768759000,252.13075903320316,-0.8191776871681213,-1.1069037914276123,-0.2021333873271942
1758278495778843000,252.1408427734375,-0.8036069869995117,-1.0329704284667969,-0.0575160235166549
1758278495788926700,252.1509267578125,-0.7661597728729248,-0.9210124611854552,-0.0435016714036464
1758278495799011000,252.1610109863281,-0.818230926990509,-0.8418529033660889,-0.0926793366670608
1758278495809095000,252.17109497070317,-1.0082573890686035,-0.7846729755401611,-0.1369261592626571
1758278495819180000,252.18117993164063,-1.322717785835266,-0.7142395377159119,-0.1286136358976364
1758278495829264000,252.19126391601563,-1.6755821704864502,-0.6124500632286072,-0.0474551320075988
1758278495839347700,252.20134765625,-1.9874897003173828,-0.3636213541030884,-0.020208865404129
1758278495849432000,252.21143212890624,-2.226524353027344,-0.0445935651659965,0.0109855392947793
1758278495859516000,252.22151586914063,-2.363119840621948,0.2167882323265075,0.0767919868230819
1758278495869600000,252.23160009765624,-2.411349058151245,0.4635618031024933,0.1656502187252044
1758278495879684000,252.24168408203124,-2.354544878005981,0.6534534692764282,0.2578533887863159
1758278495889768000,252.25176782226563,-2.207002878189087,0.7283234000205994,0.3256598711013794
1758278495899852000,252.26185205078124,-1.9926583766937256,0.7070636749267578,0.3719024658203125
1758278495909935900,252.27193579101564,-1.765055537223816,0.5890869498252869,0.3721487820148468
1758278495920020000,252.28202001953125,-1.5544027090072632,0.3310887217521667,0.3323896527290344
1758278495930104000,252.29210400390625,-1.4049618244171145,-0.0592508055269718,0.2596965432167053
1758278495940188000,252.30218798828125,-1.3508650064468384,-0.56441330909729,0.1794129014015197
1758278495950271700,252.3122717285156,-1.406019926071167,-1.097803235054016,0.1204502508044242
1758278495960356000,252.32235620117189,-1.5610520839691162,-1.5692695379257202,0.1041812598705291
1758278495970440000,252.33243994140625,-1.771173119544983,-1.876230239868164,0.1249501928687095
1758278495980523800,252.3425236816406,-1.998538613319397,-2.0087835788726807,0.1563065201044082
1758278495990608000,252.35260791015625,-2.17680287361145,-2.006677389144897,0.1753963232040405
1758278496000692700,252.36269262695316,-2.2836310863494877,-1.9028624296188357,0.1624024957418441
1758278496010777000,252.37277709960935,-2.300251245498657,-1.7134323120117188,0.1140565276145935
1758278496020861000,252.38286083984372,-2.2455320358276367,-1.491158962249756,0.0379809364676475
1758278496030944800,252.39294482421877,-2.140508890151977,-1.2900099754333496,-0.0492847263813018
1758278496041028900,252.40302880859372,-2.032762289047241,-1.172039031982422,-0.1186797767877578
1758278496051113000,252.41311303710935,-1.9473726749420168,-1.168424367904663,-0.1598929911851883
1758278496061195000,252.42319506835935,-1.911940097808838,-1.2583497762680054,-0.1655583381652832
1758278496071279000,252.4332790527344,-1.9122390747070312,-1.426228165626526,-0.1491418182849884
1758278496081363000,252.44336303710935,-1.9311614036560056,-1.6437439918518066,-0.1354318559169769
1758278496091446800,252.45344677734371,-1.9435030221939087,-1.869644284248352,-0.1426572799682617
1758278496101532000,252.46353198242187,-1.9273266792297363,-2.0853960514068604,-0.1737046837806701
1758278496111616000,252.47361596679687,-1.8790029287338257,-2.2947518825531006,-0.2388514578342437
1758278496121700000,252.4837001953125,-1.7936557531356812,-2.482067823410034,-0.3292601704597473
1758278496131784000,252.49378393554687,-1.6936492919921875,-2.625272274017334,-0.4388199746608734
1758278496141867800,252.50386767578124,-1.596858263015747,-2.7069365978240967,-0.5419857501983643
1758278496151952100,252.5139521484375,-1.5294930934906006,-2.77178692817688,-0.6229733228683472
1758278496162036000,252.52403588867188,-1.4954403638839722,-2.8302462100982666,-0.6872875690460205
1758278496172119800,252.53411987304688,-1.5008920431137085,-2.872350215911865,-0.7203139662742615
1758278496182204000,252.54420385742188,-1.5258461236953735,-2.892763137817383,-0.7156198620796204
1758278496192288000,252.5542880859375,-1.5327341556549072,-2.878148317337036,-0.6826677918434143
1758278496202371800,252.56437182617188,-1.512642741203308,-2.776087045669556,-0.6293140053749084
1758278496212456000,252.5744560546875,-1.4638512134552002,-2.5804402828216557,-0.5730470418930054
1758278496222539800,252.58453979492188,-1.3794455528259275,-2.280395746231079,-0.5306412577629089
1758278496232624000,252.5946240234375,-1.276608943939209,-1.9166240692138672,-0.4950957596302032
1758278496242708000,252.6047080078125,-1.1507662534713743,-1.543511152267456,-0.45988529920578
1758278496252791800,252.61479174804688,-1.0184053182601929,-1.2100019454956057,-0.4120341539382934
1758278496262876200,252.62487622070316,-0.8759610652923584,-0.8911099433898926,-0.3423589468002319
1758278496272960000,252.6349599609375,-0.7282081246376038,-0.6016046404838562,-0.2617112398147583
1758278496283045000,252.6450451660156,-0.5751365423202515,-0.3366086483001709,-0.1923135221004486
1758278496293129000,252.65512890625,-0.4114855527877807,-0.1180811002850532,-0.1336323618888855
1758278496303212800,252.665212890625,-0.230779156088829,0.032450083643198,-0.0668874233961105
1758278496313297200,252.67529711914065,-0.0425993911921978,0.102035291492939,0.0067228837870061
1758278496323381000,252.6853811035156,0.1497391611337661,0.0961334556341171,0.0924646854400634
1758278496333464800,252.69546484375,0.3248459994792938,0.033784594386816,0.1944533735513687
1758278496343549000,252.705548828125,0.4761524200439453,-0.0514541342854499,0.3002405166625976
1758278496353633000,252.71563305664063,0.5953192710876465,-0.1215029954910278,0.3906457722187042
1758278496363716900,252.725716796875,0.6805926561355591,-0.1554583013057708,0.4615609645843506
1758278496373801000,252.73580102539063,0.7472954988479614,-0.1317409873008728,0.521447479724884
1758278496383884800,252.745884765625,0.8117615580558777,-0.0702512562274932,0.5936942100524902
1758278496393969000,252.75596899414063,0.8867564797401428,0.0315829589962959,0.6755504608154297
1758278496404053000,252.76605297851563,0.9678939580917358,0.1877696365118026,0.7525954842567444
1758278496414136000,252.7761359863281,1.0462342500686646,0.4208987653255462,0.809852659702301
1758278496424220200,252.78622021484372,1.1122643947601318,0.725433886051178,0.8390965461730957
1758278496434304300,252.79630419921875,1.1615533828735352,1.0654956102371216,0.8541823029518127
1758278496444388000,252.80638818359373,1.215715765953064,1.4075312614440918,0.8722920417785645
1758278496454472200,252.81647216796875,1.2950270175933838,1.7280131578445437,0.9139774441719056
1758278496464557000,252.82655712890624,1.4276399612426758,2.049525499343872,0.9717358350753784
1758278496474641200,252.83664111328125,1.6366804838180542,2.389408588409424,1.0438755750656128
1758278496484725200,252.84672534179688,1.9019750356674197,2.7301290035247803,1.1088755130767822
1758278496494809000,252.85680908203125,2.205408334732056,3.049912929534912,1.1596282720565796
1758278496504893200,252.86689306640625,2.51786732673645,3.3341434001922607,1.180302381515503
1758278496514977300,252.8769772949219,2.80969500541687,3.563986301422119,1.1660102605819702
1758278496525061000,252.88706103515625,3.0578558444976807,3.7241291999816895,1.113588809967041
1758278496535145000,252.89714501953125,3.237696409225464,3.795961380004883,1.0333608388900757
1758278496545229300,252.9072292480469,3.3204052448272705,3.810746908187866,0.934192419052124
1758278496555313200,252.91731323242183,3.2927114963531494,3.765538454055786,0.7977267503738403
1758278496565397200,252.9273972167969,3.1675612926483154,3.618919849395752,0.6967058181762695
1758278496575481000,252.93748120117183,2.9903807640075684,3.453431367874145,0.6455941796302795
1758278496585565200,252.9475651855469,2.822688579559326,3.2667171955108643,0.5925142168998718
1758278496595649300,252.95764916992184,2.665053606033325,3.043811321258545,0.5323624610900879
1758278496605733000,252.96773315429687,2.520482301712036,2.8121883869171143,0.4852303564548492
1758278496615817000,252.9778168945313,2.3855292797088623,2.608659505844116,0.444752424955368
1758278496625901300,252.9879013671875,2.263889074325561,2.412877559661865,0.3979295194149017
1758278496635986200,252.9979860839844,2.1628003120422363,2.2119791507720947,0.3492293655872345
1758278496646070300,253.0080703125,2.080713987350464,2.027747869491577,0.3067421019077301
1758278496656154000,253.0181540527344,2.013835191726685,1.82952344417572,0.2576541900634765
1758278496666238000,253.02823803710936,1.9672763347625728,1.63249409198761,0.2049246579408645
1758278496676322300,253.038322265625,1.9245131015777588,1.441904067993164,0.1462767869234085
1758278496686406100,253.04840625,1.888400912284851,1.221264123916626,0.0811507776379585
1758278496696490000,253.0584899902344,1.872363567352295,1.0022356510162354,0.0058062239550054
1758278496706574000,253.06857397460936,1.883636236190796,0.8845279216766357,-0.0599901005625724
1758278496716658200,253.078658203125,1.91238534450531,0.8097301125526428,-0.1068782433867454
1758278496726742000,253.08874194335937,1.9301209449768064,0.6592950820922852,-0.1480728238821029
1758278496736826000,253.098826171875,1.9332070350646973,0.4745177924633026,-0.1715198308229446
1758278496746910200,253.10891015625,1.905717849731445,0.3021452128887176,-0.1705320626497268
1758278496756994300,253.1189943847656,1.846994400024414,0.1399938613176345,-0.1503351777791977
1758278496767078100,253.129078125,1.7635631561279297,0.0163531396538019,-0.1158110201358795
1758278496777162000,253.1391618652344,1.6394014358520508,-0.0530115514993667,-0.0812322720885276
1758278496787246300,253.14924633789065,1.4668056964874268,-0.0968048423528671,-0.0570792630314827
1758278496797330200,253.159330078125,1.25509774684906,-0.0936817526817321,-0.0182788725942373
1758278496807415300,253.16941528320316,1.0349595546722412,-0.0521116703748703,0.0188629031181335
1758278496817499100,253.1794990234375,0.822630763053894,0.0397753752768039,0.0214267279952764
1758278496827583000,253.1895830078125,0.6533903479576111,0.1690531969070434,0.0143938530236482
1758278496837667300,253.1996672363281,0.5066916942596436,0.2536759376525879,0.0534147545695304
1758278496847751200,253.2097512207031,0.3810213804244995,0.3952855467796325,0.0628513991832733
1758278496857835000,253.2198349609375,0.2551502585411072,0.5974671244621277,0.0394877530634403
1758278496867919000,253.2299191894531,0.1345274448394775,0.7826346158981323,0.0134034231305122
1758278496878003200,253.2400031738281,0.0271069854497909,0.9274900555610656,-0.0241274405270814
1758278496888087000,253.25008715820312,-0.079212799668312,1.0324339866638184,-0.0807124227285385
1758278496898171100,253.2601711425781,-0.1555624306201934,1.0875593423843384,-0.1177250370383262
1758278496908255000,253.2702548828125,-0.1896093487739563,1.1018214225769043,-0.1281273365020752
1758278496918339300,253.28033935546875,-0.2109338045120239,1.0856515169143677,-0.1157574951648712
1758278496928423200,253.29042309570312,-0.2834114730358124,0.9894692897796632,-0.1355604976415634
1758278496938507000,253.3005070800781,-0.4416272044181824,0.7992551326751709,-0.1686470657587051
1758278496948591400,253.31059130859376,-0.6691762208938599,0.484504371881485,-0.1626906394958496
1758278496958675200,253.3206752929688,-0.9274280071258544,0.0506053864955902,-0.1092564463615417
1758278496968760300,253.33076025390625,-1.209969162940979,-0.4647016227245331,-0.0389838851988315
1758278496978844200,253.34084423828125,-1.5282888412475586,-0.9722950458526612,0.0019590212032198
1758278496988928000,253.3509279785156,-1.873164176940918,-1.410527586936951,-0.0238874889910221
1758278496999012400,253.3610124511719,-2.1856019496917725,-1.7179995775222778,-0.0563817843794822
1758278497009096200,253.37109619140625,-2.4154090881347656,-1.8910667896270752,-0.0596193894743919
1758278497019180000,253.38117993164065,-2.5459136962890625,-1.9855098724365237,-0.02422278188169
1758278497029264100,253.39126416015625,-2.5500059127807617,-2.072378635406494,0.0564819164574146
1758278497039348200,253.40134814453128,-2.4394419193267822,-2.193687677383423,0.1499183923006057
1758278497049432000,253.41143212890623,-2.269071102142334,-2.323491096496582,0.2198916226625442
1758278497059516200,253.42151611328129,-2.139423131942749,-2.441201686859131,0.2134696692228317
1758278497069600000,253.43160009765623,-2.09895133972168,-2.537837028503418,0.1106436923146247
1758278497079684400,253.44168432617187,-2.1381759643554688,-2.628169298171997,-0.0595621317625045
1758278497089768200,253.45176831054687,-2.2058587074279785,-2.7347490787506104,-0.2395060658454895
1758278497099852000,253.4618520507813,-2.287255048751831,-2.881751298904419,-0.3798863589763641
1758278497109936000,253.47193603515623,-2.3682141304016118,-3.03812313079834,-0.4541341960430145
1758278497120021000,253.48202099609372,-2.4512743949890137,-3.1373538970947266,-0.4670095145702362
1758278497130105300,253.49210522460936,-2.542057037353516,-3.139603853225708,-0.4399771094322204
1758278497140189200,253.5021892089844,-2.622019052505493,-3.0283219814300537,-0.4017596840858459
1758278497150273000,253.51227294921875,-2.6700713634490967,-2.784665107727051,-0.3829852044582367
1758278497160357000,253.5223571777344,-2.6746134757995605,-2.456326723098755,-0.3980070352554321
1758278497170441200,253.53244116210936,-2.657024621963501,-2.0957143306732178,-0.4523935616016388
1758278497180525000,253.5425251464844,-2.6100149154663086,-1.7117044925689695,-0.53325355052948
1758278497190609200,253.55260913085937,-2.5556957721710205,-1.344850778579712,-0.6149382591247559
1758278497200693200,253.562693359375,-2.49631142616272,-1.0055835247039795,-0.6944040656089783
1758278497210777000,253.57277709960937,-2.455625534057617,-0.7360303401947021,-0.7571678757667542
1758278497220861200,253.5828610839844,-2.428117036819458,-0.5494216084480286,-0.8269991278648376
1758278497230945000,253.59294506835937,-2.4086992740631104,-0.4187344014644623,-0.8898422718048096
1758278497241029400,253.603029296875,-2.3898913860321045,-0.3454777598381042,-0.9548436403274536
1758278497251114200,253.6131142578125,-2.365487098693848,-0.346087634563446,-1.0282667875289917
1758278497261198000,253.6231979980469,-2.326772689819336,-0.4132147431373596,-1.1022850275039673
1758278497271282200,253.6332822265625,-2.2738444805145264,-0.5292758345603943,-1.178444504737854
1758278497281366000,253.6433659667969,-2.2076876163482666,-0.7272014021873474,-1.2485719919204712
1758278497291450400,253.65345043945317,-2.1393094062805176,-1.0241204500198364,-1.3166388273239136
1758278497301534200,253.6635341796875,-2.057981252670288,-1.4066060781478882,-1.382128119468689
1758278497311618000,253.6736181640625,-1.97156286239624,-1.7768250703811646,-1.4209386110305786
1758278497321702100,253.6837021484375,-1.87495756149292,-2.1073877811431885,-1.4403187036514282
1758278497331786200,253.6937861328125,-1.7585207223892212,-2.379677057266236,-1.4225927591323853
1758278497341870000,253.7038701171875,-1.6072009801864624,-2.5909135341644287,-1.3798167705535889
1758278497351954200,253.7139541015625,-1.4435105323791504,-2.697300434112549,-1.3183094263076782
1758278497362038000,253.7240380859375,-1.2656912803649902,-2.719764709472656,-1.2574442625045776
1758278497372122000,253.7341220703125,-1.07383930683136,-2.6473662853240967,-1.1990917921066284
1758278497382207200,253.74420727539064,-0.875679612159729,-2.470233917236328,-1.121738076210022
1758278497392291000,253.754291015625,-0.6667223572731018,-2.267980098724365,-1.0210628509521484
1758278497402375200,253.76437524414064,-0.4835690557956695,-2.0598881244659424,-0.8822610378265381
1758278497412459800,253.77445971679688,-0.3389594256877899,-1.8008476495742798,-0.7078397274017334
1758278497422544100,253.78454418945316,-0.2187342047691345,-1.5137732028961182,-0.5086081027984619
1758278497432628000,253.7946279296875,-0.1091821491718292,-1.2257758378982544,-0.3145076036453247
1758278497442711800,253.8047119140625,-0.0010279801208525,-0.9632392525672911,-0.1193479672074318
1758278497452796000,253.8147958984375,0.1208553165197372,-0.7432368397712708,0.0685596168041229
1758278497462880000,253.8248798828125,0.2667547166347503,-0.5554975867271423,0.2463562488555908
1758278497472964000,253.83496411132813,0.4213072955608368,-0.3831199407577514,0.4062974452972412
1758278497483048000,253.8450478515625,0.595058023929596,-0.2099500298500061,0.544160783290863
1758278497493131800,253.8551318359375,0.7680972218513489,-0.0153312860056757,0.6669135689735413
1758278497503217000,253.865216796875,0.927701771259308,0.1773462891578674,0.7906067967414856
1758278497513301000,253.87530102539063,1.065994381904602,0.3706864416599273,0.9056050181388856
1758278497523385000,253.88538500976563,1.1663151979446411,0.5671585202217102,0.9969918727874756
1758278497533469000,253.89546899414063,1.2313940525054932,0.7835413813591003,1.0637933015823364
1758278497543552800,253.905552734375,1.2611359357833862,1.0109751224517822,1.1025127172470093
1758278497553637000,253.91563720703124,1.281409740447998,1.2406694889068604,1.1325076818466189
1758278497563721000,253.92572094726563,1.3024176359176636,1.4977372884750366,1.1526014804840088
1758278497573804800,253.9358046875,1.345812201499939,1.786777138710022,1.185041427612305
1758278497583889000,253.94588891601563,1.4279690980911257,2.1110289096832275,1.2177183628082275
1758278497593973000,253.95597290039063,1.5525888204574585,2.4671952724456787,1.240961670875549
1758278497604056800,253.96605688476564,1.7208728790283203,2.8349390029907227,1.2445409297943115
1758278497614141000,253.97614086914064,1.914936900138855,3.184710025787353,1.2386863231658936
1758278497624225800,253.98622583007813,2.126861095428467,3.488971710205078,1.22589111328125
1758278497634310000,253.99630981445316,2.3550233840942383,3.735965013504028,1.2042465209960938
1758278497644394000,254.00639404296876,2.5860042572021484,3.922930240631104,1.1728116273880005
1758278497654477800,254.01647778320316,2.814170837402344,4.054997444152832,1.1368474960327148
1758278497664562000,254.02656201171877,3.024322271347046,4.131048679351807,1.0998584032058716
1758278497674646000,254.0366459960937,3.2027013301849365,4.1573872566223145,1.0515272617340088
1758278497684730000,254.04673022460935,3.334127187728882,4.12852668762207,0.9991722106933594
1758278497694814000,254.0568139648437,3.420834541320801,4.070363998413086,0.9256133437156676
1758278497704897800,254.06689770507813,3.4529356956481934,3.9628729820251465,0.8372786641120911
1758278497714982100,254.0769821777344,3.430781364440918,3.824702739715576,0.7371994853019714
1758278497725067000,254.0870668945313,3.3565163612365723,3.684069633483887,0.6290605068206787
1758278497735151000,254.09715112304687,3.244379758834839,3.5061776638031006,0.5216789245605469
1758278497745235000,254.1072348632813,3.122785806655884,3.273120403289795,0.407584547996521
1758278497755318800,254.11731884765624,2.991219520568848,2.9606220722198486,0.2956801354885101
1758278497765403100,254.12740307617187,2.867265462875366,2.6058571338653564,0.1966422200202942
1758278497775487000,254.13748706054687,2.76652455329895,2.2584354877471924,0.113640546798706
