time,seconds_elapsed,z,y,x
1758278398145273000,154.50727319335937,-0.0516911037266254,-0.2051667869091034,-0.1714808642864227
1758278398155357200,154.51735717773437,-0.4186728298664093,-0.551397442817688,-0.1781387776136398
1758278398165441000,154.52744091796876,-0.7568138837814331,-0.8698946833610535,-0.195192813873291
1758278398175526000,154.53752587890625,-1.0657740831375122,-1.1304701566696167,-0.2292122989892959
1758278398185610000,154.54760986328125,-1.3628692626953125,-1.3700780868530271,-0.2888059318065643
1758278398195694000,154.55769409179686,-1.644054889678955,-1.6262283325195312,-0.3765277862548828
1758278398205778200,154.56777807617186,-1.91392719745636,-1.901899337768555,-0.4743465483188629
1758278398215863000,154.57786303710938,-2.1576411724090576,-2.1369123458862305,-0.5761213302612305
1758278398225947000,154.58794677734377,-2.33472752571106,-2.2262661457061768,-0.6842085123062134
1758278398236031000,154.59803100585938,-2.4140098094940186,-2.1407744884490967,-0.7930788397789001
1758278398246115800,154.60811572265624,-2.390751600265503,-1.9226974248886108,-0.863995373249054
1758278398256200200,154.6182001953125,-2.301905632019043,-1.6309630870819092,-0.8922547101974487
1758278398266284000,154.62828393554688,-2.181875944137573,-1.3583732843399048,-0.8894999027252197
1758278398276369200,154.638369140625,-2.0850489139556885,-1.145180106163025,-0.8746229410171509
1758278398286453000,154.64845288085937,-2.019341468811035,-0.9573349952697754,-0.8642479777336121
1758278398296536800,154.65853686523437,-1.974238038063049,-0.8910806179046631,-0.8799880743026733
1758278398306621200,154.66862109375,-1.96221387386322,-0.9012224674224854,-0.8949719071388245
1758278398316706600,154.67870654296874,-1.9907288551330569,-0.9100814461708068,-0.8991909027099609
1758278398326790700,154.68879077148438,-2.052322626113892,-0.915458619594574,-0.8907845616340637
1758278398336874800,154.69887475585938,-2.1437087059021,-0.9386707544326782,-0.8812597393989563
1758278398346959600,154.70895971679687,-2.2533061504364014,-1.004171371459961,-0.8621010184288025
1758278398357043700,154.71904370117187,-2.3704776763916016,-1.0720736980438232,-0.8430309295654297
1758278398367127600,154.72912744140626,-2.492443323135376,-1.0811811685562134,-0.8105071187019348
1758278398377212700,154.73921264648436,-2.606830358505249,-1.0368506908416748,-0.7659385800361633
1758278398387296800,154.749296875,-2.720515727996826,-0.9738361239433287,-0.726689875125885
1758278398397380600,154.75938061523436,-2.840137004852295,-0.9094544649124146,-0.705032467842102
1758278398407465700,154.7694658203125,-2.969732522964477,-0.7969735264778137,-0.689304530620575
1758278398417549600,154.77954956054688,-3.116875171661377,-0.618066668510437,-0.7040821313858032
1758278398427633700,154.78963354492188,-3.2750065326690674,-0.4198395609855652,-0.7490170001983643
1758278398437717800,154.7997177734375,-3.441046476364136,-0.246850237250328,-0.8246289491653442
1758278398447803000,154.80980297851562,-3.604240655899048,-0.1730934083461761,-0.919064998626709
1758278398457886700,154.81988671875,-3.7275562286376953,-0.2717025578022003,-1.0556236505508425
1758278398467970600,154.82997045898438,-3.7839643955230713,-0.450503259897232,-1.2032036781311035
1758278398478055700,154.8400556640625,-3.7815561294555664,-0.725447952747345,-1.3428540229797363
1758278398488139500,154.85013940429687,-3.733069658279419,-1.1852800846099854,-1.4358726739883425
1758278398498223900,154.8602238769531,-3.662276268005371,-1.7693402767181396,-1.4792635440826416
1758278398508308700,154.87030883789063,-3.584500312805176,-2.3286592960357666,-1.4821540117263794
1758278398518392800,154.88039282226563,-3.5067057609558105,-2.862107038497925,-1.4764673709869385
1758278398528476700,154.8904765625,-3.402229070663452,-3.3480265140533447,-1.4641461372375488
1758278398538560500,154.900560546875,-3.2755837440490723,-3.7476844787597656,-1.4559504985809326
1758278398548645600,154.91064575195313,-3.134979724884033,-4.11207914352417,-1.471977472305298
1758278398558729700,154.92072973632813,-3.00538182258606,-4.318606376647949,-1.5038278102874756
1758278398568813800,154.93081372070313,-2.9040656089782715,-4.398970603942871,-1.546022653579712
1758278398578898700,154.94089868164062,-2.8105270862579346,-4.378921031951904,-1.5975351333618164
1758278398588982500,154.950982421875,-2.710556983947754,-4.245976448059082,-1.629542112350464
1758278398599066600,154.96106665039062,-2.5964131355285645,-4.020687103271484,-1.6186306476593018
1758278398609151500,154.9711513671875,-2.470654964447021,-3.7123148441314697,-1.5645073652267456
1758278398619235800,154.98123583984375,-2.311363458633423,-3.314050436019897,-1.4626271724700928
1758278398629319700,154.9913195800781,-2.104856252670288,-2.8540737628936768,-1.3044129610061646
1758278398639403500,155.0014035644531,-1.850123763084412,-2.424471139907837,-1.1090857982635498
1758278398649488600,155.01148852539063,-1.552966594696045,-2.048651218414306,-0.902493178844452
1758278398659572500,155.02157250976563,-1.247647404670715,-1.701204538345337,-0.6935202479362488
1758278398669656800,155.03165673828124,-0.9300443530082704,-1.38165283203125,-0.5063979625701904
1758278398679741700,155.04174169921876,-0.6168693900108337,-1.0799068212509155,-0.3488072752952575
1758278398689825800,155.05182568359376,-0.3274126648902893,-0.82790607213974,-0.2086501866579055
1758278398699909600,155.06190966796876,-0.0991121083498001,-0.6044021248817444,-0.0852302461862564
1758278398709994800,155.07199487304686,0.0363246984779834,-0.3791589736938476,0.0409434512257576
1758278398720078600,155.08207861328123,0.0837446749210357,-0.1323899179697036,0.1861182153224945
1758278398730162700,155.09216259765626,0.0865273624658584,0.1403205692768097,0.3631014227867126
1758278398740246800,155.10224682617186,0.0987672507762909,0.4075751900672912,0.5639503598213196
1758278398750331600,155.11233154296875,0.1621019840240478,0.6315587759017944,0.7588682770729065
1758278398760415700,155.12241577148438,0.2887933552265167,0.8152596354484558,0.9323644638061525
1758278398770499600,155.13249951171875,0.4555156230926513,0.9987906217575072,1.0804613828659058
1758278398780584400,155.14258447265624,0.642500638961792,1.203407645225525,1.1973108053207395
1758278398790668800,155.15266870117188,0.846088171005249,1.438144326210022,1.3067877292633057
1758278398800752600,155.16275268554688,1.0651110410690308,1.695784091949463,1.3995733261108398
1758278398810837800,155.17283764648437,1.2879692316055298,1.994372844696045,1.505407691001892
1758278398820921600,155.18292163085937,1.5161198377609253,2.3451485633850098,1.613836646080017
1758278398831005700,155.19300561523437,1.7548799514770508,2.743379592895508,1.725089430809021
1758278398841089800,155.20308984375,2.0181243419647217,3.1691274642944336,1.8436256647109983
1758278398851174700,155.21317456054686,2.288930177688598,3.589973926544189,1.937182903289795
1758278398861258800,155.2232587890625,2.554023742675781,3.966359615325928,1.9973509311676023
1758278398871342600,155.23334252929686,2.795132637023926,4.254125595092773,2.017251491546631
1758278398881427700,155.243427734375,3.0058953762054443,4.434492111206055,1.999817371368408
1758278398891511600,155.25351147460938,3.1931252479553223,4.496562004089356,1.9483709335327148
1758278398901595600,155.263595703125,3.3544952869415283,4.437065124511719,1.8702216148376465
1758278398911679700,155.2736796875,3.486375093460083,4.288909435272217,1.75803542137146
1758278398921764600,155.2837646484375,3.579761505126953,4.072205066680908,1.6280896663665771
1758278398931848700,155.2938486328125,3.640174865722656,3.786708116531372,1.4974565505981443
1758278398941932800,155.30393286132812,3.6764073371887207,3.4385082721710205,1.3542366027832031
1758278398952017700,155.314017578125,3.697474479675293,3.069808006286621,1.2420316934585571
1758278398962101800,155.3241018066406,3.7171151638031006,2.7287909984588623,1.152970552444458
1758278398972185600,155.334185546875,3.7217767238616943,2.4285361766815186,1.071881890296936
1758278398982270700,155.34427075195313,3.700525283813477,2.1962995529174805,0.9865381717681884
1758278398992354600,155.3543544921875,3.638736724853516,1.97375750541687,0.8839729428291321
1758278399002438700,155.3644387207031,3.5496697425842285,1.7645763158798218,0.7767732739448547
1758278399012522800,155.37452270507814,3.443657398223877,1.583859086036682,0.6819558143615723
1758278399022608000,155.38460791015626,3.331129550933838,1.380200743675232,0.5751899480819702
1758278399032691700,155.39469165039063,3.230536937713623,1.129670023918152,0.458213746547699
1758278399042775600,155.40477563476563,3.14102840423584,0.8546925187110901,0.3612081110477447
1758278399052860700,155.41486059570312,3.0793678760528564,0.6967485547065735,0.3041574954986572
1758278399062944800,155.42494482421876,3.042696952819824,0.7341423034667969,0.2699489295482635
1758278399073028900,155.43502880859376,3.035895109176636,0.797490119934082,0.2240354567766189
1758278399083113700,155.44511376953125,3.040491104125977,0.8409563302993774,0.1803281903266906
1758278399093197600,155.4551975097656,3.043062448501587,0.942478358745575,0.1555689424276352
1758278399103281700,155.46528173828125,3.0300700664520264,1.046262264251709,0.1444611698389053
1758278399113365800,155.47536572265625,2.990912437438965,1.0863585472106934,0.1484627723693847
1758278399123451000,155.48545092773438,2.925031900405884,1.1027625799179075,0.166785329580307
1758278399133534700,155.49553466796874,2.81660795211792,1.100978970527649,0.1942099779844284
1758278399143618600,155.50561865234374,2.613388776779175,1.0887516736984253,0.1999746561050415
1758278399153703700,155.51570361328126,2.295715093612671,1.1361244916915894,0.1851169317960739
1758278399163787500,155.52578759765626,1.930377960205078,1.2624400854110718,0.1599966585636139
1758278399173871900,155.53587182617187,1.6088470220565796,1.428709864616394,0.1476435959339141
1758278399183956700,155.54595678710936,1.38593327999115,1.5658483505249023,0.1579380482435226
1758278399194040800,155.55604077148436,1.243120551109314,1.6408740282058716,0.2213482707738876
1758278399204124700,155.56612475585936,1.0950671434402466,1.7158435583114624,0.1018130853772163
1758278399214208500,155.57620849609376,0.7443935871124268,1.689982295036316,-0.1572999507188797
1758278399224293600,155.58629370117188,0.2747158408164978,1.550934672355652,-0.2899203300476074
1758278399234377700,155.59637768554688,-0.2221295088529586,1.3978207111358645,-0.339661031961441
1758278399244461800,155.6064619140625,-0.7017568349838257,1.179224729537964,-0.2893365919589996
1758278399254546700,155.61654663085938,-1.1147866249084473,0.8344925045967102,-0.150986760854721
1758278399264630800,155.626630859375,-1.4271423816680908,0.4297341108322143,-0.0082045886665582
1758278399274714600,155.63671459960938,-1.6187419891357422,0.0146202975884079,0.0796298161149025
1758278399284798700,155.646798828125,-1.7062773704528809,-0.3939293920993805,0.1133158728480339
1758278399294883800,155.6568837890625,-1.7327028512954712,-0.8075138330459595,0.1117658019065857
1758278399304967700,155.6669677734375,-1.759673237800598,-1.198690414428711,0.1019786894321441
1758278399315050800,155.67705078125,-1.8531299829483032,-1.5493212938308716,0.0860505849123001
1758278399325135600,155.68713549804687,-2.046766519546509,-1.8065145015716555,0.0485623404383659
1758278399335220000,155.69721997070312,-2.3080568313598637,-1.923221468925476,-0.0241394080221653
1758278399345303800,155.7073037109375,-2.5439658164978027,-1.8591301441192627,-0.1169337928295135
1758278399355389000,155.71738891601564,-2.6701977252960205,-1.653357744216919,-0.1710502207279205
1758278399365472800,155.72747265625,-2.654308557510376,-1.3541384935379028,-0.1688147634267807
1758278399375556600,155.737556640625,-2.518917322158813,-1.0063581466674805,-0.1290377527475357
1758278399385641000,155.74764086914064,-2.3253660202026367,-0.6773006319999695,-0.0706607326865196
1758278399395725800,155.75772583007813,-2.138728618621826,-0.4093813896179199,-0.0170804318040609
1758278399405810000,155.76780981445313,-1.981622338294983,-0.2037408649921417,0.0346187129616737
1758278399415893800,155.77789379882813,-1.8389488458633425,-0.0464172288775444,0.0881110280752182
1758278399425978600,155.787978515625,-1.7306958436965942,0.0560745261609554,0.144684299826622
1758278399436062700,155.79806274414062,-1.655638575553894,0.0866571441292762,0.1948086470365524
1758278399446146800,155.80814672851562,-1.6271891593933103,0.0095959138125181,0.2325847893953323
1758278399456232000,155.81823193359375,-1.6379685401916504,-0.1492146998643875,0.2500967979431152
1758278399466315800,155.82831567382811,-1.6636104583740234,-0.3609519898891449,0.262706309556961
1758278399476399600,155.83839965820312,-1.701274275779724,-0.589323878288269,0.2616430521011352
1758278399486483700,155.84848364257812,-1.7269287109375,-0.7758652567863464,0.2585913240909576
1758278399496568600,155.85856860351564,-1.7440426349639893,-0.8877356648445129,0.2648624181747436
1758278399506653000,155.86865283203124,-1.760252833366394,-0.9343876242637634,0.2707253694534302
1758278399516736800,155.87873681640625,-1.7906800508499146,-0.9303205609321594,0.2711059153079986
1758278399526822000,155.88882177734374,-1.835869312286377,-0.9225249886512756,0.2543287873268127
1758278399536905700,155.89890576171874,-1.915894865989685,-0.9060547351837158,0.2230098396539688
1758278399546989600,155.90898950195313,-2.0303761959075928,-0.8643741011619568,0.191688671708107
1758278399557074000,155.91907397460938,-2.177073240280152,-0.831529438495636,0.1520618945360183
1758278399567158800,155.92915869140626,-2.342385768890381,-0.815241277217865,0.0911436900496482
1758278399577243000,155.93924291992187,-2.496066808700561,-0.8338701725006104,0.0148895336315035
1758278399587326700,155.94932666015626,-2.62080717086792,-0.9090293645858764,-0.1142554059624672
1758278399597411800,155.9594118652344,-2.6871023178100586,-1.087131381034851,-0.3069025576114654
1758278399607495700,155.96949560546875,-2.696176052093506,-1.378472089767456,-0.5493849515914917
1758278399617579800,155.9795798339844,-2.673298120498657,-1.8153742551803589,-0.7811460494995117
1758278399627665000,155.98966479492188,-2.669281005859375,-2.4160265922546387,-0.9808090925216676
1758278399637748700,155.99974877929688,-2.7160093784332275,-3.139796495437622,-1.142403244972229
1758278399647832800,156.00983276367188,-2.8054444789886475,-3.869220733642578,-1.2527196407318115
1758278399657916700,156.01991674804688,-2.897536039352417,-4.527040958404541,-1.325251221656799
1758278399668001800,156.03000170898437,-2.922959089279175,-5.036936283111572,-1.352342963218689
1758278399678086000,156.0400859375,-2.834234476089477,-5.356728553771973,-1.3497353792190552
1758278399688169700,156.05016967773437,-2.6692864894866943,-5.4885993003845215,-1.335478901863098
1758278399698254800,156.0602548828125,-2.4733054637908936,-5.432943344116211,-1.3400229215621948
1758278399708338700,156.0703386230469,-2.293849229812622,-5.178158760070801,-1.3684552907943726
1758278399718422800,156.0804228515625,-2.150097131729126,-4.733306407928467,-1.3956689834594729
1758278399728507600,156.0905075683594,-2.0602915287017822,-4.1229681968688965,-1.40631902217865
1758278399738591700,156.100591796875,-1.9891215562820437,-3.401221513748169,-1.3856781721115112
1758278399748675800,156.11067578125,-1.8960331678390503,-2.63319730758667,-1.3090335130691528
1758278399758759700,156.120759765625,-1.7827128171920776,-1.8866331577301023,-1.1751348972320557
1758278399768844800,156.1308447265625,-1.6576507091522217,-1.214653253555298,-0.984873354434967
1758278399778928600,156.1409287109375,-1.529381513595581,-0.6472475528717041,-0.7517959475517273
1758278399789012700,156.1510126953125,-1.386619210243225,-0.1962782144546508,-0.5086522698402405
1758278399799097900,156.16109790039062,-1.2267446517944336,0.1163681074976921,-0.2918062210083008
1758278399809181700,156.171181640625,-1.0641021728515625,0.2999701499938965,-0.1061016023159027
1758278399819265800,156.18126586914062,-0.89869624376297,0.3546110391616821,0.0559366792440414
1758278399829349600,156.191349609375,-0.7424893379211426,0.3041822016239166,0.2056968808174133
1758278399839434800,156.20143481445314,-0.616432785987854,0.2259076386690139,0.3362880051136017
1758278399849518800,156.21151879882814,-0.5310001373291016,0.1627337336540222,0.4382362067699432
1758278399859602700,156.22160278320314,-0.4819142520427704,0.1241504475474357,0.5147528052330017
1758278399869687800,156.23168774414063,-0.4409889280796051,0.1392007768154144,0.5957432389259338
1758278399879771600,156.24177172851563,-0.3893298506736755,0.2487991601228714,0.6818729639053345
1758278399889855700,156.25185571289063,-0.3007296919822693,0.4657067060470581,0.7683694958686829
1758278399899940600,156.26194067382812,-0.1608118116855621,0.7887613773345947,0.8581292033195496
1758278399910025000,156.27202490234376,0.0452372208237648,1.216230392456055,0.9408762454986572
1758278399920108800,156.28210888671876,0.3038156926631927,1.7150704860687256,1.029593586921692
1758278399930192600,156.29219262695312,0.6116704344749451,2.2451138496398926,1.1271412372589111
1758278399940277800,156.30227783203125,0.9404525756835938,2.77885365486145,1.2197657823562622
1758278399950361900,156.31236181640625,1.2707422971725464,3.286824941635132,1.300342082977295
1758278399960446000,156.32244604492186,1.577034831047058,3.740262269973755,1.3634382486343384
1758278399970530800,156.33253076171874,1.8508543968200684,4.113106727600098,1.4300726652145386
1758278399980614700,156.34261474609374,2.0777835845947266,4.383439540863037,1.4805331230163574
1758278399990698800,156.35269873046877,2.246405124664306,4.549600124359131,1.4823600053787231
1758278400000782800,156.36278295898438,2.356294631958008,4.614304542541504,1.4169468879699707
1758278400010867700,156.37286767578124,2.414091110229492,4.574491500854492,1.2932249307632446
1758278400020951800,156.38295190429687,2.469330310821533,4.422155380249023,1.1246155500411987
1758278400031035600,156.39303564453124,2.5317254066467285,4.178341388702393,0.9262092113494872
1758278400041120800,156.40312084960937,2.604320526123047,3.8710179328918457,0.7340290546417236
1758278400051204600,156.41320458984376,2.687424898147583,3.5342750549316406,0.5548694133758545
1758278400061289000,156.4232890625,2.7718043327331543,3.2215676307678223,0.3849115073680877
1758278400071373800,156.4333737792969,2.83540940284729,2.9524099826812744,0.2279237806797027
1758278400081458000,156.4434580078125,2.8704793453216557,2.720432758331299,0.0736347287893295
1758278400091541800,156.4535417480469,2.866178512573242,2.5188915729522705,-0.0790482833981514
1758278400101625600,156.46362548828125,2.830514907836914,2.3478481769561768,-0.2230510860681533
1758278400111710700,156.47371069335938,2.780205488204956,2.1782302856445312,-0.3670450150966644
1758278400121794800,156.483794921875,2.728858709335327,1.9713188409805296,-0.5033147931098938
1758278400131879000,156.49387890625,2.681069850921631,1.758636236190796,-0.6226553320884705
1758278400141963800,156.5039638671875,2.6401009559631348,1.5519578456878662,-0.7324547171592712
1758278400152047900,156.5140478515625,2.61408805847168,1.335834264755249,-0.8252230286598206
1758278400162131700,156.52413159179687,2.5993447303771973,1.1041103601455688,-0.8992872834205627
1758278400172215800,156.5342158203125,2.6072421073913574,0.8683637976646423,-0.9643222093582152
1758278400182301000,156.54430102539064,2.634291648864746,0.6419243216514587,-1.0197407007217407
1758278400192384800,156.554384765625,2.6815414428710938,0.4248618185520172,-1.0546786785125732
1758278400202468900,156.56446875,2.7397193908691406,0.2833793759346008,-1.071845769882202
1758278400212553700,156.5745537109375,2.821062564849853,0.2922034859657287,-1.0726077556610107
1758278400222637600,156.5846374511719,2.8931918144226074,0.377842515707016,-1.07365083694458
1758278400232722000,156.59472192382813,2.94156551361084,0.4800432026386261,-1.0802451372146606
1758278400242805800,156.6048056640625,2.9513118267059326,0.6111578345298767,-1.077582836151123
1758278400252891000,156.61489086914062,2.889864444732666,0.7548699975013733,-1.049728274345398
1758278400262974700,156.624974609375,2.733233690261841,0.9028090238571168,-1.001667857170105
1758278400273058800,156.63505883789065,2.500467538833618,1.0346674919128418,-0.9238747358322144
1758278400283143700,156.64514379882812,2.270970106124878,1.206210017204285,-0.8196834325790405
1758278400293227800,156.65522778320312,2.065709352493286,1.4188450574874878,-0.769587516784668
1758278400303312000,156.66531176757812,1.844513773918152,1.550840139389038,-0.773689329624176
1758278400313396700,156.67539672851564,1.5999149084091189,1.6254770755767822,-0.8076577186584473
1758278400323480600,156.68548046875,1.3421670198440552,1.6909124851226809,-0.8077020049095154
1758278400333564700,156.69556469726564,1.044653058052063,1.72631573677063,-0.7424218058586121
1758278400343648800,156.70564868164064,0.7172316908836365,1.6859362125396729,-0.6448290348052979
1758278400353733600,156.71573364257813,0.3704077005386352,1.498005509376526,-0.5364639163017273
1758278400363817700,156.72581762695313,0.0381542183458805,1.100011110305786,-0.4498632550239563
1758278400373901600,156.73590161132813,-0.2462801784276962,0.5149944424629211,-0.3957763016223907
1758278400383986700,156.74598657226562,-0.4771414697170257,-0.1549208611249923,-0.3742192685604095
1758278400394070500,156.75607055664062,-0.6752524375915527,-0.8088430166244507,-0.3613338470458984
1758278400404154600,156.76615454101562,-0.853236198425293,-1.3916884660720823,-0.3410391509532928
1758278400414238700,156.77623876953126,-1.043778419494629,-1.905635952949524,-0.2954383790493011
1758278400424323600,156.78632348632811,-1.269424319267273,-2.343984842300415,-0.2394199669361114
1758278400434407700,156.79640771484375,-1.5615811347961426,-2.632976531982422,-0.2035336047410965
1758278400444491500,156.80649145507812,-1.887796401977539,-2.691825151443481,-0.2154601961374282
1758278400454576600,156.81657666015624,-2.180525779724121,-2.5178298950195312,-0.2461496591567993
1758278400464660700,156.82666064453124,-2.3772857189178467,-2.160645008087158,-0.2480838745832443
1758278400474744600,156.83674462890625,-2.449293375015259,-1.7099318504333496,-0.175631508231163
1758278400484828700,156.84682861328125,-2.395923852920532,-1.248344659805298,-0.0605384595692157
1758278400494913500,156.85691357421874,-2.256040096282959,-0.8105646371841431,0.0683880969882011
1758278400504997600,156.86699755859374,-2.0893442630767822,-0.4023977816104889,0.168615847826004
1758278400515081700,156.87708178710938,-1.941518783569336,-0.0340168252587318,0.2344350665807724
1758278400525166800,156.88716674804687,-1.8445464372634888,0.222134381532669,0.2762007713317871
1758278400535250700,156.89725073242187,-1.816885471343994,0.3872261345386505,0.313599020242691
1758278400545334500,156.90733447265626,-1.860169529914856,0.4588319063186645,0.3578210473060608
1758278400555419600,156.9174196777344,-1.9621260166168213,0.4129331409931183,0.3960395455360412
1758278400565503500,156.92750341796875,-2.1010420322418213,0.2568190097808838,0.4167215824127197
1758278400575587800,156.937587890625,-2.247394800186157,0.0163243822753429,0.4252934753894806
1758278400585671700,156.94767163085936,-2.3684329986572266,-0.2601931691169739,0.4197315573692322
1758278400595756500,156.95775659179688,-2.443450689315796,-0.5451780557632446,0.4169469475746155
1758278400605840600,156.96784057617188,-2.456552505493164,-0.7832338213920593,0.4040147960186004
1758278400615924500,156.97792456054688,-2.4164347648620605,-0.9719696640968324,0.4047713875770569
1758278400626009600,156.98800952148437,-2.349072933197021,-1.1622414588928225,0.3876465260982513
1758278400636093700,156.99809375,-2.275512933731079,-1.2804114818572998,0.3670672178268432
1758278400646177500,157.00817749023437,-2.2219696044921875,-1.338268160820007,0.3391674757003784
1758278400656261600,157.01826171875,-2.201644897460937,-1.3354417085647583,0.3001162111759186
1758278400666346500,157.0283464355469,-2.215904951095581,-1.2690645456314087,0.2564879655838012
1758278400676430600,157.0384306640625,-2.262748956680298,-1.1395633220672607,0.2280483245849609
1758278400686514700,157.0485146484375,-2.3261642456054688,-0.9546162486076356,0.2252177149057388
1758278400696599800,157.05859985351563,-2.390588760375977,-0.7806476354598999,0.2461243271827697
1758278400706683600,157.06868359375,-2.444985866546631,-0.626905083656311,0.2729078233242035
1758278400716767500,157.078767578125,-2.4842350482940674,-0.5609811544418335,0.3066210448741913
1758278400726851600,157.0888515625,-2.4955317974090576,-0.6279665231704712,0.3325977027416229
1758278400736936400,157.0989365234375,-2.4937291145324707,-0.8593510389328003,0.339312881231308
1758278400747020800,157.10902075195312,-2.4666779041290283,-1.2732579708099363,0.3009642958641052
1758278400757104600,157.11910473632813,-2.418520212173462,-1.79671311378479,0.233021467924118
1758278400767189800,157.12918969726562,-2.3718724250793457,-2.401437520980835,0.1476332694292068
1758278400777273600,157.13927368164062,-2.325620174407959,-3.0362353324890137,0.0361986309289932
1758278400787357700,157.14935766601562,-2.319317579269409,-3.612255334854126,-0.1128199398517608
1758278400797441800,157.15944189453126,-2.3497493267059326,-4.0905375480651855,-0.2812142968177795
1758278400807526700,157.16952661132814,-2.388379573822021,-4.425834655761719,-0.4697644412517547
1758278400817610800,157.17961083984375,-2.3933022022247314,-4.616117477416992,-0.6240567564964294
1758278400827694600,157.1896945800781,-2.3123247623443604,-4.651309013366699,-0.7347069382667542
1758278400837779700,157.19977978515624,-2.138004302978516,-4.526337146759033,-0.7850838303565979
1758278400847863600,157.20986352539063,-1.8906350135803225,-4.250640869140625,-0.7765024304389954
1758278400857947600,157.21994775390624,-1.6157959699630735,-3.826831579208374,-0.732437014579773
1758278400868032800,157.23003271484376,-1.3432536125183103,-3.286557674407959,-0.6745457649230957
1758278400878116600,157.24011669921876,-1.1110821962356567,-2.6680688858032227,-0.6045531034469604
1758278400888200700,157.25020068359376,-0.9152827262878418,-2.0458803176879883,-0.5166335701942444
1758278400898284800,157.26028491210937,-0.7542663812637329,-1.448662042617798,-0.4168747365474701
1758278400908369700,157.27036962890625,-0.6139060258865356,-0.8953559398651123,-0.3031335175037384
1758278400918453800,157.28045385742186,-0.4682713150978088,-0.4119437634944916,-0.1824217587709427
1758278400928537600,157.29053759765625,-0.3100317120552063,-0.0327155403792858,-0.060949869453907
1758278400938622700,157.30062280273438,-0.140292227268219,0.2397487312555313,0.0664504319429397
1758278400948706600,157.31070654296877,0.0180497113615274,0.4355225563049316,0.1898931115865707
1758278400958790700,157.32079077148438,0.1730582118034362,0.5910639762878418,0.3027709126472473
1758278400968874800,157.33087475585938,0.3190593719482422,0.7216509580612183,0.3921041786670685
1758278400978959600,157.34095971679687,0.4566135108470917,0.829643726348877,0.4801203310489654
1758278400989043700,157.35104370117188,0.5754125714302063,0.966346561908722,0.564728856086731
1758278400999127600,157.36112744140624,0.6943301558494568,1.1853975057601929,0.641603946685791
1758278401009212700,157.37121264648437,0.8197535276412964,1.49748694896698,0.6978850960731506
1758278401019296800,157.381296875,0.9835289120674132,1.867185950279236,0.7427692413330078
1758278401029380600,157.39138061523437,1.1764386892318726,2.26116681098938,0.7798425555229187
1758278401039464700,157.40146459960937,1.408857345581055,2.650508165359497,0.8046491146087646
1758278401049549600,157.4115495605469,1.6674087047576904,3.042675495147705,0.8311002254486084
1758278401059633700,157.4216335449219,1.9630619287490845,3.43424129486084,0.8667210340499878
1758278401069717800,157.4317177734375,2.289699077606201,3.820015192031861,0.9032766222953796
1758278401079802600,157.441802734375,2.634011030197144,4.176479339599609,0.918807089328766
1758278401089886700,157.45188671875,2.9776360988616943,4.496220111846924,0.9012817740440368
1758278401099970600,157.46197045898438,3.292498826980591,4.757876873016357,0.8286562561988831
1758278401110054700,157.4720546875,3.554760217666626,4.921061038970947,0.7194309234619141
1758278401120139500,157.48213940429687,3.765178442001343,4.956521034240723,0.5712150931358337
1758278401130223900,157.49222387695312,3.900608777999878,4.826866149902344,0.3758803009986877
1758278401140307700,157.5023076171875,3.957828760147095,4.499265670776367,0.1917911618947982
1758278401150392600,157.512392578125,3.9468088150024414,3.9997594356536874,0.0428862050175666
1758278401160476700,157.5224765625,3.8866779804229736,3.3618602752685547,-0.088671289384365
1758278401170560500,157.532560546875,3.778541803359986,2.665699243545532,-0.1836012899875641
1758278401180644900,157.5426447753906,3.652015686035156,1.943555474281311,-0.2275258600711822
1758278401190729700,157.55272973632813,3.535694360733032,1.285147786140442,-0.2615754306316376
1758278401200813600,157.5628134765625,3.430656909942627,0.7009666562080383,-0.2986434400081634
1758278401210897700,157.57289770507813,3.330233097076416,0.2330881655216217,-0.3322547674179077
1758278401220982500,157.582982421875,3.2238082885742188,-0.1275504380464553,-0.3416080474853515
1758278401231066600,157.59306665039065,3.1152169704437256,-0.3985166847705841,-0.3362641632556915
1758278401241150700,157.60315063476563,3.006693124771118,-0.6058717966079712,-0.3146989345550537
1758278401251234600,157.61323461914063,2.8984792232513428,-0.7258821725845337,-0.2922728955745697
1758278401261319700,157.62331958007812,2.7961151599884038,-0.7431498765945435,-0.2618601322174072
1758278401271403500,157.63340356445312,2.7019858360290527,-0.7831867337226868,-0.2428693920373916
1758278401281487600,157.64348754882812,2.63389253616333,-0.7609131336212158,-0.2376520037651062
1758278401291572500,157.65357250976564,2.5978362560272217,-0.5750212073326111,-0.2284694612026214
1758278401301656800,157.66365673828125,2.5896427631378174,-0.3132628500461578,-0.2135725319385528
1758278401311740700,157.67374072265625,2.5975348949432373,-0.0772977173328399,-0.1929118335247039
1758278401321824300,157.68382421875,2.618288993835449,0.2105923891067505,-0.1710491478443145
1758278401331909400,157.69390942382813,2.6382360458374023,0.5194321870803833,-0.1414343118667602
1758278401341993200,157.7039931640625,2.652440071105957,0.7683477401733398,-0.1148162856698036
1758278401352077600,157.71407763671874,2.651232481002808,0.99354088306427,-0.0938508138060569
1758278401362162400,157.72416235351562,2.6157209873199463,1.1995151042938232,-0.0917503833770752
1758278401372246500,157.73424658203126,2.500273942947388,1.3604854345321655,-0.1259967237710952
1758278401382330400,157.74433032226565,2.3108162879943848,1.5149098634719849,-0.1794546246528625
1758278401392414200,157.75441430664063,2.1027958393096924,1.7025103569030762,-0.2336607575416565
1758278401402499300,157.76449926757812,1.9116425514221191,1.893389582633972,-0.2712273001670837
1758278401412583400,157.77458349609375,1.7606186866760254,2.044229030609131,-0.2891596257686615
1758278401422667500,157.78466748046876,1.5995986461639404,2.090472459793091,-0.3034229874610901
1758278401432752400,157.79475244140625,1.414155125617981,2.065359354019165,-0.2989898025989532
1758278401442836200,157.80483618164064,1.1878982782363892,2.007017135620117,-0.2778286039829254
1758278401452920300,157.81492041015625,0.8466466069221497,1.9126092195510864,-0.3432172834873199
1758278401463004400,157.82500439453125,0.3642528057098388,1.7487446069717407,-0.4741830229759216
1758278401473089500,157.83508959960938,-0.1831222474575042,1.48924720287323,-0.5361981391906738
1758278401483173400,157.84517333984374,-0.6951120495796204,1.1375856399536133,-0.4772493243217468
1758278401493257200,157.85525732421874,-1.1292108297348022,0.7498582005500793,-0.3936367928981781
1758278401503342300,157.86534228515626,-1.435346245765686,0.3504961729049682,-0.3300479650497436
1758278401513426200,157.87542626953126,-1.6163794994354248,-0.0727702155709266,-0.2739026546478271
1758278401523510500,157.88551049804687,-1.7313551902770996,-0.4863056242465973,-0.2369795441627502
1758278401533594400,157.89559448242187,-1.8374159336090088,-0.9003187417984009,-0.2215076833963394
1758278401543679500,157.90567944335936,-1.9813851118087769,-1.2861589193344116,-0.2124678492546081
1758278401553763300,157.91576342773436,-2.193209648132324,-1.60226309299469,-0.1968600898981094
1758278401563847400,157.92584741210936,-2.4640512466430664,-1.802058815956116,-0.1730490326881408
1758278401573932300,157.93593237304688,-2.7679357528686523,-1.8561543226242063,-0.172172725200653
1758278401584016400,157.94601635742188,-3.023674488067627,-1.7684506177902222,-0.17133329808712
1758278401594100500,157.9561005859375,-3.171621084213257,-1.5589165687561035,-0.1342020332813263
1758278401604184300,157.96618432617188,-3.194498300552368,-1.2534083127975464,-0.032176598906517
1758278401614269400,157.97626953125,-3.1058831214904785,-0.8757197260856628,0.1358413845300674
1758278401624353500,157.986353515625,-2.942875862121582,-0.4910623431205749,0.3267109394073486
1758278401634437400,157.99643725585938,-2.772859573364258,-0.1509891897439956,0.4992324411869049
1758278401644522500,158.0065224609375,-2.6313130855560303,0.1238479614257812,0.6289501786231995
1758278401654606300,158.0166064453125,-2.5328786373138428,0.3345463573932647,0.7461358904838562
1758278401664690400,158.0266904296875,-2.4658427238464355,0.483814924955368,0.8488507866859436
1758278401674774500,158.0367744140625,-2.41395902633667,0.5823549032211304,0.937670886516571
1758278401684859400,158.046859375,-2.3801803588867188,0.5834124088287354,1.0098960399627686
1758278401694943500,158.05694360351563,-2.356407642364502,0.4580728709697723,1.059605360031128
1758278401705027300,158.06702734375,-2.333242177963257,0.1933064609766006,1.0950347185134888
1758278401715112400,158.07711254882813,-2.3131520748138428,-0.2146388739347458,1.10940420627594
1758278401725196300,158.0871962890625,-2.282722234725952,-0.6771295666694641,1.108788013458252
1758278401735280600,158.09728076171876,-2.249798059463501,-1.1342658996582031,1.0835976600646973
1758278401745364500,158.10736450195313,-2.206629991531372,-1.582288384437561,1.036113977432251
1758278401755449300,158.11744946289062,-2.1495156288146973,-1.9806634187698364,0.956843912601471
1758278401765533400,158.12753344726562,-2.078190803527832,-2.3333487510681152,0.8600390553474426
1758278401775617300,158.1376171875,-2.0084242820739746,-2.6624319553375244,0.7309020757675171
1758278401785702400,158.1477023925781,-1.943116545677185,-2.9882352352142334,0.5700804591178894
1758278401795786500,158.1577863769531,-1.894717574119568,-3.273976325988769,0.3815065622329712
1758278401805870300,158.1678703613281,-1.8475255966186523,-3.489037275314331,0.1833689659833908
1758278401815954400,158.1779543457031,-1.809847354888916,-3.5907413959503174,-0.010148144327104
1758278401826039300,158.18803930664063,-1.790730118751526,-3.5895884037017822,-0.1950325071811676
1758278401836123400,158.19812329101563,-1.788175344467163,-3.50520920753479,-0.3864807784557342
1758278401846207500,158.20820751953124,-1.8176277875900269,-3.3814213275909424,-0.557199239730835
1758278401856292600,158.21829272460937,-1.888398289680481,-3.2593202590942383,-0.7159125804901123
1758278401866376400,158.22837646484376,-1.988355040550232,-3.169301986694336,-0.8578790426254272
1758278401876460300,158.23846020507813,-2.0920746326446533,-3.0818591117858887,-0.988538920879364
1758278401886544400,158.24854443359374,-2.1685078144073486,-2.9807629585266118,-1.0992063283920288
1758278401896629200,158.25862915039062,-2.200749158859253,-2.911277532577514,-1.1795659065246582
1758278401906713600,158.26871362304686,-2.18994140625,-2.8768651485443115,-1.2301814556121826
1758278401916797400,158.27879736328126,-2.1543679237365723,-2.8630921840667725,-1.2667919397354126
1758278401926882600,158.28888256835938,-2.116544485092163,-2.8298916816711426,-1.2803245782852173
1758278401936966400,158.29896630859375,-2.0788021087646484,-2.7573070526123047,-1.2670769691467283
1758278401947050200,158.30905029296875,-2.0516276359558105,-2.594240188598633,-1.2450249195098877
1758278401957134600,158.3191345214844,-2.0204129219055176,-2.335151433944702,-1.216534972190857
1758278401967219500,158.32921948242188,-1.980717658996582,-1.996179223060608,-1.1805838346481323
1758278401977303600,158.33930346679688,-1.9306905269622805,-1.5994141101837158,-1.1295890808105469
1758278401987387400,158.34938745117188,-1.8729768991470337,-1.1729490756988523,-1.0557359457015991
1758278401997472300,158.35947216796876,-1.8116357326507568,-0.7690330743789673,-0.9373477101325988
1758278402007556400,158.36955639648437,-1.7423741817474363,-0.4017195701599121,-0.7864577770233154
1758278402017640400,158.37964038085937,-1.6766291856765747,-0.0832463651895523,-0.6067017316818237
1758278402027724500,158.389724609375,-1.6046719551086426,0.1712042987346649,-0.4155014455318451
1758278402037809400,158.39980932617186,-1.5070971250534058,0.3545481264591217,-0.2173542231321334
1758278402047893200,158.40989331054686,-1.3698012828826904,0.4720441401004791,-0.0347780212759971
1758278402057977300,158.41997729492186,-1.1818259954452517,0.5720049142837524,0.100597508251667
1758278402068062200,158.43006225585938,-0.9548755288124084,0.6326462030410767,0.194433718919754
1758278402078146600,158.440146484375,-0.7153980135917664,0.6390659809112549,0.2718127369880676
1758278402088230400,158.45023046875,-0.4774621129035949,0.5780130624771118,0.3514519035816192
1758278402098314200,158.4603142089844,-0.2613584697246551,0.4740768671035766,0.4668764472007751
1758278402108399400,158.4703994140625,-0.0673602372407913,0.3442219495773315,0.5865826606750488
1758278402118483200,158.48048315429688,0.0985666438937187,0.2553717494010925,0.7036025524139404
1758278402128567600,158.49056762695312,0.2586753368377685,0.2768738567829132,0.8202205300331116
1758278402138652400,158.50065234375,0.4279400706291199,0.4745165109634399,0.9346598386764526
1758278402148736500,158.5107365722656,0.6166436672210693,0.8367263674736023,1.0536978244781494
1758278402158820400,158.5208203125,0.8193302154541016,1.313133716583252,1.1398608684539795
1758278402168904200,158.530904296875,1.0215669870376587,1.8572856187820437,1.1835569143295288
1758278402178989300,158.5409892578125,1.222511887550354,2.412037849426269,1.198272466659546
1758278402189073400,158.55107348632814,1.4291833639144895,2.90729022026062,1.1811792850494385
1758278402199157500,158.56115747070314,1.6499981880187988,3.309542179107666,1.1507707834243774
1758278402209242400,158.57124243164063,1.8914552927017207,3.615334510803223,1.1005277633666992
1758278402219326500,158.58132641601563,2.12805700302124,3.842742681503296,1.037909746170044
1758278402229410300,158.59141040039063,2.357632160186768,4.01168155670166,0.96093088388443
1758278402239494400,158.60149438476563,2.564205884933472,4.134745121002197,0.8736389875411987
1758278402249579500,158.61157958984376,2.7446401119232178,4.2127790451049805,0.7679216265678406
1758278402259663400,158.62166333007812,2.902264356613159,4.258237361907959,0.6454291939735413
1758278402269747500,158.63174755859376,3.02563738822937,4.258128643035889,0.4899109899997711
1758278402279832300,158.6418322753906,3.0991218090057373,4.230605125427246,0.329206109046936
1758278402289916400,158.65191650390625,3.1202714443206787,4.147533893585205,0.1644424498081207
1758278402300000500,158.66200048828125,3.1008846759796143,4.014132499694824,0.0171260237693786
1758278402310084400,158.67208447265625,3.057849168777466,3.858062028884888,-0.121843047440052
1758278402320169500,158.68216943359374,2.99098539352417,3.6938743591308594,-0.2546478509902954
1758278402330253600,158.69225366210938,2.9215452671051025,3.497110605239868,-0.3754301965236664
1758278402340337400,158.70233740234374,2.855710744857788,3.282355070114136,-0.5014795660972595
1758278402350421800,158.712421875,2.8117244243621826,3.031767606735229,-0.6311478018760681
1758278402360506600,158.72250659179687,2.782141923904419,2.7515265941619877,-0.7721232175827026
1758278402370590500,158.73259057617187,2.764863967895508,2.442662239074707,-0.897620439529419
1758278402380674600,158.74267456054687,2.763632774353028,2.1194605827331543,-1.0156785249710083
1758278402390759400,158.75275952148436,2.7773728370666504,1.7900793552398682,-1.1256250143051147
1758278402400843500,158.76284350585937,2.7890512943267822,1.4598734378814695,-1.2213183641433716
1758278402410927600,158.772927734375,2.789196014404297,1.142236828804016,-1.2955968379974363
1758278402421011500,158.78301147460937,2.7608413696289062,0.8152371048927307,-1.3515346050262451
1758278402431096600,158.7930966796875,2.692185878753662,0.4780660271644592,-1.395907640457153
1758278402441180400,158.8031804199219,2.594311475753784,0.1748692095279693,-1.426803708076477
1758278402451264500,158.8132644042969,2.4898386001586914,-0.0750706046819686,-1.4428420066833496
1758278402461349400,158.82334936523438,2.40985107421875,-0.2962639927864074,-1.4531575441360474
1758278402471433700,158.83343383789062,2.343278646469116,-0.4899506270885467,-1.4554978609085083
1758278402481517600,158.843517578125,2.289140224456787,-0.6416206359863281,-1.4391827583312988
1758278402491601400,158.85360131835938,2.2367680072784424,-0.7327346801757812,-1.3968291282653809
1758278402501686500,158.8636865234375,2.177006721496582,-0.745352566242218,-1.3363714218139648
1758278402511770400,158.87377026367187,2.112823724746704,-0.6965123414993286,-1.2621395587921145
1758278402521854700,158.88385473632812,2.0331244468688965,-0.5770596265792847,-1.1977771520614624
1758278402531939600,158.89393969726564,1.9241917133331297,-0.3681815266609192,-1.1444590091705322
1758278402542023700,158.90402368164064,1.7781217098236084,-0.1457561552524566,-1.114781618118286
1758278402552107500,158.914107421875,1.6091787815093994,0.1142578348517417,-1.1096916198730469
1758278402562191400,158.92419140625,1.427480697631836,0.3841398656368255,-1.1134263277053833
1758278402572276500,158.9342763671875,1.2301162481307983,0.6179169416427612,-1.1183613538742063
1758278402582360600,158.94436059570313,1.0318784713745115,0.7963020205497742,-1.098186731338501
1758278402592444700,158.95444458007813,0.8184388875961304,0.8937976360321045,-1.0210530757904053
1758278402602529500,158.96452954101562,0.580852210521698,0.9286764860153198,-0.9004915952682495
1758278402612613600,158.97461352539062,0.311165302991867,0.9029913544654846,-0.7506128549575806
1758278402622697500,158.98469750976562,-0.0028884126804769,0.8175476789474487,-0.6111851930618286
1758278402632781600,158.99478149414062,-0.3336964249610901,0.6586498022079468,-0.477260410785675
1758278402642866700,159.00486669921875,-0.6706534624099731,0.3835892379283905,-0.3318944275379181
1758278402652950500,159.01495043945312,-1.0104382038116455,0.0384715236723423,-0.1890184879302978
1758278402663034600,159.02503466796875,-1.3666197061538696,-0.3353875279426574,-0.083408698439598
1758278402673118500,159.03511840820312,-1.709674835205078,-0.6880412101745605,-0.0185492765158414
1758278402683203600,159.04520361328125,-2.012603759765625,-0.9792096614837646,0.0267624333500862
1758278402693287700,159.05528759765625,-2.247565746307373,-1.2009865045547483,0.0602964237332344
1758278402703371500,159.06537158203125,-2.406841993331909,-1.292264103889465,0.0858538150787353
1758278402713456600,159.07545654296874,-2.488523483276367,-1.2304863929748535,0.1127504110336303
1758278402723540500,159.08554052734374,-2.488131523132324,-1.0568337440490725,0.1486661583185196
1758278402733624600,159.09562451171874,-2.405860662460327,-0.8268213272094727,0.2247497290372848
1758278402743708700,159.10570874023438,-2.2706732749938965,-0.6145331263542175,0.3292111456394195
1758278402753793500,159.11579345703126,-2.1228511333465576,-0.472978413105011,0.4344853460788727
1758278402763877600,159.12587768554687,-1.9758244752883911,-0.3642963469028473,0.536562979221344
1758278402773961500,159.13596142578126,-1.858239769935608,-0.2783582806587219,0.6254842877388
1758278402784046600,159.1460466308594,-1.7907551527023315,-0.2049690932035446,0.7182210683822632
1758278402794130700,159.1561306152344,-1.7798305749893188,-0.1415251344442367,0.7992419004440308
1758278402804214500,159.16621459960936,-1.831584453582764,-0.1156257539987564,0.8626613020896912
1758278402814298600,159.17629858398436,-1.9385374784469604,-0.1257026195526123,0.9078644514083862
1758278402824383500,159.18638354492188,-2.0771324634552,-0.1802558153867721,0.9344152212142944
1758278402834467600,159.19646752929688,-2.2141222953796387,-0.2777895629405975,0.9526634216308594
1758278402844551700,159.2065517578125,-2.3228821754455566,-0.3960837423801422,0.9642103910446168
1758278402854636500,159.21663647460937,-2.3853108882904053,-0.5383966565132141,0.9714126586914062
1758278402864720600,159.226720703125,-2.381476640701294,-0.6960999369621277,0.9767280220985411
1758278402874804500,159.23680444335938,-2.3259763717651367,-0.8595724701881409,0.9796385765075684
1758278402884888600,159.246888671875,-2.234097957611084,-1.0069024562835691,0.9753546118736268
1758278402894973400,159.25697338867187,-2.125159978866577,-1.1475605964660645,0.9578938484191896
1758278402905057800,159.2670578613281,-2.046505212783813,-1.256282925605774,0.9281823039054872
1758278402915141600,159.2771416015625,-2.01296067237854,-1.3522776365280151,0.8810307383537292
1758278402925225500,159.2872255859375,-2.0308005809783936,-1.4100496768951416,0.828839898109436
1758278402935310600,159.297310546875,-2.100414752960205,-1.4089566469192505,0.7858490347862244
1758278402945394400,159.30739453125,-2.198280334472656,-1.3632547855377195,0.7625121474266052
1758278402955478800,159.31747875976563,-2.302115201950073,-1.264985203742981,0.7473068237304688
1758278402965563600,159.32756372070313,-2.3925912380218506,-1.1477816104888916,0.7423543930053711
1758278402975647500,159.3376474609375,-2.45823335647583,-1.0555763244628906,0.7451027631759644
1758278402985731600,159.34773168945313,-2.4948160648345947,-1.0392719507217407,0.7351111173629761
1758278402995815400,159.3578154296875,-2.5094358921051025,-1.1602779626846311,0.7017355561256409
1758278403005900500,159.36790063476562,-2.511124849319458,-1.4321272373199463,0.621782660484314
1758278403015984600,159.37798461914062,-2.486435413360596,-1.8641241788864136,0.5006202459335327
1758278403026068500,159.388068359375,-2.420677661895752,-2.3951220512390137,0.3526097238063812
1758278403036153600,159.39815356445314,-2.34374737739563,-2.981929063796997,0.209711417555809
1758278403046237400,159.4082375488281,-2.2910282611846924,-3.574272394180298,0.0706874728202819
1758278403056321500,159.4183215332031,-2.278197765350342,-4.109418869018555,-0.0531375333666801
1758278403066405600,159.4284055175781,-2.312826871871948,-4.489519119262695,-0.1810667812824249
1758278403076490800,159.43849072265624,-2.3429834842681885,-4.654557704925537,-0.3090364634990692
1758278403086574600,159.44857470703124,-2.329049825668335,-4.591789722442627,-0.4233500957489013
1758278403096658400,159.45865844726563,-2.2468905448913574,-4.32560396194458,-0.5148655772209167
1758278403106743600,159.46874365234376,-2.0917251110076904,-3.882721185684204,-0.5732986927032471
1758278403116827400,159.47882739257813,-1.8818905353546145,-3.310422420501709,-0.5881378650665283
1758278403126911700,159.48891186523437,-1.6512365341186523,-2.6500484943389893,-0.5674514174461365
