time,seconds_elapsed,z,y,x
1758278308473652500,64.83565258789062,0.9332057237625122,0.0112228514626622,-0.4677644968032837
1758278308483737300,64.8457373046875,0.7523970603942871,-0.0212432108819484,-0.4115526080131531
1758278308493822500,64.85582250976563,0.5971037149429321,-0.0906389877200126,-0.2711072564125061
1758278308503907300,64.8659072265625,0.4609229862689972,-0.1644210666418075,-0.1490383297204971
1758278308513992400,64.87599243164063,0.2327453196048736,-0.2213143408298492,-0.2548857927322387
1758278308524077300,64.88607739257813,-0.1205205991864204,-0.3889273107051849,-0.4060449302196502
1758278308534162400,64.89616235351562,-0.5227876901626587,-0.6296170949935913,-0.4044059216976166
1758278308544246500,64.90624658203124,-0.9185547232627868,-0.8167046904563904,-0.2285555154085159
1758278308554331600,64.91633154296875,-1.2800192832946775,-0.9360445141792296,-0.0210470370948314
1758278308564416500,64.92641650390625,-1.5632067918777466,-1.08935284614563,0.1231828406453132
1758278308574501600,64.93650170898438,-1.7612866163253784,-1.289146900177002,0.2360751181840896
1758278308584586500,64.94658642578125,-1.9131101369857788,-1.405123233795166,0.3614127933979034
1758278308594671400,64.95667138671875,-2.0875539779663086,-1.35797119140625,0.4468804895877838
1758278308604756500,64.96675659179688,-2.3077878952026367,-1.1656678915023804,0.4776402711868286
1758278308614840600,64.97684057617188,-2.5289549827575684,-0.8528009057044983,0.498605877161026
1758278308624925400,64.98692553710937,-2.703591823577881,-0.4903960824012756,0.5634027123451233
1758278308635010600,64.99701049804688,-2.785426139831543,-0.1903339177370071,0.6472472548484802
1758278308645095400,65.00709545898438,-2.7642040252685547,0.0142011176794767,0.7070972919464111
1758278308655180500,65.0171806640625,-2.683534383773804,0.1252870410680771,0.7179988026618958
1758278308665265400,65.02726538085938,-2.589381456375122,0.135584682226181,0.6674972772598267
1758278308675350500,65.0373505859375,-2.4858992099761963,0.0749000385403633,0.5892056226730347
1758278308685434400,65.04743432617188,-2.393017292022705,-0.0210443381220102,0.5286602973937988
1758278308695519500,65.05751953125,-2.325117588043213,-0.1719354838132858,0.505752682685852
1758278308705604600,65.0676044921875,-2.307772397994995,-0.3819169402122497,0.5133996605873108
1758278308715689500,65.077689453125,-2.3627407550811768,-0.6200598478317261,0.541723370552063
1758278308725774600,65.08777465820313,-2.4762794971466064,-0.9066178202629088,0.551891028881073
1758278308735859500,65.097859375,-2.6124870777130127,-1.1791411638259888,0.5532330870628357
1758278308745943600,65.10794360351562,-2.733484506607056,-1.4298518896102903,0.5411891937255859
1758278308756028400,65.1180283203125,-2.797379732131958,-1.5808334350585938,0.5356725454330444
1758278308766113500,65.12811352539063,-2.802502155303955,-1.6179176568984983,0.5540880560874939
1758278308776198400,65.13819848632812,-2.764388084411621,-1.6083909273147583,0.561737596988678
1758278308786283500,65.14828344726563,-2.730873107910156,-1.6021738052368164,0.5460156202316284
1758278308796368400,65.15836840820313,-2.724617481231689,-1.5984543561935425,0.4965203106403351
1758278308806453500,65.16845361328124,-2.7535414695739746,-1.5813292264938354,0.4246833920478821
1758278308816537300,65.17853735351562,-2.8018059730529785,-1.565359354019165,0.3304859101772308
1758278308826622500,65.18862255859375,-2.844696283340454,-1.5591909885406494,0.2060816437005996
1758278308836707300,65.19870727539063,-2.847942590713501,-1.6307220458984375,0.0483569577336311
1758278308846792400,65.20879248046874,-2.8058016300201416,-1.843586087226868,-0.1419647783041
1758278308856877300,65.21887719726563,-2.745117425918579,-2.186652183532715,-0.3512908518314361
1758278308866962400,65.22896240234375,-2.712109327316284,-2.59670090675354,-0.5497429370880127
1758278308877047600,65.23904760742188,-2.737257719039917,-2.9739365577697754,-0.738353967666626
1758278308887131400,65.24913134765625,-2.8173248767852783,-3.3440778255462646,-0.9011897444725036
1758278308897216300,65.25921630859375,-2.8928980827331543,-3.692945718765259,-1.0227293968200684
1758278308907301400,65.26930126953125,-2.907796621322632,-4.012058734893799,-1.1017664670944214
1758278308917386500,65.27938647460938,-2.8355729579925537,-4.233599185943604,-1.1348907947540283
1758278308927471400,65.28947143554687,-2.6867687702178955,-4.324861526489258,-1.1538660526275637
1758278308937556500,65.29955639648438,-2.5027151107788086,-4.322479248046875,-1.1793321371078491
1758278308947641300,65.30964135742188,-2.3066678047180176,-4.159253120422363,-1.193379521369934
1758278308957725400,65.31972534179687,-2.128174066543579,-3.862351179122925,-1.2104377746582031
1758278308967810300,65.32981030273437,-1.9679718017578125,-3.425048828125,-1.2145267724990845
1758278308977895400,65.3398955078125,-1.8071225881576536,-2.8568358421325684,-1.1867761611938477
1758278308987980300,65.34998022460937,-1.6244841814041138,-2.2177414894104004,-1.1007728576660156
1758278308998065400,65.3600654296875,-1.4158999919891355,-1.6016347408294678,-0.9552726745605468
1758278309008150300,65.370150390625,-1.205703616142273,-1.0552141666412354,-0.7640368938446045
1758278309018235400,65.3802353515625,-1.01488196849823,-0.6260420680046082,-0.5380301475524902
1758278309028319200,65.3903193359375,-0.8577472567558289,-0.275394856929779,-0.3174069821834564
1758278309038404400,65.400404296875,-0.704369068145752,-0.0279114488512277,-0.104313276708126
1758278309048489200,65.4104892578125,-0.5212813019752502,0.0928964614868164,0.0887355431914329
1758278309058574300,65.42057421875,-0.2755679190158844,0.1251749545335769,0.2302330136299133
1758278309068659500,65.43065942382813,0.0098973801359534,0.1310919672250747,0.3129023015499115
1758278309078744300,65.44074438476562,0.2959314882755279,0.1267053037881851,0.351379245519638
1758278309088828400,65.45082836914062,0.5351978540420532,0.11031274497509,0.368196040391922
1758278309098913500,65.46091357421875,0.709989070892334,0.0982925146818161,0.3967149555683136
1758278309108998700,65.47099853515626,0.8353160619735718,0.1001572608947753,0.4467592239379883
1758278309119083500,65.48108349609375,0.9385562539100648,0.107491597533226,0.5167374610900879
1758278309129168400,65.49116845703125,1.052478551864624,0.1357235014438629,0.6097416877746582
1758278309139253500,65.50125341796875,1.1918039321899414,0.1998805254697799,0.712836503982544
1758278309149338400,65.51133837890625,1.344329595565796,0.3385625183582306,0.8168576955795288
1758278309159422500,65.52142236328125,1.485015869140625,0.5621877908706665,0.9165882468223572
1758278309169507600,65.53150756835937,1.6134876012802124,0.8674927949905396,1.0138142108917236
1758278309179592400,65.54159252929688,1.7279337644577026,1.2383694648742676,1.1034008264541626
1758278309189677600,65.55167749023437,1.8456555604934688,1.6800533533096311,1.1893887519836426
1758278309199762400,65.56176245117187,1.966702938079834,2.1767220497131348,1.263097882270813
1758278309209847600,65.57184765625,2.114302635192871,2.7184438705444336,1.3243999481201172
1758278309219932700,65.5819326171875,2.305408477783203,3.259254217147827,1.3724932670593262
1758278309230016500,65.5920166015625,2.535707712173462,3.74314022064209,1.4048539400100708
1758278309240101600,65.6021015625,2.793090581893921,4.1424713134765625,1.413116216659546
1758278309250186500,65.6121865234375,3.0481317043304443,4.445508003234863,1.3898364305496216
1758278309260271600,65.62227172851563,3.285264015197754,4.663954257965088,1.347842812538147
1758278309270356500,65.6323564453125,3.477503776550293,4.79401969909668,1.274105191230774
1758278309280441600,65.64244165039062,3.6191580295562735,4.8333740234375,1.1609318256378174
1758278309290525400,65.652525390625,3.720762729644776,4.789103031158447,1.0318456888198853
1758278309300610600,65.66261059570313,3.795325756072998,4.656370639801025,0.8921036124229431
1758278309310695400,65.6726953125,3.8516366481781006,4.4076313972473145,0.7266408801078796
1758278309320780500,65.68278051757812,3.8645191192626953,4.053476810455322,0.5447909832000732
1758278309330865700,65.69286572265625,3.830112934112549,3.680739164352417,0.3847490847110748
1758278309340950500,65.70295043945312,3.7521839141845694,3.298163414001465,0.2378917783498764
1758278309351035600,65.71303564453125,3.631049156188965,2.901380777359009,0.0727686062455177
1758278309361119500,65.72311938476562,3.491698980331421,2.538682460784912,-0.0891397967934608
1758278309371204600,65.73320458984375,3.336338996887207,2.167796850204468,-0.2442348301410675
1758278309381289500,65.74328955078126,3.186539888381958,1.7714425325393677,-0.3795669376850128
1758278309391374600,65.75337451171875,3.073361158370972,1.4439629316329956,-0.4631763398647308
1758278309401459500,65.76345947265625,2.996032953262329,1.1851701736450195,-0.5045503973960876
1758278309411544600,65.77354467773438,2.942602157592773,0.8934134244918823,-0.5559302568435669
1758278309421628400,65.78362841796876,2.8975672721862797,0.6222556233406067,-0.616457998752594
1758278309431713500,65.79371362304687,2.845925092697144,0.397919237613678,-0.6859918236732483
1758278309441798400,65.80379833984375,2.7811803817749023,0.2560860812664032,-0.7587286829948425
1758278309451883500,65.81388354492188,2.724881410598755,0.2434959858655929,-0.8056038022041321
1758278309461968400,65.82396850585937,2.679285764694214,0.3002594411373138,-0.8175962567329407
1758278309472053500,65.83405346679687,2.63961124420166,0.3312748968601227,-0.7910261750221252
1758278309482138600,65.844138671875,2.6016499996185303,0.3866402804851532,-0.7306747436523438
1758278309492222500,65.85422241210938,2.535541296005249,0.4395711421966553,-0.6442833542823792
1758278309502307300,65.86430737304687,2.4292001724243164,0.5231919288635254,-0.5611072182655334
1758278309512392400,65.87439233398437,2.276780366897583,0.6158555746078491,-0.4908402860164642
1758278309522477600,65.8844775390625,2.095750331878662,0.7262856960296631,-0.4373663663864136
1758278309532562400,65.8945625,1.9276081323623655,0.8296879529953003,-0.391269713640213
1758278309542647600,65.9046474609375,1.781057357788086,0.9215929508209229,-0.3588778674602508
1758278309552732400,65.914732421875,1.6417324542999268,0.960668683052063,-0.3337038159370422
1758278309562816500,65.92481640625,1.4992079734802246,0.9324621558189392,-0.3057965934276581
1758278309572901400,65.9349013671875,1.3482801914215088,0.8412153720855713,-0.270869493484497
1758278309582986500,65.94498657226562,1.2034786939620972,0.7029950022697449,-0.2112706899642944
1758278309593071400,65.9550712890625,1.041142463684082,0.5210291743278503,-0.1139342859387397
1758278309603156500,65.96515649414063,0.8522332310676575,0.2891376316547394,0.029559189453721
1758278309613241300,65.97524145507812,0.6366285085678101,0.0128077734261751,0.2075576782226562
1758278309623325700,65.98532568359374,0.3726353347301483,-0.2755553722381592,0.3127049505710602
1758278309633410600,65.99541064453125,0.0231985114514827,-0.5570808053016663,0.2852754592895508
1758278309643495700,66.00549560546875,-0.4021517038345337,-0.8330698609352112,0.1531500369310379
1758278309653580500,66.01558056640626,-0.8380914926528931,-1.1143568754196167,0.0396881848573684
1758278309663665400,66.02566552734375,-1.2204035520553589,-1.3920879364013672,-0.0044375457800924
1758278309673750500,66.03575048828125,-1.487736463546753,-1.6690326929092407,-0.0101609444245696
1758278309683835400,66.04583544921876,-1.6405866146087646,-1.9597992897033687,-0.0325209572911262
1758278309693919500,66.05591943359374,-1.6701879501342771,-2.27923846244812,-0.0806251019239425
1758278309704004600,66.06600463867187,-1.6466083526611328,-2.585452079772949,-0.2115163505077362
1758278309714089700,66.07608984375,-1.666995882987976,-2.8495097160339355,-0.4265857636928558
1758278309724174600,66.08617456054688,-1.8471571207046509,-3.045597553253174,-0.6370575428009033
1758278309734259700,66.096259765625,-2.201085090637207,-3.0804455280303955,-0.8167000412940979
1758278309744344600,66.10634448242187,-2.570253372192383,-2.887176513671875,-0.9251989126205444
1758278309754428700,66.1164287109375,-2.7989468574523926,-2.4809412956237797,-0.9482632279396056
1758278309764513500,66.12651342773438,-2.822519540786743,-1.9201538562774656,-0.9278992414474488
1758278309774598700,66.1365986328125,-2.664188861846924,-1.2492610216140747,-0.8952690958976746
1758278309784683500,66.14668359375,-2.4171528816223145,-0.5737105011940002,-0.8414740562438965
1758278309794768600,66.1567685546875,-2.1565980911254883,0.0556392297148704,-0.7513703107833862
1758278309804853500,66.166853515625,-1.949069619178772,0.6339399814605713,-0.6422159075737
1758278309814938600,66.17693872070312,-1.8158754110336304,1.1580793857574463,-0.5397497415542603
1758278309825022500,66.1870224609375,-1.7729873657226562,1.5820649862289429,-0.454411894083023
1758278309835107600,66.19710766601563,-1.8212792873382568,1.85993492603302,-0.3675166666507721
1758278309845192400,66.2071923828125,-1.9343196153640747,1.973280668258667,-0.2662224769592285
1758278309855277600,66.21727758789062,-2.0720367431640625,1.926279902458191,-0.1409993022680282
1758278309865362400,66.22736254882813,-2.2236108779907227,1.7766518592834473,-0.0056217676028609
1758278309875447600,66.23744750976563,-2.352612018585205,1.5768287181854248,0.1374970525503158
1758278309885531400,66.24753149414063,-2.4564614295959477,1.3601560592651367,0.2855230569839477
1758278309895616500,66.25761645507812,-2.52088475227356,1.147054672241211,0.4436698257923126
1758278309905701600,66.26770166015625,-2.5573925971984863,0.9588418006896972,0.5965465307235718
1758278309915786500,66.27778637695313,-2.5770602226257324,0.7995933294296265,0.7342822551727295
1758278309925871600,66.28787158203124,-2.5900368690490723,0.6550248265266418,0.8370931148529053
1758278309935956500,66.29795654296875,-2.5815789699554443,0.5398513674736023,0.924013376235962
1758278309946041600,66.30804150390625,-2.5758442878723145,0.4602418839931488,1.001362919807434
1758278309956125400,66.31812548828125,-2.565263032913208,0.4684031307697296,1.0841856002807615
1758278309966210600,66.32821044921874,-2.582271099090576,0.5390621423721313,1.1893317699432373
1758278309976295400,66.33829541015625,-2.6355173587799072,0.6685588955879211,1.3084027767181396
1758278309986380500,66.34838061523438,-2.7454004287719727,0.820117712020874,1.37276029586792
1758278309996465400,66.35846533203124,-2.868191957473755,0.91321462392807,1.2888941764831543
1758278310006550500,66.36855053710937,-2.9679853916168213,0.772828996181488,1.0286470651626587
1758278310016634400,66.37863427734375,-3.018776655197144,0.2883587479591369,0.6777380704879761
1758278310026719500,66.38871948242188,-3.0535647869110107,-0.6489467620849609,0.425563633441925
1758278310036804400,66.39880444335938,-3.09708833694458,-2.0214715003967285,0.3153250217437744
1758278310046889500,66.40888940429687,-3.13237738609314,-3.5738468170166016,0.2614924609661102
1758278310056974300,66.41897436523438,-3.1088829040527344,-4.943754196166992,0.1852608323097229
1758278310067059500,66.4290595703125,-3.0035996437072754,-5.922176837921143,0.145474687218666
1758278310077143600,66.4391435546875,-2.84000015258789,-6.53702449798584,0.1395259797573089
1758278310087228400,66.449228515625,-2.684654712677002,-6.884522438049316,0.10730592161417
1758278310097313300,66.45931323242188,-2.597766160964966,-6.950104713439941,-0.0475015044212341
1758278310107398400,66.4693984375,-2.590744733810425,-6.647593021392822,-0.362355500459671
1758278310117483500,66.4794833984375,-2.5824573040008545,-5.934638023376465,-0.7036536931991577
1758278310127568400,66.489568359375,-2.4780397415161133,-4.962251663208008,-0.9031374454498292
1758278310137653500,66.49965356445313,-2.272581100463867,-3.9247312545776367,-0.8722160458564758
1758278310147737600,66.50973754882813,-2.02774977684021,-2.8615636825561523,-0.638407826423645
1758278310157822700,66.51982275390625,-1.7976306676864624,-1.724476933479309,-0.2939130365848541
1758278310167907600,66.52990747070312,-1.5381178855895996,-0.5452083349227905,0.075469896197319
1758278310177992700,66.53999267578125,-1.232330560684204,0.5883917808532715,0.3943291008472442
1758278310188077600,66.55007763671875,-0.8523764610290527,1.601656198501587,0.623429536819458
1758278310198162400,66.56016235351562,-0.4160952866077423,2.341714859008789,0.7580869197845459
1758278310208246500,66.57024658203125,0.0314414426684379,2.71012282371521,0.8037185072898865
1758278310218331600,66.58033154296875,0.41392782330513,2.6875460147857666,0.7747092247009277
1758278310228416500,66.59041650390625,0.721099317073822,2.44069242477417,0.697620153427124
1758278310238501400,66.60050146484375,0.955946683883667,2.097069263458252,0.5890808701515198
1758278310248586500,66.61058642578125,1.1533937454223633,1.7624542713165283,0.4526171684265136
1758278310258671400,66.62067138671875,1.336410641670227,1.482456922531128,0.3343014419078827
1758278310268756500,66.63075659179688,1.52876877784729,1.2860866785049438,0.235939085483551
1758278310278840300,66.64084033203125,1.7456600666046145,1.159796953201294,0.1476196199655532
1758278310288925400,66.65092553710937,1.979488968849182,1.0672436952590942,0.0632815062999725
1758278310299010600,66.66101049804688,2.2094175815582275,0.9914435744285583,-0.0011717823799699
1758278310309095400,66.67109545898437,2.415527105331421,0.9341340661048888,-0.0438062101602554
1758278310319180500,66.6811806640625,2.580287218093872,0.9048701524734496,-0.0801775380969047
1758278310329265400,66.69126538085938,2.703126907348633,0.9095087051391602,-0.0891758129000663
1758278310339349500,66.701349609375,2.8045454025268555,0.9276999831199646,-0.067177839577198
1758278310349434400,66.71143432617187,2.922340154647827,1.008959412574768,-0.0110763441771268
1758278310359519500,66.72151953125,3.079779148101806,1.2347331047058103,0.0754707977175712
1758278310369604400,66.73160424804688,3.2825748920440674,1.552344560623169,0.1628697365522384
1758278310379689500,66.741689453125,3.503813505172729,1.8905670642852783,0.2122420817613601
1758278310389774300,66.7517744140625,3.717149257659912,2.2265279293060303,0.2253097295761108
1758278310399858400,66.7618583984375,3.907024145126343,2.476440906524658,0.2177458107471466
1758278310409943300,66.771943359375,4.04320764541626,2.6226463317871094,0.1923410147428512
1758278310420028400,66.7820283203125,4.093103885650635,2.643768310546875,0.1571974009275436
1758278310430113300,66.79211328125,4.027201175689697,2.518455982208252,0.0926472768187522
1758278310440198400,66.80219848632812,3.8786137104034415,2.295038938522339,0.0250378735363483
1758278310450283300,66.812283203125,3.693909168243408,2.056898355484009,-0.0275916326791048
1758278310460367400,66.82236743164063,3.524495840072632,1.7471059560775757,-0.0639837309718132
1758278310470452200,66.8324521484375,3.385053396224976,1.384838342666626,-0.1021636649966239
1758278310480537300,66.84253735351562,3.273856401443481,1.0558114051818848,-0.124535821378231
1758278310490622200,66.85262231445313,3.178788185119629,0.7921393513679504,-0.1317101269960403
1758278310500707300,66.86270727539062,3.0820271968841557,0.6094318628311157,-0.1235632449388504
1758278310510792400,66.87279248046875,2.974987506866455,0.4882697463035583,-0.0884637758135795
1758278310520877300,66.88287719726563,2.8664588928222656,0.4369357228279114,-0.0451378710567951
1758278310530961400,66.89296142578125,2.7589540481567383,0.458463191986084,-0.0077592562884092
1758278310541046300,66.90304638671876,2.6632118225097656,0.5475704669952393,0.016853678971529
1758278310551131400,66.91313134765625,2.5738842487335205,0.6508256793022156,0.0221841037273406
1758278310561216300,66.92321630859375,2.4937922954559326,0.7237513065338135,0.015551502816379
1758278310571301400,66.93330126953126,2.4179491996765137,0.820130467414856,-0.004160220734775
1758278310581385500,66.94338549804688,2.345829486846924,0.962698757648468,-0.0349636748433113
1758278310591470600,66.953470703125,2.271505355834961,1.1033604145050049,-0.0764844119548797
1758278310601555500,66.96355541992187,2.18305778503418,1.220725417137146,-0.1336733996868133
1758278310611640600,66.973640625,2.0854427814483643,1.2267800569534302,-0.1931006908416748
1758278310621725400,66.98372534179687,2.00668740272522,1.1736148595809937,-0.2255571782588958
1758278310631810300,66.99381030273437,1.9670681953430176,1.114086031913757,-0.1861991584300995
1758278310641895200,67.00389526367188,1.9466854333877563,1.1568857431411743,-0.0917565450072288
1758278310651979500,67.0139794921875,1.869680404663086,1.208526611328125,0.0043771490454673
1758278310662064400,67.024064453125,1.7224647998809814,1.1459676027297974,0.0231489725410938
1758278310672149500,67.0341494140625,1.5534623861312866,0.9685791730880736,-0.0324518978595733
1758278310682234400,67.044234375,1.3952463865280151,0.6921579837799072,-0.1163380071520805
1758278310692319500,67.05431958007813,1.2522101402282717,0.3081392347812652,-0.2043645679950714
1758278310702404600,67.06440454101562,1.1240441799163818,-0.1833695173263549,-0.258637934923172
1758278310712488400,67.07448852539062,1.010303616523743,-0.7685439586639404,-0.2343346029520034
1758278310722573300,67.0845732421875,0.8845633864402771,-1.3449301719665527,-0.182216539978981
1758278310732658400,67.09465844726563,0.7153745889663696,-1.7591867446899414,-0.1679880768060684
1758278310742743600,67.10474365234376,0.4685754179954529,-1.9179524183273315,-0.2087930291891098
1758278310752828400,67.11482836914062,0.1550220698118209,-1.840067982673645,-0.2998531460762024
1758278310762913500,67.12491357421875,-0.1580341160297393,-1.584702730178833,-0.408853679895401
1758278310772997400,67.13499731445313,-0.4015325605869293,-1.2690428495407104,-0.4591525495052337
1758278310783082500,67.14508251953124,-0.5486775040626526,-0.9700909852981568,-0.4615448415279388
1758278310793167400,67.15516748046875,-0.6188160181045532,-0.6987346410751343,-0.445812851190567
1758278310803252500,67.16525244140625,-0.6510144472122192,-0.424249529838562,-0.4132021963596344
1758278310813337300,67.17533740234374,-0.6711604595184326,-0.1207435131072998,-0.3589454293251037
1758278310823422500,67.18542236328125,-0.7151761054992676,0.1870406717061996,-0.2668572962284088
1758278310833506300,67.19550634765625,-0.8216646313667297,0.4348903894424438,-0.1446493715047836
1758278310843591400,67.20559130859375,-1.034571647644043,0.6076000928878784,-0.022988187149167
1758278310853676300,67.21567626953124,-1.3838276863098145,0.6954355835914612,0.0710305571556091
1758278310863761400,67.22576147460937,-1.835334062576294,0.7508195042610168,0.1226849630475044
1758278310873846300,67.23584619140625,-2.2931370735168457,0.8534510135650635,0.1347940862178802
1758278310883931400,67.24593139648438,-2.656484842300415,1.0230729579925537,0.1501666456460952
1758278310894016500,67.2560166015625,-2.881181478500366,1.2437552213668823,0.2050761580467224
1758278310904100400,67.26610034179687,-2.964725971221924,1.4575157165527344,0.2964132726192474
1758278310914185200,67.27618530273438,-2.9273667335510254,1.6076115369796753,0.3865735530853271
1758278310924270300,67.28627026367188,-2.8005542755126958,1.6798993349075315,0.4687914550304413
1758278310934355500,67.29635546875,-2.625365734100342,1.6725409030914309,0.5260363221168518
1758278310944440300,67.3064404296875,-2.4435954093933105,1.5819545984268188,0.5759863257408142
1758278310954525400,67.316525390625,-2.2772676944732666,1.387806057929993,0.6315398812294006
1758278310964609300,67.326609375,-2.1598215103149414,1.090429186820984,0.6892567276954651
1758278310974694400,67.3366943359375,-2.1094768047332764,0.714651346206665,0.7506650686264038
1758278310984779300,67.346779296875,-2.126838445663452,0.2541249692440033,0.79450523853302
1758278310994864400,67.35686450195313,-2.206881523132324,-0.2476483732461929,0.8192253112792969
1758278311004949200,67.36694921875,-2.3171510696411133,-0.7288435101509094,0.8322377800941467
1758278311015034400,67.37703442382812,-2.43424654006958,-1.1490031480789185,0.8409053087234497
1758278311025118500,67.38711840820312,-2.5409626960754395,-1.4928014278411863,0.846409261226654
1758278311035203600,67.39720361328125,-2.6311798095703125,-1.74156391620636,0.8634778261184692
1758278311045288400,67.40728833007813,-2.7044739723205566,-1.9070674180984497,0.8894362449645996
1758278311055373300,67.41737329101562,-2.772969484329224,-2.0002808570861816,0.9072278738021852
1758278311065458200,67.42745825195313,-2.852749347686768,-2.0409417152404785,0.906876027584076
1758278311075543300,67.43754321289063,-2.9345922470092773,-2.0592403411865234,0.8582586646080017
1758278311085627400,67.44762744140625,-3.0242233276367188,-2.0719258785247803,0.7601661682128906
1758278311095712500,67.45771240234374,-3.1171305179595947,-2.103421211242676,0.5992170572280884
1758278311105797400,67.46779736328125,-3.18731951713562,-2.1933488845825195,0.3935243785381317
1758278311115882500,67.47788256835938,-3.2288758754730225,-2.355339288711548,0.1893134862184524
1758278311125967600,67.48796752929688,-3.223195552825928,-2.612400531768799,-0.0255234520882368
1758278311136052500,67.49805249023437,-3.169162511825561,-2.9561171531677246,-0.2421778440475464
1758278311146136300,67.50813623046875,-3.0953168869018555,-3.3825509548187256,-0.4371811747550964
1758278311156221400,67.51822143554688,-3.0507752895355225,-3.8681674003601074,-0.6149497032165527
1758278311166306600,67.528306640625,-3.0674777030944824,-4.336534023284912,-0.7797876596450806
1758278311176391400,67.53839135742187,-3.1512410640716557,-4.6946330070495605,-0.92700457572937
1758278311186476500,67.5484765625,-3.278938770294189,-4.867676734924316,-1.0433931350708008
1758278311196561400,67.5585615234375,-3.401388168334961,-4.815696716308594,-1.114729404449463
1758278311206645500,67.5686455078125,-3.4642579555511475,-4.530325889587402,-1.139939785003662
1758278311216730400,67.57873046875,-3.426438331604004,-4.0979084968566895,-1.1340266466140747
1758278311226815700,67.58881567382812,-3.291712522506714,-3.6241331100463863,-1.126636981964111
1758278311236900900,67.59890087890625,-3.097440242767334,-3.080810308456421,-1.092623591423035
1758278311246985700,67.60898583984375,-2.89390230178833,-2.4395151138305664,-1.0327080488204956
1758278311257070800,67.61907080078124,-2.693868398666382,-1.8498601913452148,-0.96547269821167
1758278311267154700,67.62915478515625,-2.501657247543335,-1.2907514572143557,-0.8783662915229797
1758278311277239800,67.63923974609375,-2.325666904449463,-0.743853747844696,-0.764981210231781
1758278311287324700,67.64932470703125,-2.152216911315918,-0.2554598152637481,-0.6468306183815002
1758278311297409800,67.65940991210938,-1.962311625480652,0.1517465412616729,-0.5282806754112244
1758278311307495000,67.66949487304687,-1.7299548387527466,0.4604910612106323,-0.4142155647277832
1758278311317579800,67.67957983398438,-1.4675846099853516,0.6712125539779663,-0.3211193978786468
1758278311327663600,67.68966357421876,-1.169561743736267,0.7707194089889526,-0.2571984529495239
1758278311337748700,67.69974877929687,-0.8428703546524048,0.7771625518798828,-0.2123316526412964
1758278311347833900,67.70983374023437,-0.5077637434005737,0.7386950254440308,-0.163848266005516
1758278311357918700,67.71991870117188,-0.1916948109865188,0.6727084517478943,-0.1133073568344116
1758278311368003800,67.73000390625,0.0746122449636459,0.6040026545524597,-0.0358109660446643
1758278311378088700,67.74008862304687,0.2942101061344147,0.5722881555557251,0.0578228682279586
1758278311388172800,67.7501728515625,0.5075700283050537,0.564071774482727,0.1340289562940597
1758278311398257700,67.76025756835938,0.7226750254631042,0.530691921710968,0.1987570226192474
1758278311408342800,67.7703427734375,0.9299944043159484,0.4823776483535766,0.2530181407928467
1758278311418427600,67.780427734375,1.128065586090088,0.5079634189605713,0.3053317368030548
1758278311428512800,67.7905126953125,1.3211168050765991,0.629324197769165,0.355830579996109
1758278311438597600,67.80059765625,1.512944579124451,0.8018621206283569,0.3927831351757049
1758278311448681700,67.810681640625,1.699146032333374,1.0063165426254272,0.4302658140659332
1758278311458766600,67.8207666015625,1.87671160697937,1.2225732803344729,0.4728899598121643
1758278311468851700,67.83085180664062,2.0392632484436035,1.4630944728851318,0.5202966332435608
1758278311478936600,67.8409365234375,2.19555139541626,1.7521628141403198,0.5857029557228088
1758278311489021700,67.85102172851562,2.367775678634644,2.105851411819458,0.6688804030418396
1758278311499106800,67.86110693359375,2.5869882106781006,2.530787467956543,0.764358639717102
1758278311509191000,67.87119091796875,2.839152336120605,3.000841856002808,0.848726749420166
1758278311519275800,67.88127587890625,3.131444931030273,3.4609596729278564,0.8874877095222473
1758278311529361000,67.89136083984376,3.4245285987854004,3.850721597671509,0.8777482509613037
1758278311539445800,67.90144580078125,3.700192451477051,4.143519878387451,0.814887523651123
1758278311549530600,67.91153051757813,3.937337875366211,4.278660297393799,0.7039127945899963
1758278311559615700,67.92161572265626,4.102792739868164,4.241983413696289,0.5586772561073303
1758278311569699800,67.93169995117188,4.188928127288818,4.005918502807617,0.3944997191429138
1758278311579785000,67.94178491210937,4.202967643737793,3.610541343688965,0.2483955323696136
1758278311589869800,67.95186987304687,4.1780314445495605,3.10780930519104,0.1248008906841278
1758278311599955000,67.96195483398438,4.135347843170166,2.534207582473755,0.0346479788422584
1758278311610039800,67.97203979492187,4.070009708404541,1.9379096031188965,-0.040670208632946
1758278311620125000,67.982125,3.991910457611084,1.3824856281280518,-0.0965340882539749
1758278311630208800,67.99220874023437,3.923433780670166,0.9471821188926696,-0.1431122571229934
1758278311640294000,68.0022939453125,3.854881525039673,0.5970243811607361,-0.1949594914913177
1758278311650378800,68.01237866210937,3.769989490509033,0.3171386420726776,-0.2518890798091888
1758278311660463900,68.0224638671875,3.675863742828369,0.0787870958447456,-0.3072505593299866
1758278311670548700,68.032548828125,3.5815675258636475,-0.1053933948278427,-0.3536068797111511
1758278311680632800,68.0426328125,3.5010814666748047,-0.1712699234485626,-0.3825792968273163
1758278311690717700,68.0527177734375,3.437842845916748,-0.1746494770050048,-0.3945310115814209
1758278311700802800,68.062802734375,3.39467453956604,-0.1099408790469169,-0.4016764461994171
1758278311710887700,68.0728876953125,3.369234800338745,-0.0213652066886425,-0.4165307581424713
1758278311720972800,68.08297290039063,3.3542373180389404,0.0687607452273368,-0.4345632493495941
1758278311731058000,68.09305786132812,3.335951566696167,0.1222380846738815,-0.4580126702785492
1758278311741141800,68.10314184570312,3.334899425506592,0.2309191972017288,-0.4659352898597717
1758278311751226600,68.1132265625,3.3385698795318604,0.5091758966445923,-0.4345038831233978
1758278311761311700,68.12331176757813,3.331055164337158,0.8083904981613159,-0.3963363766670227
1758278311771396900,68.13339697265624,3.281332015991211,1.067454814910889,-0.3697766661643982
1758278311781481700,68.14348168945313,3.181435823440552,1.3308944702148438,-0.3239739239215851
1758278311791566800,68.15356689453125,3.0376594066619877,1.5554466247558594,-0.2602806985378265
1758278311801650700,68.16365063476563,2.842796802520752,1.7071874141693115,-0.197056382894516
1758278311811735800,68.17373583984374,2.6086483001708984,1.7996011972427368,-0.1354039311408996
1758278311821820700,68.18382055664063,2.344308376312256,1.811512112617493,-0.0850751101970672
1758278311831905800,68.19390576171875,2.0629608631134038,1.728425145149231,-0.0421441569924354
1758278311841990700,68.20399072265624,1.7933337688446045,1.5517523288726809,-0.0093044517561793
1758278311852075800,68.21407568359375,1.5306448936462402,1.2807639837265017,0.0176715068519115
1758278311862159600,68.22415966796875,1.2720956802368164,0.9270262718200684,0.0328373089432716
1758278311872244700,68.23424462890625,1.0025171041488647,0.5301523804664612,0.0605320520699024
1758278311882329600,68.24432958984374,0.6967875957489014,0.1089704930782318,0.0939499214291572
1758278311892414700,68.25441479492187,0.3595840036869049,-0.3135053813457489,0.1157905086874961
1758278311902499600,68.26449951171875,-0.0009004678577184,-0.7233967781066895,0.1258691996335983
1758278311912584700,68.27458471679688,-0.3621542751789093,-1.103597640991211,0.1351393908262252
1758278311922668800,68.28466870117188,-0.70310378074646,-1.4328781366348269,0.1604452133178711
1758278311932754000,68.29475390625,-1.0119043588638306,-1.692956566810608,0.1920540034770965
1758278311942838800,68.3048388671875,-1.2582987546920776,-1.902950406074524,0.2151439189910888
1758278311952923600,68.31492358398438,-1.4629193544387815,-2.0831265449523926,0.2423992305994033
1758278311963008800,68.3250087890625,-1.6739403009414673,-2.2269766330718994,0.2392511814832687
1758278311973093600,68.33509375,-1.9390125274658203,-2.3191962242126465,0.1888287514448166
1758278311983177700,68.345177734375,-2.2508645057678223,-2.3174219131469727,0.1248792633414268
1758278311993262800,68.35526293945313,-2.5495707988739014,-2.1891584396362305,0.0659781321883201
1758278312003348000,68.36534790039063,-2.7849080562591557,-1.92628276348114,0.0251559913158416
1758278312013432800,68.37543286132812,-2.913270711898804,-1.571840524673462,0.018243758007884
1758278312023518000,68.38551806640625,-2.929982662200928,-1.1737743616104126,0.0642382577061653
1758278312033602800,68.39560278320313,-2.853581428527832,-0.7461420893669128,0.1321983933448791
1758278312043687000,68.40568701171875,-2.718188762664795,-0.339529812335968,0.1817242503166198
1758278312053771800,68.41577172851562,-2.5575520992279053,-0.0293564926832914,0.1875573694705963
1758278312063857000,68.42585693359375,-2.4177587032318115,0.1071556210517883,0.1539585888385772
1758278312073941800,68.43594165039063,-2.330407857894897,0.0661543905735015,0.0774041637778282
1758278312084027000,68.44602685546874,-2.3177928924560547,-0.0586630478501319,-0.0122168390080332
1758278312094110700,68.45611083984375,-2.383384227752685,-0.2666519284248352,-0.094143658876419
1758278312104195800,68.46619580078125,-2.5038094520568848,-0.5371412038803101,-0.1670011729001999
1758278312114280700,68.47628076171875,-2.625039577484131,-0.8363969326019287,-0.2414106875658035
1758278312124365800,68.48636572265625,-2.6983752250671387,-1.13577139377594,-0.3037486374378204
1758278312134450700,68.49645068359375,-2.697549819946289,-1.377940058708191,-0.3493443429470062
1758278312144535800,68.50653588867188,-2.6200108528137207,-1.5712889432907104,-0.3786972761154175
1758278312154619600,68.51661962890626,-2.486713171005249,-1.7421128749847412,-0.3793870508670807
1758278312164704800,68.52670483398437,-2.327601432800293,-1.892355799674988,-0.3549655377864837
1758278312174789600,68.53678955078125,-2.178987741470337,-1.947711944580078,-0.3125515282154083
1758278312184874800,68.54687475585938,-2.07593035697937,-1.9300007820129397,-0.2449784576892852
1758278312194960000,68.5569599609375,-2.0336482524871826,-1.8762084245681765,-0.157692015171051
1758278312205044700,68.56704467773437,-2.059543371200561,-1.7952466011047363,-0.0809398218989372
1758278312215128600,68.57712866210937,-2.134974479675293,-1.72736656665802,-0.0654860362410545
1758278312225213700,68.58721362304688,-2.227213859558105,-1.7185320854187012,-0.1485876142978668
1758278312235299000,68.59729907226563,-2.2676734924316406,-1.8108731508255005,-0.3531522154808044
1758278312245384000,68.60738403320312,-2.209937810897827,-2.005490064620972,-0.6633660793304443
1758278312255469000,68.61746899414062,-2.0491039752960205,-2.330309629440308,-1.0384957790374756
1758278312265554000,68.62755395507813,-1.8458069562911987,-2.7970974445343018,-1.3886706829071045
1758278312275638000,68.63763793945313,-1.6426836252212524,-3.388993978500366,-1.6819275617599487
1758278312285723000,68.64772290039062,-1.5146175622940063,-4.000193119049072,-1.91146183013916
1758278312295808000,68.65780810546875,-1.4962420463562012,-4.504467010498047,-2.079171895980835
1758278312305892900,68.66789282226563,-1.609771966934204,-4.821353435516357,-2.198962450027466
1758278312315978000,68.67797802734376,-1.8661850690841677,-4.96306848526001,-2.3181746006011963
1758278312326062800,68.68806274414062,-2.2065439224243164,-4.987720012664795,-2.423402070999145
1758278312336147000,68.69814697265625,-2.537673234939575,-4.904611110687256,-2.463806629180908
1758278312346232000,68.70823217773437,-2.7265141010284424,-4.783986568450928,-2.4149060249328613
1758278312356317000,68.71831689453126,-2.7116622924804688,-4.603262901306152,-2.280083417892456
1758278312366401800,68.72840185546875,-2.568063974380493,-4.2628173828125,-2.101886987686157
1758278312376487000,68.73848681640625,-2.375303030014038,-3.733468770980835,-1.9500731229782104
1758278312386571000,68.74857104492187,-2.1705780029296875,-2.8564701080322266,-1.8488354682922363
1758278312396656000,68.75865625,-1.9442486763000488,-1.6475400924682615,-1.7988135814666748
1758278312406741000,68.76874096679687,-1.696900725364685,-0.3312103450298309,-1.7320128679275513
1758278312416826000,68.778826171875,-1.4597456455230713,0.8698944449424744,-1.5816723108291626
1758278312426911200,68.7889111328125,-1.243184208869934,1.8068817853927608,-1.3352010250091553
1758278312436996000,68.79899609375,-1.060157060623169,2.477948904037476,-1.064911723136902
1758278312447080200,68.809080078125,-0.8762302398681641,2.906372547149658,-0.8282297849655151
1758278312457165000,68.8191650390625,-0.6944074630737305,3.130138635635376,-0.6457196474075317
1758278312467250200,68.82925024414062,-0.5085498094558716,3.2157464027404785,-0.4596277773380279
1758278312477335000,68.8393349609375,-0.3138407766819,3.1375014781951904,-0.233801856637001
1758278312487420200,68.84942016601562,-0.1336560249328613,2.9175984859466557,-0.0109736751765012
1758278312497504000,68.85950390625,-0.0044402419589459,2.579759120941162,0.1668375879526138
1758278312507589000,68.86958911132812,0.0836608856916427,2.1530017852783203,0.3165996670722961
1758278312517674000,68.87967407226563,0.1782060265541076,1.6703413724899292,0.4323220252990722
1758278312527759000,68.88975903320312,0.3314893245697021,1.180416703224182,0.5182774066925049
1758278312537844000,68.89984399414062,0.5355348587036133,0.7625102400779724,0.5520976781845093
1758278312547929000,68.90992919921875,0.7598183155059814,0.495754987001419,0.5513613224029541
1758278312558013000,68.92001293945313,0.9744570851325988,0.366946667432785,0.5407465100288391
1758278312568098000,68.93009814453124,1.1922664642333984,0.3235837519168854,0.5412401556968689
1758278312578183000,68.94018286132813,1.4033366441726685,0.3400868475437164,0.5521793365478516
1758278312588268000,68.95026806640625,1.6094077825546265,0.3874955773353576,0.6084453463554382
1758278312598353000,68.96035278320312,1.8168095350265503,0.4651956856250763,0.7148705720901489
1758278312608438000,68.97043798828125,2.0416009426116943,0.598019003868103,0.8621584177017212
1758278312618521900,68.98052197265625,2.2631516456604004,0.8053823113441467,1.0265072584152222
1758278312628607000,68.99060693359375,2.4735031127929688,1.0616848468780518,1.184993863105774
1758278312638692000,69.00069213867188,2.646674394607544,1.3296617269515991,1.3152693510055542
1758278312648777000,69.01077685546875,2.779717206954956,1.585702657699585,1.4030637741088867
1758278312658862000,69.02086206054688,2.879645347595215,1.808033227920532,1.4709511995315552
1758278312668947000,69.03094702148438,2.971296548843384,1.982794523239136,1.5185787677764893
1758278312679031000,69.04103100585938,3.060234308242798,2.1102895736694336,1.545435905456543
1758278312689116000,69.05111596679687,3.139002799987793,2.2041587829589844,1.553027629852295
1758278312699201000,69.06120092773438,3.2064614295959477,2.303997755050659,1.553908348083496
1758278312709286000,69.07128588867188,3.2596335411071777,2.4159388542175293,1.5384725332260132
1758278312719371000,69.08137109375,3.2989635467529297,2.543697595596313,1.5114576816558838
1758278312729455000,69.091455078125,3.3199870586395264,2.6697258949279785,1.4550706148147583
1758278312739540200,69.10154028320312,3.3106439113616943,2.7893435955047607,1.3725605010986328
1758278312749625000,69.111625,3.266377210617065,2.891296625137329,1.26024329662323
1758278312759710000,69.1217099609375,3.193713665008545,2.9868834018707275,1.1193716526031494
1758278312769794800,69.131794921875,3.11293888092041,3.0645971298217773,0.9795457124710084
1758278312779880000,69.1418798828125,3.041527032852173,3.1022379398345947,0.8248085975646973
1758278312789964000,69.15196411132813,2.9810166358947754,3.081396102905273,0.6693716049194336
1758278312800049200,69.16204907226563,2.9361345767974854,2.982600212097168,0.516242504119873
1758278312810134000,69.17213403320312,2.896820545196533,2.849870204925537,0.379694402217865
1758278312820219100,69.18221923828125,2.864637613296509,2.6883835792541504,0.2631145417690277
1758278312830304000,69.19230395507813,2.835993528366089,2.5018250942230225,0.1672026962041854
1758278312840388000,69.20238818359375,2.8007116317749023,2.2829506397247314,0.0807487592101097
1758278312850473000,69.21247290039062,2.757554769515991,2.0720014572143555,0.0031374632380902
1758278312860558000,69.22255810546875,2.7081894874572754,1.9318079948425293,-0.0655257552862167
1758278312870643200,69.23264331054688,2.659698486328125,1.7754565477371216,-0.1255524456501007
1758278312880728000,69.24272802734374,2.6002697944641118,1.5429348945617676,-0.1805693656206131
1758278312890813200,69.25281323242187,2.5248262882232666,1.2718794345855713,-0.2278525233268737
1758278312900897000,69.26289697265625,2.440581560134888,0.9501567482948304,-0.261571854352951
1758278312910982100,69.27298217773438,2.3507487773895264,0.606360673904419,-0.2896099090576172
1758278312921067000,69.28306689453125,2.269367218017578,0.2973945438861847,-0.3031778931617737
1758278312931152100,69.29315209960937,2.1879663467407227,0.0460967943072319,-0.2931805551052093
1758278312941237000,69.30323706054688,2.095055103302002,-0.1770785003900528,-0.241950124502182
1758278312951321000,69.31332104492188,1.983488917350769,-0.3687016665935516,-0.1604240983724594
1758278312961406000,69.32340600585937,1.8372681140899656,-0.5027148723602295,-0.0740426033735275
1758278312971491000,69.33349096679687,1.6596229076385498,-0.5845088362693787,0.0117502929642796
1758278312981576000,69.34357592773438,1.428432822227478,-0.6166132092475891,0.0676026344299316
1758278312991661000,69.3536611328125,1.1380740404129028,-0.5903369188308716,0.0865991860628128
1758278313001746000,69.36374584960937,0.803591251373291,-0.4997146129608154,0.0952994674444198
1758278313011830000,69.373830078125,0.4587106704711914,-0.3705288767814636,0.1298441737890243
1758278313021915000,69.38391479492188,0.138105496764183,-0.2239985764026641,0.2258540540933609
1758278313032000000,69.394,-0.1329989433288574,-0.0694850459694862,0.3359343707561493
1758278313042084900,69.4040849609375,-0.3659333884716034,0.0762037113308906,0.3936165869235992
1758278313052170000,69.414169921875,-0.5610504150390625,0.2340498566627502,0.3834084570407867
1758278313062254000,69.42425415039062,-0.7260361313819885,0.4415684044361114,0.3297068774700165
1758278313072339000,69.4343388671875,-0.8504024147987366,0.7092121243476868,0.2497094273567199
1758278313082423800,69.444423828125,-0.965204119682312,0.9682931900024414,0.1865829229354858
1758278313092509000,69.45450903320312,-1.088660717010498,1.1453346014022827,0.1564400941133499
1758278313102594000,69.46459399414063,-1.2233269214630127,1.2001982927322388,0.1621347218751907
1758278313112679000,69.47467895507812,-1.380936861038208,1.1189022064208984,0.1738640964031219
1758278313122763000,69.48476293945312,-1.5809040069580078,0.9086456894874572,0.1618601679801941
1758278313132848000,69.49484814453125,-1.8256675004959104,0.635013222694397,0.1205234229564666
1758278313142933200,69.50493334960937,-2.088110446929932,0.4072903096675873,0.0393185764551162
1758278313153018000,69.51501806640626,-2.3056952953338623,0.2845705151557922,-0.0544224567711353
1758278313163103000,69.52510302734375,-2.4190220832824707,0.2921932637691498,-0.1029764115810394
1758278313173187000,69.53518701171875,-2.4164907932281494,0.4499364793300628,-0.0961314812302589
1758278313183272200,69.54527221679687,-2.3284542560577397,0.7158901691436768,-0.0624225176870822
1758278313193357000,69.55535717773438,-2.2125582695007324,1.01400625705719,-0.0096598183736205
1758278313203442200,69.56544213867187,-2.1205968856811523,1.2931451797485352,0.0678546801209449
1758278313213527000,69.57552709960937,-2.085388422012329,1.5034021139144895,0.1851536035537719
1758278313223612200,69.58561206054688,-2.1269547939300537,1.609707236289978,0.3261663913726806
1758278313233696300,69.5956962890625,-2.24973201751709,1.6086819171905518,0.4703726172447204
1758278313243781000,69.60578100585937,-2.4338743686676025,1.5311073064804075,0.6038483381271362
1758278313253866200,69.6158662109375,-2.631335973739624,1.3762913942337036,0.7285887002944946
1758278313263951000,69.625951171875,-2.7935750484466557,1.1919273138046265,0.840571939945221
1758278313274036200,69.6360361328125,-2.90140151977539,0.967385709285736,0.9414429664611816
1758278313284120000,69.6461201171875,-2.9650685787200928,0.7038049101829529,1.0124253034591677
1758278313294205200,69.656205078125,-3.010262966156006,0.4318970143795013,1.0765137672424316
1758278313304290000,69.6662900390625,-3.0474846363067627,0.1804323196411132,1.1124252080917358
1758278313314375200,69.67637524414063,-3.111469984054565,-0.0797600969672203,1.121173858642578
1758278313324460000,69.6864599609375,-3.188173770904541,-0.3668403327465057,1.1293859481811523
1758278313334545200,69.69654516601562,-3.252637386322021,-0.6381939053535461,1.1206773519515991
1758278313344629000,69.70662890625,-3.294984579086304,-0.8720860481262207,1.078337550163269
1758278313354714000,69.71671411132813,-3.3152644634246826,-1.127968192100525,1.0107576847076416
1758278313364799200,69.72679931640624,-3.298417806625366,-1.4497995376586914,0.9200611114501952
1758278313374884000,69.73688403320313,-3.237403154373169,-1.8060863018035889,0.8205330967903137
1758278313384969200,69.74696923828125,-3.124882459640503,-2.1275463104248047,0.7261780500411987
1758278313395053000,69.75705297851563,-2.992870569229126,-2.466602563858032,0.6217692494392395
1758278313405138200,69.76713818359374,-2.8566272258758545,-2.8183720111846924,0.494784414768219
1758278313415223000,69.77722314453125,-2.7332985401153564,-3.1446521282196045,0.3552715182304382
1758278313425308200,69.78730810546875,-2.602173089981079,-3.466082096099853,0.2039698660373687
1758278313435393000,69.79739306640624,-2.465639114379883,-3.808859825134277,0.0537248402833938
1758278313445478100,69.80747802734375,-2.308448314666748,-4.153944969177246,-0.0704319924116134
1758278313455562200,69.81756225585937,-2.1214632987976074,-4.467100620269775,-0.1713447719812393
