time,seconds_elapsed,z,y,x
1759645141321281800,0.06428173828125,0.02610934153199196,-0.09825722873210907,0.06744401901960373
1759645141331238700,0.07423876953125,0.02948681078851223,-0.03725261241197586,0.0807373970746994
1759645141341196800,0.08419677734375,0.03543205186724663,0.02804170362651348,0.08429378271102905
1759645141351154000,0.09415380859375,0.03452045097947121,0.07975709438323975,0.07374899834394455
1759645141361111000,0.104111083984375,0.030540356412529945,0.10670135915279388,0.05442217364907265
1759645141371067600,0.114067626953125,0.027965163812041283,0.10005830973386765,0.038631752133369446
1759645141381025800,0.12402587890625,0.029500475153326988,0.06730968505144119,0.036467134952545166
1759645141390983000,0.13398291015625,0.03387930989265442,0.02049960196018219,0.04424299672245979
1759645141400940000,0.14393994140625,0.03550011292099953,-0.023650281131267548,0.061347417533397675
1759645141410898000,0.15389794921875,0.03763661906123161,-0.04571574553847313,0.06886730343103409
1759645141420854800,0.163854736328125,0.038966868072748184,-0.040940433740615845,0.06621292978525162
1759645141430812000,0.17381201171875,0.033541854470968246,-0.016641991212964058,0.057986196130514145
1759645141440769000,0.18376904296875,0.024624260142445564,0.010137159377336502,0.05000363662838936
1759645141450726700,0.1937265625,0.02396000176668167,0.017734326422214508,0.04135904461145401
1759645141460683800,0.203683837890625,0.021824143826961517,0.004819592926651239,0.03330591320991516
1759645141470641000,0.213640869140625,0.02118302881717682,-0.016350915655493736,0.03397580608725548
1759645141480598000,0.223597900390625,0.014369330368936062,-0.020309172570705414,0.036124177277088165
1759645141490555600,0.2335556640625,0.008195985108613968,-0.016260571777820587,0.038030143827199936
1759645141500512800,0.2435126953125,0.0028827122878283262,-0.0008770889253355563,0.0347997285425663
1759645141510470000,0.253469970703125,-0.0035388930700719357,-0.006520418915897608,0.03131214529275894
1759645141520426800,0.2634267578125,-0.01155740488320589,-0.03165240213274956,0.030479373410344124
1759645141530385000,0.273385009765625,-0.014176366850733757,-0.04238561913371086,0.033136818557977676
1759645141540341800,0.283341796875,-0.01548477727919817,-0.023874785751104355,0.03729987144470215
1759645141550299000,0.293298828125,-0.019425509497523308,0.0026805060915648937,0.03404271602630615
1759645141560257000,0.303257080078125,-0.015853412449359894,0.0013555835466831923,0.032018713653087616
1759645141570214000,0.3132138671875,-0.017879562452435493,-0.03498825058341026,0.038830891251564026
1759645141580170800,0.323170654296875,-0.018258797004818916,-0.05860942229628563,0.052471600472927094
1759645141590127900,0.3331279296875,-0.016647430136799812,-0.05262233689427376,0.061142612248659134
1759645141600086000,0.3430859375,-0.020325787365436554,-0.021306490525603294,0.06309045106172562
1759645141610043000,0.35304296875,-0.026543380692601204,0.004845834337174892,0.05847450718283653
1759645141620000000,0.363,0.0007803856860846281,-0.005972991231828928,0.05877118185162544
1759645141629956900,0.372956787109375,-0.022082259878516197,-0.08002112060785294,0.08412773907184601
1759645141639914800,0.382914794921875,-0.025487909093499184,-0.15385699272155762,0.10774971544742584
1759645141649872000,0.392871826171875,-0.005270378664135933,-0.16422390937805176,0.108700692653656
1759645141659829000,0.4028291015625,-0.005901814438402653,-0.14275270700454712,0.09712473303079605
1759645141669785900,0.412785888671875,-0.025839323177933693,-0.11811811476945877,0.08731122314929962
1759645141679743700,0.42274365234375,-0.023731164634227753,-0.08321845531463623,0.07983493059873581
1759645141689700900,0.432700927734375,-0.026003720238804817,-0.058790046721696854,0.0761641338467598
1759645141699658000,0.442657958984375,-0.027985911816358566,-0.043815623968839645,0.06938958913087845
1759645141709615900,0.452615966796875,-0.025159232318401337,-0.03163139522075653,0.06356365978717804
1759645141719572700,0.46257275390625,-0.024219853803515434,-0.012165876105427742,0.05563994497060776
1759645141729529900,0.47252978515625,-0.02359813079237938,0.005117742344737053,0.04225672408938408
1759645141739487000,0.482487060546875,-0.02360398881137371,0.010772165842354298,0.029948659241199493
1759645141749444900,0.49244482421875,-0.020580802112817764,0.0018696954939514399,0.025456558912992477
1759645141759401700,0.502401611328125,-0.02464904636144638,-0.0637199729681015,0.04581429809331894
1759645141769358800,0.51235888671875,-0.02143498696386814,-0.1463412493467331,0.07796256244182587
1759645141779316000,0.52231591796875,-0.012558404356241226,-0.18331338465213776,0.09710536152124405
1759645141789273900,0.53227392578125,-0.008154273964464664,-0.1658339649438858,0.09297077357769012
1759645141799230700,0.542230712890625,-0.02061094529926777,-0.10867401212453842,0.07468631118535995
1759645141809187800,0.552187744140625,-0.0383615680038929,-0.030767790973186493,0.0490402989089489
1759645141819146000,0.56214599609375,-0.052108537405729294,0.046068932861089706,0.02497943677008152
1759645141829102800,0.572102783203125,-0.05314616113901138,0.07588642835617065,0.024423234164714813
1759645141839059700,0.582059814453125,-0.05489159747958183,0.07048793882131577,0.0492100715637207
1759645141849016800,0.592016845703125,-0.0678897351026535,0.028722554445266724,0.08341673016548157
1759645141858975000,0.60197509765625,-0.059216614812612534,-0.014725854620337486,0.12231379747390747
1759645141868931800,0.611931884765625,-0.04330895468592644,-0.057422980666160583,0.1463899165391922
1759645141878889000,0.621888916015625,-0.048881884664297104,-0.0713968500494957,0.14791244268417358
1759645141888846800,0.631846923828125,-0.04740549623966217,-0.06535787135362625,0.12297292798757553
1759645141898804000,0.641803955078125,-0.042495694011449814,-0.03352697193622589,0.0816555842757225
1759645141908760800,0.6517607421875,-0.05162236839532852,-0.006245728582143784,0.04355558007955551
1759645141918718000,0.661718017578125,-0.04678100720047951,0.02194329909980297,0.02332833968102932
1759645141928675800,0.67167578125,-0.05188475176692009,0.03504149615764618,0.016437439247965813
1759645141938633000,0.681633056640625,-0.04917951300740242,0.026176629588007927,0.020189834758639336
1759645141948589800,0.69158984375,-0.04677741974592209,0.01370883546769619,0.029048580676317215
1759645141958547700,0.701547607421875,-0.04099862650036812,0.0029701711609959602,0.03978032246232033
1759645141968504800,0.7115048828125,-0.03559897467494011,-0.016856614500284195,0.04367874562740326
1759645141978462000,0.7214619140625,-0.037315648049116135,-0.032864343374967575,0.03971170261502266
1759645141988418800,0.731418701171875,-0.036094747483730316,-0.04939606413245201,0.03796655312180519
1759645141998377000,0.741376953125,-0.034100838005542755,-0.06435610353946686,0.03981292247772217
1759645142008333800,0.751333740234375,-0.03158561885356903,-0.07663776725530624,0.04179062321782112
1759645142018290700,0.761290771484375,-0.03302052989602089,-0.07982983440160751,0.037474434822797775
1759645142028247800,0.771247802734375,-0.03302476182579994,-0.0774986520409584,0.026763148605823517
1759645142038206000,0.7812060546875,-0.0345747210085392,-0.06854484230279922,0.017410127446055412
1759645142048162800,0.791162841796875,-0.04107454791665077,-0.05622728541493416,0.014409427531063557
1759645142058119700,0.80111962890625,-0.04294275864958763,-0.034668996930122375,0.008462322875857353
1759645142068077800,0.811077880859375,-0.038576576858758926,-0.03304995968937874,0.0020509471651166677
1759645142078035000,0.821034912109375,-0.03400712460279465,-0.04893118515610695,0.0012240356300026178
1759645142087992000,0.830991943359375,-0.026411760598421097,-0.0466785728931427,0.006288514938205481
1759645142097948700,0.84094873046875,-0.021330982446670532,-0.04401248320937157,0.010997516103088856
1759645142107906800,0.85090673828125,-0.017371926456689835,-0.05161154642701149,0.016730237752199173
1759645142117864000,0.860864013671875,-0.0217437706887722,-0.0528525784611702,0.020699145272374153
1759645142127821000,0.870821044921875,-0.02083190530538559,-0.03482777252793312,0.021739110350608826
1759645142137779000,0.880779052734375,-0.03130079060792923,-0.028583724051713943,0.01700480841100216
1759645142147736000,0.890736083984375,-0.03055509924888611,-0.0338219590485096,0.022161411121487617
1759645142157693200,0.900693115234375,-0.029150547459721565,-0.03682520613074303,0.029130371287465096
1759645142167650000,0.910650146484375,-0.02831094153225422,-0.030864395201206207,0.03257099539041519
1759645142177608000,0.92060791015625,-0.025317015126347542,-0.019123582169413567,0.02960316650569439
1759645142187565000,0.93056494140625,-0.022667117416858673,-0.012311124242842197,0.02785298228263855
1759645142197522200,0.940522216796875,-0.021059900522232056,-0.0051576076075434685,0.02490166760981083
1759645142207480000,0.95047998046875,-0.021700231358408928,0.0027662422508001328,0.017611250281333923
1759645142217437000,0.96043701171875,-0.022337259724736214,0.007182828616350889,0.012187188491225243
1759645142227394000,0.97039404296875,-0.023048829287290573,-0.00901859812438488,0.013991503976285458
1759645142237352200,0.980352294921875,-0.021871712058782578,-0.03370770066976547,0.018208086490631104
1759645142247309000,0.99030908203125,-0.019645974040031433,-0.044995274394750595,0.0242180023342371
1759645142257266000,1.000265869140625,-0.01583738811314106,-0.04040611535310745,0.021870160475373268
1759645142267223000,1.01022314453125,-0.01552443578839302,-0.02874268777668476,0.011196689680218697
1759645142277181200,1.02018115234375,-0.01679396443068981,-0.009155403822660446,0.0030546081252396107
1759645142287138000,1.030137939453125,-0.01954517513513565,0.007442666683346033,-0.0038090648595243692
1759645142297095200,1.04009521484375,-0.015540046617388725,0.0009022094891406596,-0.001448705093935132
1759645142307053000,1.050052978515625,-0.010892080143094063,-0.02221638336777687,0.00988235417753458
1759645142317010200,1.06001025390625,-0.010385813191533089,-0.032218415290117264,0.018533632159233093
1759645142326967000,1.069967041015625,-0.010372684337198734,-0.030194474384188652,0.01934109628200531
1759645142336924200,1.079924072265625,-0.012221983633935452,-0.012319869361817837,0.011656543239951134
1759645142346882000,1.089882080078125,-0.02064809575676918,0.00800693966448307,0.002472860971465707
1759645142356839200,1.099839111328125,-0.02618374302983284,0.01781722530722618,-0.004111804999411106
1759645142366796000,1.109796142578125,-0.031371764838695526,0.009108095429837704,-0.005514765623956919
1759645142376754000,1.11975390625,-0.0287576075643301,-0.0016574665205553174,0.0026824441738426685
1759645142386711000,1.1297109375,-0.023660928010940552,-0.0057376353070139885,0.012126021087169647
1759645142396668000,1.13966796875,-0.020180445164442062,-0.005529376212507486,0.023960575461387634
1759645142406625000,1.149625,-0.016179338097572327,-0.002474644687026739,0.033539410680532455
1759645142416583200,1.159583251953125,-0.011088705621659756,-0.005595869850367308,0.04324263706803322
1759645142426540000,1.1695400390625,-0.003753810655325651,-0.02927708812057972,0.0503036305308342
1759645142436497000,1.179496826171875,0.0011810266878455877,-0.04155585914850235,0.05222803354263306
1759645142446455000,1.189455078125,0.006818703375756741,-0.050636786967515945,0.05139022320508957
1759645142456412200,1.199412109375,0.004059668630361557,-0.04514641687273979,0.04427851736545563
1759645142466369300,1.209369384765625,-0.0033981315791606903,-0.01821104809641838,0.03356131166219711
1759645142476327200,1.2193271484375,-0.01194155216217041,0.014689643867313862,0.016370872035622597
1759645142486284000,1.229283935546875,-0.02142881602048874,0.039688896387815475,0.003056451678276062
1759645142496241200,1.2392412109375,-0.026110388338565826,0.04873458668589592,-0.000959861499723047
1759645142506198300,1.2491982421875,-0.020002037286758423,0.036675989627838135,-0.0037249294109642506
1759645142516156000,1.259156005859375,-0.011354487389326096,0.0015598128084093332,0.0063261063769459724
1759645142526113000,1.269113037109375,-0.00029093283228576183,-0.02948792651295662,0.023501021787524223
1759645142536070100,1.279070068359375,0.005652443505823612,-0.04597369208931923,0.04185046628117561
1759645142546028000,1.289028076171875,0.00791779812425375,-0.04262596368789673,0.04475456103682518
1759645142555985000,1.29898486328125,0.005772887729108334,-0.025337787345051765,0.03543003648519516
1759645142565942000,1.30894189453125,0.00276001519523561,-0.0010712826624512672,0.016847403720021248
1759645142575900200,1.318900146484375,-0.00039210240356624126,0.0128703648224473,-0.0014993797522038221
1759645142585857300,1.328857177734375,0.0027641565538942814,0.015409495681524277,-0.009313985705375671
1759645142595814000,1.33881396484375,0.0005449447780847549,0.0028452351689338684,-0.007890792563557625
1759645142605771000,1.34877099609375,0.0009534736163914204,-0.005532537121325731,0.0019703609868884087
1759645142615729200,1.358729248046875,0.00007383129559457302,-0.004747170954942703,0.010964121669530869
1759645142625686300,1.368686279296875,-0.0018994336714968085,-0.005678442306816578,0.009804354049265385
1759645142635643000,1.378642822265625,0.0008622643072158098,-0.009580506011843681,0.006227994803339243
1759645142645601000,1.38860107421875,0.0015109810046851635,-0.008239252492785454,0.008410698734223843
1759645142655558100,1.39855810546875,-0.0032275812700390816,-0.006805406883358955,0.013131151907145977
1759645142665515300,1.408515380859375,-0.00454788189381361,-0.016581624746322632,0.01903717778623104
1759645142675472100,1.41847216796875,-0.0025185528211295605,-0.03267617151141167,0.02559387870132923
1759645142685430000,1.428429931640625,-0.0005541008431464434,-0.05310086905956268,0.030134720727801323
1759645142695387100,1.43838720703125,-0.0010281435679644346,-0.050449956208467484,0.03180798515677452
1759645142705344000,1.448343994140625,-0.0032348388340324163,-0.030731912702322006,0.026129059493541718
1759645142715302000,1.458302001953125,-0.008840883150696754,-0.00603483384475112,0.01676345244050026
1759645142725259000,1.468259033203125,-0.014352275058627129,0.014727014116942883,0.007611711509525776
1759645142735216000,1.478216064453125,-0.018364859744906425,0.01865730620920658,0.004363454412668943
1759645142745174300,1.48817431640625,-0.018326422199606895,0.01688018999993801,0.004968860186636448
1759645142755131000,1.498130859375,-0.022372828796505928,0.01145613007247448,0.006561430171132088
1759645142765088000,1.508087890625,-0.023320944979786873,0.017668569460511208,0.006371523719280958
1759645142775046100,1.518046142578125,-0.0214892216026783,0.022875582799315453,0.002787175588309765
1759645142785003300,1.528003173828125,-0.018165960907936096,0.019809704273939133,-0.0030850335024297237
1759645142794960100,1.537960205078125,-0.010533607564866543,0.01769222319126129,-0.00411407882347703
1759645142804917000,1.5479169921875,-0.0038413102738559246,0.005674130283296108,-0.0013500913046300411
1759645142814875100,1.557875244140625,-0.0006037051789462566,-0.010002034716308117,0.004467317368835211
1759645142824832000,1.56783203125,0.0014127215836197138,-0.008772079832851887,0.0097860312089324
1759645142834789000,1.5777890625,-0.000041097868233919144,0.00387660413980484,0.01189418975263834
1759645142844747000,1.5877470703125,-0.0027274752501398325,0.012999771162867546,0.007600406184792519
1759645142854704000,1.5977041015625,-0.011445599608123302,0.022269967943429947,0.0023675609845668077
1759645142864661000,1.607660888671875,-0.010951771400868893,0.024218009784817696,-0.0025369240902364254
1759645142874619000,1.617618896484375,-0.009812204167246819,0.0174447912722826,0.00005060312105342746
1759645142884576000,1.627575927734375,-0.010313285514712334,0.01164119504392147,0.006595016922801733
1759645142894533000,1.637533203125,-0.010867223143577576,0.017388297244906425,0.0064381565898656845
1759645142904490000,1.647489990234375,-0.011718526482582092,0.03500469774007797,0.0006697650533169508
1759645142914448100,1.6574482421875,-0.01534548494964838,0.053248148411512375,-0.008101888932287693
1759645142924405000,1.667405029296875,-0.015362529084086418,0.043329738080501556,-0.011105667799711227
1759645142934362000,1.677362060546875,-0.014477294869720936,0.012682878412306309,-0.0041292509995400906
1759645142944320000,1.687320068359375,-0.009749666787683964,-0.00650264136493206,0.005721036344766617
1759645142954277000,1.697277099609375,-0.00915658101439476,-0.024639833718538284,0.008426008746027946
1759645142964234200,1.707234130859375,-0.012984446249902248,-0.037671566009521484,0.008956898003816605
1759645142974192000,1.717192138671875,-0.01718824729323387,-0.03239797428250313,0.007006132043898106
1759645142984149000,1.72714892578125,-0.02422334998846054,-0.004521949216723442,-0.0001607752637937665
1759645142994106000,1.737106201171875,-0.03101068176329136,0.019101355224847794,-0.010645907372236252
1759645143004064000,1.74706396484375,-0.030938653275370598,0.023530684411525726,-0.017214365303516388
1759645143014021000,1.757021240234375,-0.029051536694169044,0.02710011973977089,-0.021428285166621208
1759645143023978000,1.76697802734375,-0.025371503084897995,0.0329291857779026,-0.020176606252789497
1759645143033935000,1.77693505859375,-0.02286786586046219,0.034028805792331696,-0.022619258612394333
1759645143043893000,1.78689306640625,-0.017738603055477142,0.024971237406134605,-0.022219572216272354
1759645143053850000,1.79685009765625,-0.016424864530563354,0.0077997068874537945,-0.01624130830168724
1759645143063807000,1.806806884765625,-0.019268807023763657,0.0005844285478815436,-0.006214270368218422
1759645143073765000,1.81676513671875,-0.017587287351489067,0.004190615378320217,0.004569933749735355
1759645143083722200,1.82672216796875,-0.018566688522696495,0.004693274851888418,0.012741326354444027
1759645143093679000,1.83667919921875,-0.018266282975673676,-0.0029750315006822348,0.0180900190025568
1759645143103637000,1.846636962890625,-0.01307495217770338,-0.008289720863103867,0.021802755072712898
1759645143113594000,1.856593994140625,-0.012468816712498665,-0.005468899849802256,0.014960029162466526
1759645143123550700,1.86655078125,-0.011023253202438354,0.0013466618256643414,0.003470885567367077
1759645143133507800,1.8765078125,-0.013713845051825047,0.00962349958717823,-0.007179894484579563
1759645143143465700,1.8864658203125,-0.019931631162762642,0.018254918977618217,-0.01217347290366888
1759645143153422600,1.896422607421875,-0.0232390109449625,0.023706940934062004,-0.01066772174090147
1759645143163379700,1.906379638671875,-0.02381969429552555,0.025473326444625854,-0.0066201286390423775
1759645143173337600,1.916337646484375,-0.020714981481432915,0.02592393383383751,-0.0014352203579619527
1759645143183294700,1.926294677734375,-0.014157709665596485,0.020262736827135086,0.009163514710962772
1759645143193251600,1.93625146484375,-0.01138535887002945,0.02359834685921669,0.01615591160953045
1759645143203209700,1.946209716796875,-0.007289780303835869,0.025046590715646744,0.020497728139162064
1759645143213166600,1.95616650390625,-0.004697725176811218,0.020843058824539185,0.02132970094680786
1759645143223123700,1.966123779296875,-0.00452017318457365,0.01715806871652603,0.01991383545100689
1759645143233081600,1.97608154296875,-0.006764153018593788,0.015450982376933098,0.018366806209087372
1759645143243038700,1.986038818359375,-0.00814107060432434,0.021801456809043884,0.0187864750623703
1759645143252995800,1.995995849609375,-0.011129936203360558,0.029920369386672974,0.017171531915664673
1759645143262952700,2.00595263671875,-0.010426908731460571,0.0400928258895874,0.015383783727884293
1759645143272910600,2.01591064453125,-0.01000293344259262,0.04621995985507965,0.015495902858674526
1759645143282867700,2.02586767578125,-0.006253688596189022,0.04121910035610199,0.015694011002779007
1759645143292824800,2.035824951171875,-0.0030589608941227198,0.028004225343465805,0.018706578761339188
1759645143302782700,2.04578271484375,-0.0025218629743903875,0.007358505390584469,0.020071670413017273
1759645143312739600,2.055739501953125,0.0013389214873313904,-0.005698174238204956,0.01794220693409443
1759645143322696700,2.06569677734375,-0.000052499352023005486,0.0010038434993475676,0.017808904871344566
1759645143332654600,2.075654541015625,-0.0027904952876269817,0.012707637622952461,0.012847701087594032
1759645143342611700,2.08561181640625,-0.002727943705394864,0.016627095639705658,0.012472439557313919
1759645143352568600,2.095568603515625,-0.0027479175478219986,0.016423629596829414,0.012454329989850521
1759645143362526700,2.105526611328125,-0.0011016619391739368,0.01371800247579813,0.016683414578437805
1759645143372483800,2.11548388671875,0.0009710763115435839,0.016126032918691635,0.016457311809062958
1759645143382440700,2.125440673828125,0.0003396735992282629,0.01931588351726532,0.017404885962605476
1759645143392397600,2.1353974609375,-0.0023485212586820126,0.02678631618618965,0.014527607709169388
1759645143402355700,2.145355712890625,-0.003841521916911006,0.035379622131586075,0.009364514611661434
1759645143412312800,2.155312744140625,-0.0020854335743933916,0.031343601644039154,0.009593013674020767
1759645143422269700,2.165269775390625,-0.002154155168682337,0.0027067908085882664,0.010823181830346584
1759645143432227600,2.1752275390625,-0.00024600024335086346,-0.017671452835202217,0.015670932829380035
1759645143442184700,2.185184814453125,0.0010201346594840288,-0.024069862440228462,0.020433245226740837
1759645143452141800,2.195141845703125,0.0014691438991576433,-0.019099071621894836,0.01985001377761364
1759645143462099700,2.205099609375,0.0007241754792630672,-0.001377473003230989,0.011263994500041008
1759645143472056600,2.215056640625,0.0022264644503593445,0.01359348651021719,0.00029150416958145797
1759645143482013700,2.225013671875,0.0036391166504472494,0.0021956434939056635,0.0018849365878850222
1759645143491971800,2.234971923828125,0.0030207305680960417,-0.01989234797656536,0.012031313963234425
1759645143501928700,2.2449287109375,0.0035500365775078535,-0.03108970634639263,0.026672163978219032
1759645143511885600,2.254885498046875,0.003592380555346608,-0.028451845049858093,0.03335057199001312
1759645143521842700,2.2648427734375,0.0028169595170766115,-0.018908360973000526,0.028705159202218056
1759645143531800800,2.27480078125,-0.004812996834516525,-0.006608284544199705,0.021184125915169716
1759645143541757700,2.2847578125,-0.0015099458396434784,-0.012778264470398426,0.017239855602383614
1759645143551714600,2.294714599609375,0.007826563902199268,0.005680371075868607,0.01387495081871748
1759645143561672700,2.304672607421875,0.0013130479492247105,0.0010416990844532847,0.021665731444954872
1759645143571629800,2.3146298828125,0.0022044084034860134,-0.018709899857640266,0.024581626057624817
1759645143581586700,2.324586669921875,0.006807716563344002,-0.03613611310720444,0.029859503731131554
1759645143591544600,2.334544677734375,0.005659627728164196,-0.03536379709839821,0.03220148757100105
1759645143601501700,2.344501708984375,-0.00021450663916766644,-0.019348343834280968,0.022820502519607544
1759645143611458800,2.354458740234375,-0.002536782994866371,-0.00779688311740756,0.014521559700369835
1759645143621416700,2.364416748046875,-0.009852400049567223,-0.004119279328733683,0.008047886192798615
1759645143631373600,2.37437353515625,-0.010501145385205746,-0.015108547173440456,0.016484247520565987
1759645143641330700,2.38433056640625,0.0030565299093723297,-0.024950100108981133,0.025874175131320953
1759645143651288800,2.394288818359375,0.0011734087020158768,-0.03969442844390869,0.02989315055310726
1759645143661245700,2.40424560546875,-0.001898041577078402,-0.042099203914403915,0.029944555833935738
1759645143671202600,2.41420263671875,-0.005451231263577938,-0.02798551507294178,0.02677752450108528
1759645143681159700,2.42415966796875,-0.009795374237000942,-0.013021511025726795,0.01590742915868759
1759645143691116800,2.43411669921875,-0.015566710382699966,-0.0010993380565196276,-0.0001951070735231042
1759645143701073700,2.44407373046875,-0.020353619009256363,0.009524505585432053,-0.015144267119467258
1759645143711031600,2.454031494140625,-0.027847222983837128,0.016830623149871826,-0.01830570586025715
1759645143720988700,2.46398876953125,-0.02626607194542885,0.003915006294846535,-0.0037355287931859493
1759645143730945500,2.473945556640625,-0.022320598363876343,-0.026352884247899055,0.019451016560196877
1759645143740903700,2.483903564453125,-0.018876945599913597,-0.046037282794713974,0.04202517867088318
1759645143750860800,2.49386083984375,-0.01577010191977024,-0.05137292668223381,0.0521387979388237
1759645143760817700,2.503817626953125,-0.013702941127121449,-0.05408714339137077,0.05034763365983963
1759645143770775800,2.51377587890625,-0.017137886956334114,-0.04931875318288803,0.0401032529771328
1759645143780732700,2.523732666015625,-0.01957693137228489,-0.03777124732732773,0.029676217585802078
1759645143790689800,2.533689697265625,-0.021222766488790512,-0.030599355697631836,0.020149024203419685
1759645143800646700,2.543646728515625,-0.024184079840779305,-0.02407708205282688,0.011399761773645878
1759645143810604800,2.553604736328125,-0.03323696553707123,-0.008467762731015682,0.0050185611471533775
1759645143820561700,2.563561767578125,-0.03936801105737686,0.004216582048684359,0.000022936903405934572
1759645143830518800,2.573518798828125,-0.044507116079330444,0.006477073300629854,-0.0035233283415436745
1759645143840476700,2.5834765625,-0.05296396091580391,-0.004224230535328388,-0.0005610177177004516
1759645143850433500,2.59343359375,-0.05549849197268486,-0.0106680141761899,0.00798027217388153
1759645143860390700,2.603390625,-0.05218292400240898,-0.006505327299237251,0.018356433138251305
1759645143870348800,2.613348876953125,-0.049991674721241,0.004014425445348024,0.021897373721003532
1759645143880305700,2.6233056640625,-0.046240877360105515,0.009732498787343502,0.017287440598011017
1759645143890262500,2.633262451171875,-0.0476187989115715,0.01619679108262062,0.00987826194614172
1759645143900220700,2.643220703125,-0.04693565145134926,0.025297898799180984,0.007056611590087414
1759645143910177800,2.653177734375,-0.043009351938962936,0.026074742898344994,0.004062153398990631
1759645143920134700,2.663134765625,-0.03293384611606598,0.012773669324815273,0.002201646100729704
1759645143930092800,2.6730927734375,-0.021173860877752304,-0.00360530405305326,0.0004676618264056742
1759645143940049700,2.683049560546875,-0.010103882290422916,-0.013628003187477589,-0.0009766240837052464
1759645143950006800,2.6930068359375,-0.0039911288768053055,-0.02196529507637024,0.004986726213246584
1759645143959964000,2.7029638671875,-0.0017913880292326212,-0.030397841706871986,0.00853616464883089
1759645143969921500,2.712921630859375,-0.00029016402550041676,-0.03652098402380943,0.01087868120521307
1759645143979878700,2.722878662109375,-0.0015307231806218624,-0.031774528324604034,0.008099360391497612
1759645143989835800,2.732835693359375,-0.005844245199114084,-0.021606044843792915,0.007521720137447119
1759645143999793700,2.742793701171875,-0.005743872374296188,-0.013460681773722172,0.004757335875183344
1759645144009750500,2.75275048828125,-0.006454936228692532,-0.013427925296127796,0.0023282666224986315
1759645144019707600,2.762707763671875,-0.004813341423869133,-0.013274382799863815,0.00261071533896029
1759645144029665800,2.772665771484375,-0.002154707908630371,-0.007719826884567738,0.004299425520002842
1759645144039622700,2.78262255859375,-0.005140579305589199,0.004338299389928579,0.008205666206777096
1759645144049579500,2.79257958984375,-0.007388287223875523,0.013940858654677868,0.009837917052209377
1759645144059537700,2.80253759765625,-0.009002488106489182,0.0181293822824955,0.010782761499285698
1759645144069494800,2.812494873046875,-0.009751634672284126,0.01662762649357319,0.012920213863253593
1759645144079452000,2.822451904296875,-0.011644639074802399,0.014885738492012024,0.012574778869748116
1759645144089408500,2.832408447265625,-0.008416354656219482,0.014187457039952278,0.013844308443367481
1759645144099366700,2.84236669921875,-0.0030130883678793907,0.011309534311294556,0.010440841317176819
1759645144109323800,2.85232373046875,-0.002266337862238288,0.014266176149249077,0.0052854944951832294
1759645144119281200,2.86228125,-0.0009230738505721092,0.02280375361442566,0.004718141630291939
1759645144129239000,2.872239013671875,-0.0013009763788431883,0.03532993420958519,0.00362011999823153
1759645144139196200,2.882196044921875,-0.003455942263826728,0.04265192896127701,-0.00042003876296803355
1759645144149153000,2.892153076171875,-0.0044074896723032,0.03766169771552086,-0.0012203187216073275
1759645144159111000,2.90211083984375,-0.0062815360724925995,0.027719158679246902,-0.0011330206179991364
1759645144169068000,2.912068115234375,-0.010414762422442436,0.016588743776082993,-0.0016877572052180767
1759645144179025200,2.922025146484375,-0.014519146643579006,0.00949801690876484,-0.001957809319719672
1759645144188982000,2.93198193359375,-0.017240364104509354,0.010022659786045551,-0.0027596871368587017
1759645144198940200,2.941940185546875,-0.018163099884986877,0.013449374586343765,-0.00783543661236763
1759645144208897000,2.95189697265625,-0.01751355454325676,0.01841483823955059,-0.011178502812981606
1759645144218854100,2.961854248046875,-0.019469168037176132,0.02257353812456131,-0.008230961859226227
1759645144228812300,2.971812255859375,-0.019616974517703056,0.020201725885272026,-0.008784633129835129
1759645144238769200,2.98176904296875,-0.023450380191206932,0.018080689013004303,-0.006976925767958164
1759645144248726000,2.99172607421875,-0.02457449957728386,0.01698879338800907,-0.009074698202311993
1759645144258684200,3.00168408203125,-0.02718159928917885,0.016675841063261032,-0.012312340550124645
1759645144268641000,3.01164111328125,0.0039590089581906796,0.09232053905725479,-0.005236854776740074
1759645144278598100,3.02159814453125,-0.06274765729904175,0.08928053081035614,-0.027419723570346832
1759645144288555300,3.03155517578125,-0.04787523299455643,0.04726889729499817,-0.036345042288303375
1759645144298513200,3.04151318359375,-0.022625252604484558,0.02583928406238556,-0.02739504538476467
1759645144308470000,3.051469970703125,-0.02697818912565708,0.021199258044362068,-0.0069361100904643536
1759645144318427100,3.06142724609375,-0.02789045311510563,0.04004288837313652,0.002686041872948408
1759645144328385000,3.071385009765625,-0.03668501228094101,0.014110356569290161,-0.0024629137478768826
1759645144338342100,3.081342041015625,-0.031110111624002457,-0.014542406424880028,-0.0023464413825422525
1759645144348299000,3.091299072265625,-0.028023507446050644,-0.030285682529211044,0.006998590659350157
1759645144358257200,3.101257080078125,-0.03153432533144951,-0.036705318838357925,0.01088523119688034
1759645144368214000,3.111214111328125,-0.02890179120004177,-0.03457452356815338,0.010810395702719688
1759645144378171100,3.121171142578125,-0.027727285400032997,-0.03215048834681511,0.015601925551891327
1759645144388128000,3.1311279296875,-0.03051667846739292,-0.025706171989440918,0.019626226276159286
1759645144398086100,3.141086181640625,-0.03143637254834175,-0.019094262272119522,0.021362783387303352
1759645144408043300,3.151043212890625,-0.0351373665034771,-0.0123745733872056,0.025172967463731766
1759645144418000100,3.161000244140625,-0.03427526727318764,-0.014841078780591488,0.026763353496789932
1759645144427958000,3.1709580078125,-0.0356939323246479,-0.02283002994954586,0.025143885985016823
1759645144437915100,3.1809150390625,-0.038067933171987534,-0.02885599248111248,0.02832932211458683
1759645144447872300,3.190872314453125,-0.036935556679964066,-0.02735530026257038,0.024562014266848564
1759645144457829000,3.2008291015625,-0.03648361936211586,-0.021249737590551376,0.01779625378549099
1759645144467787000,3.210787109375,-0.03935397416353226,-0.004382339771836996,0.01277992408722639
1759645144477744000,3.220744140625,-0.048472948372364044,0.020033162087202072,0.004764828365296125
1759645144487701200,3.230701171875,-0.05525495857000351,0.042303845286369324,-0.003636379726231098
1759645144497659100,3.2406591796875,-0.059305865317583084,0.05818552151322365,-0.009260686114430428
1759645144507616000,3.250615966796875,-0.05747201293706894,0.061714742332696915,-0.01186366006731987
1759645144517573000,3.260572998046875,-0.04991265386343002,0.05957657843828201,-0.005745603237301111
1759645144527530200,3.2705302734375,-0.038311392068862915,0.05267659202218056,0.008132661692798138
1759645144537488100,3.280488037109375,-0.022064106538891792,0.035561755299568176,0.030989736318588257
1759645144547445000,3.290445068359375,-0.01489221304655075,0.005790013819932938,0.03321507200598717
1759645144557402000,3.300402099609375,-0.006199801340699196,-0.03303508833050728,0.031902607530355453
1759645144567360300,3.3103603515625,-0.0020489986054599285,-0.05210252106189728,0.031719379127025604
1759645144577317000,3.320317138671875,-0.004720763303339481,-0.05497361719608307,0.034934088587760925
1759645144587274000,3.33027392578125,-0.004352714866399765,-0.0602773018181324,0.03531279042363167
1759645144597231000,3.340231201171875,-0.00453540775924921,-0.06437697261571884,0.03423421084880829
1759645144607189200,3.350189208984375,-0.003250964917242527,-0.05453366041183472,0.0350097231566906
1759645144617146000,3.36014599609375,-0.0038354673888534307,-0.034003060311079025,0.033175840973854065
1759645144627103000,3.37010302734375,-0.0009576557204127312,-0.023037491366267204,0.03453591838479042
1759645144637061000,3.38006103515625,-0.0013240436092019081,-0.01777615025639534,0.03884204849600792
1759645144647018200,3.390018310546875,-0.0015386943705379963,-0.017672287300229073,0.044052258133888245
1759645144656975000,3.39997509765625,-0.001025296514853835,-0.019079264253377914,0.04729069396853447
1759645144666932200,3.40993212890625,-0.001301732612773776,-0.025296147912740707,0.05048568919301033
1759645144676890000,3.41989013671875,-0.00016972795128822327,-0.029179658740758896,0.04634569212794304
1759645144686847200,3.42984716796875,0.0038455200847238302,-0.032297153025865555,0.04001615568995476
1759645144696804000,3.43980419921875,0.00435988511890173,-0.026746444404125214,0.03782109171152115
1759645144706762000,3.449761962890625,0.004912224598228931,-0.023031068965792656,0.04045975208282471
1759645144716719000,3.459718994140625,0.004815185442566872,-0.026278378441929817,0.04272022843360901
1759645144726676200,3.46967626953125,0.0066847242414951324,-0.030852356925606728,0.04358921945095062
1759645144736633000,3.479633056640625,0.011678619310259819,-0.031938958913087845,0.044814035296440125
1759645144746591000,3.489591064453125,0.014070136472582817,-0.023333752527832985,0.04863247647881508
1759645144756548000,3.499548095703125,0.017350943759083748,-0.008370784111320972,0.04539520666003227
1759645144766505000,3.5095048828125,0.01754402182996273,0.004024633672088385,0.03516094759106636
1759645144776463000,3.519463134765625,0.0147378109395504,0.006890373770147562,0.024447001516819
1759645144786420200,3.529420166015625,0.014729553833603859,0.004236001055687666,0.016597867012023926
1759645144796377000,3.539377197265625,0.01359398290514946,-0.008464082144200802,0.013290487229824066
1759645144806334000,3.549333984375,0.012121787294745445,-0.012924876995384693,0.016650596633553505
1759645144816292000,3.5592919921875,0.011361771263182163,-0.011967221274971962,0.02032691426575184
1759645144826249200,3.569249267578125,0.012643284164369106,-0.008866502903401852,0.020248351618647575
1759645144836206000,3.5792060546875,0.009037250652909279,-0.0033710829447954893,0.015356066636741161
1759645144846163000,3.589162841796875,0.0076276399195194244,0.006421093828976154,0.01050192303955555
1759645144856121000,3.59912109375,0.004499766975641251,0.018592573702335358,0.0038455172907561064
1759645144866078200,3.609078125,0.0036792466416954994,0.022425927221775055,-0.0006893134559504688
1759645144876035300,3.619035400390625,-0.00039215898141264915,0.02189510688185692,0.0009023805614560843
1759645144885993000,3.628992919921875,0.0002501953858882189,0.018429534509778023,0.0015551212709397078
1759645144895950000,3.6389501953125,0.0025342535227537155,0.009981390088796616,-0.0004885266534984112
1759645144905907200,3.6489072265625,0.005819795187562704,-0.0008283802308142185,-0.0007732185767963529
1759645144915864300,3.6588642578125,0.006457775831222534,-0.005220883991569281,-0.0007646115846000612
1759645144925822000,3.668822021484375,0.007625306025147438,0.0003483182517811656,-0.00008870131568983197
1759645144935779000,3.678779052734375,0.006955267395824194,0.007929573766887188,-0.00018147961236536503
1759645144945736200,3.688736083984375,0.006109447684139013,0.01235867664217949,-0.0018225193489342928
1759645144955693000,3.698693115234375,0.0072986166924238205,0.02075219340622425,-0.004263604059815407
1759645144965651000,3.70865087890625,0.006413647904992104,0.0338863730430603,-0.003189284587278962
1759645144975608000,3.718608154296875,0.003772043390199542,0.04654660075902939,-0.0010902041103690863
1759645144985565200,3.728565185546875,0.0009618757758289576,0.04169538617134094,0.004248368553817272
1759645144995522000,3.73852197265625,0.001833444694057107,0.02954343892633915,0.005399660672992468
1759645145005480000,3.74847998046875,-0.001371403457596898,0.019995739683508873,0.0034198667854070663
1759645145015437000,3.75843701171875,-0.00395903130993247,0.0018812057096511126,0.0022564397659152746
1759645145025394200,3.768394287109375,-0.007298635318875313,-0.01020741555839777,0.001895315246656537
1759645145035352300,3.778352294921875,-0.0061707692220807076,-0.005146040581166744,-0.002051057294011116
1759645145045309200,3.78830908203125,-0.009241128340363503,0.007740463130176067,-0.0037482900079339743
1759645145055266000,3.79826611328125,-0.00625191256403923,0.01624893955886364,-0.001700859284028411
1759645145065223200,3.80822314453125,-0.0032465350814163685,0.01432294026017189,0.002317051636055112
1759645145075181000,3.81818115234375,-0.0017362082144245505,0.006134246475994587,0.003972808364778757
1759645145085138200,3.82813818359375,-0.0005423130933195353,0.000899004633538425,0.004857243970036507
1759645145095095000,3.838094970703125,-0.00025992700830101967,-0.0031193674076348543,0.00635913573205471
1759645145105052000,3.848052001953125,-0.0031987251713871956,-0.008184433914721012,0.0031875772401690483
1759645145115010000,3.858010009765625,-0.006991599220782518,-0.0051175374537706375,-0.0035731233656406403
1759645145124967700,3.8679677734375,-0.014363761991262436,0.014405829831957817,-0.010200665332376957
1759645145134924500,3.877924560546875,-0.015810025855898857,0.03648301959037781,-0.016875330358743668
1759645145144881400,3.88788134765625,-0.01817517913877964,0.04971839487552643,-0.02399688959121704
1759645145154839600,3.897839599609375,-0.012707822024822235,0.05236608535051346,-0.028042003512382507
1759645145164796700,3.907796630859375,-0.004079712554812431,0.04263143241405487,-0.02354871854186058
1759645145174753800,3.91775390625,-8.014030754566193e-7,0.030338456854224205,-0.011863277293741703
1759645145184710400,3.92771044921875,0.000902809202671051,0.027632951736450195,-0.0029438184574246407
1759645145194668500,3.93766845703125,0.0026346363592892885,0.02506345324218273,-0.00023862585658207536
1759645145204625700,3.947625732421875,0.002465791767463088,0.016045190393924713,-0.0047995550557971
1759645145214582800,3.957582763671875,0.0011985038872808218,0.00527059705927968,-0.010973789729177952
1759645145224540400,3.96754052734375,-0.0018074059626087546,0.001078515313565731,-0.013844943605363369
1759645145234497500,3.97749755859375,-0.005878651514649391,-0.00008739485929254442,-0.012592864222824574
1759645145246944800,3.98994482421875,-0.008819580078125,0.0028239728417247534,-0.007896379567682743
1759645145256901400,3.9999013671875,-0.01167130284011364,0.010374926961958408,-0.008721183985471725
1759645145266859500,4.009859619140625,-0.011737349443137646,0.01840968430042267,-0.01323577482253313
1759645145276816600,4.019816650390625,-0.010315392166376114,0.023969359695911407,-0.016902761533856392
1759645145286773800,4.029773681640625,-0.01186295598745346,0.032129816710948944,-0.018735814839601517
1759645145296730600,4.039730712890625,-0.012867345474660397,0.04321067035198212,-0.012814847752451897
1759645145306688500,4.0496884765625,-0.008844107389450073,0.036035049706697464,-0.00752767501398921
1759645145316645600,4.059645751953125,-0.0030386829748749733,0.005754643119871616,-0.0001113035250455141
1759645145326602500,4.0696025390625,0.002480451948940754,-0.013566589914262295,0.004727926105260849
1759645145336559600,4.0795595703125,0.005260542035102844,-0.01599835604429245,0.0013705985620617867
1759645145346517500,4.089517578125,0.0018849859479814768,0.0032927824649959803,-0.0038167068269103765
1759645145356474600,4.099474609375,-0.004246426280587912,0.027863141149282455,-0.013803413137793541
1759645145366431500,4.109431396484375,-0.007648081984370947,0.03611654415726662,-0.018714282661676407
1759645145376388600,4.119388671875,-0.006680399179458618,0.017680786550045013,-0.011646824888885021
1759645145386346500,4.129346435546875,-0.005714736878871918,-0.002572020050138235,0.0010676392121240497
1759645145396303600,4.1393037109375,0.0019325423054397106,-0.008996722288429737,0.008095212280750275
1759645145406260500,4.149260498046875,0.006524631287902594,-0.005549792665988207,0.0069852061569690704
1759645145416217600,4.159217529296875,0.007430905010551214,0.009966582991182804,-0.00383228762075305
1759645145426175500,4.169175537109375,0.006546202581375837,0.02157849818468094,-0.017853030934929848
1759645145436132600,4.179132568359375,0.005796465557068586,0.025225894525647163,-0.022566676139831543
1759645145446089500,4.18908935546875,0.004553568083792925,0.008831207640469074,-0.014379320666193962
1759645145456046600,4.199046630859375,0.003602133132517338,-0.005692232865840197,0.003493219381198287
1759645145466004700,4.209004638671875,0.005488982889801264,-0.012344010174274445,0.011799884960055351
1759645145475961600,4.218961669921875,0.005782298743724823,-0.010370937176048756,0.010669385083019733
1759645145485918500,4.22891845703125,0.002941504819318652,-0.00038594717625528574,0.005114829633384943
1759645145495875600,4.23887548828125,0.0006088665686547756,0.020150834694504738,-0.003547854255884886
1759645145505833700,4.248833740234375,-0.0025592297315597534,0.042045749723911285,-0.010764222592115402
1759645145515790300,4.258790283203125,-0.002839503576979041,0.03677479550242424,-0.007178314030170441
1759645145525747500,4.26874755859375,-0.0004748827777802944,0.011211378499865532,0.004283664748072624
1759645145535704600,4.27870458984375,0.004735325463116169,-0.008089881390333176,0.016933413222432137
1759645145545662700,4.288662841796875,0.004102825187146664,-0.012786099687218666,0.01954224705696106
1759645145555619600,4.29861962890625,0.0018546460196375847,-0.004359730985015631,0.014853164553642273
1759645145565576400,4.308576416015625,-0.00035737548023462296,0.010210422798991203,0.0020393647719174623
1759645145575533600,4.318533447265625,-0.00208461657166481,0.03136758133769035,-0.010144605301320553
1759645145585491700,4.32849169921875,-0.004331525415182114,0.04957880824804306,-0.019027044996619225
1759645145595448600,4.338448486328125,-0.0001867036335170269,0.038572777062654495,-0.014513411559164524
1759645145605405700,4.34840576171875,0.00302932970225811,0.0017255470156669617,0.00013450626283884048
1759645145615362600,4.358362548828125,0.006472590379416943,-0.026931004598736763,0.01724473014473915
1759645145625320700,4.36832080078125,0.008843868970870972,-0.036033425480127335,0.027666743844747543
1759645145635277600,4.378277587890625,0.001711344812065363,-0.026468899101018906,0.026296092197299004
1759645145645234700,4.388234619140625,-0.0006961529143154621,-0.00967899989336729,0.013076427392661572
1759645145655191600,4.398191650390625,-0.0032152875792235136,0.012251701205968857,-0.005791895557194948
1759645145665149700,4.408149658203125,-0.0030174145940691233,0.030302340164780617,-0.020096266642212868
1759645145675106600,4.4181064453125,-0.0009655221365392208,0.02933770790696144,-0.014601335860788822
1759645145685063700,4.428063720703125,-0.0009543367195874453,0.008961332030594349,0.003962761722505093
1759645145695021600,4.438021484375,0.0029655960388481617,-0.021634045988321304,0.02677597850561142
1759645145704978400,4.447978515625,0.005308112595230341,-0.04069269075989723,0.04048246890306473
1759645145714935600,4.457935546875,0.005352155305445194,-0.037042390555143356,0.04293854534626007
1759645145724892700,4.467892578125,0.001819205703213811,-0.019086292013525963,0.030025146901607513
1759645145734849500,4.477849609375,-0.0012164765503257513,0.0036142945755273104,0.016368571668863297
1759645145744807400,4.487807373046875,-0.0015272675082087517,0.013942832127213478,0.0030242714565247297
1759645145754764500,4.4977646484375,-0.0033452126663178205,0.0073259081691503525,-0.0013731091748923063
1759645145764721700,4.5077216796875,-0.005884802900254726,-0.0048516616225242615,0.0018716861959546804
1759645145774679600,4.517679443359375,-0.008736043237149715,-0.00568521860986948,0.008680501021444798
1759645145784636400,4.527636474609375,-0.014541467651724815,-0.003304618876427412,0.008162249810993671
1759645145794593500,4.537593505859375,-0.016513004899024963,0.006823832169175148,0.003389305667951703
1759645145804550700,4.547550537109375,-0.014303380623459816,0.019749484956264496,-0.006906208582222462
1759645145814508800,4.5575087890625,-0.011041313409805298,0.027338115498423576,-0.01028832234442234
1759645145824465400,4.56746533203125,-0.00985008105635643,0.024212896823883057,-0.005039232317358255
1759645145834422500,4.577422607421875,-0.0034521028865128756,0.02297372743487358,0.0022759386338293552
1759645145844379600,4.587379638671875,-0.0016744427848607302,0.0058280304074287415,0.010507503524422646
1759645145854337500,4.597337646484375,-0.0007902323268353939,-0.01213100552558899,0.017351897433400154
1759645145864294700,4.607294677734375,-0.0010664020664989948,-0.0190562903881073,0.01449752040207386
1759645145874251500,4.61725146484375,0.00006863707676529884,-0.013507859781384468,0.006224144250154495
1759645145884208600,4.627208740234375,-0.00387284136377275,-0.0019574633333832026,-0.006135585717856884
1759645145894166500,4.63716650390625,-0.003858053358271718,0.004526335746049881,-0.013933117501437664
1759645145904123600,4.64712353515625,-0.002974150236696005,0.0038714639376848936,-0.014049497433006763
1759645145914080500,4.65708056640625,-0.0016533008310943842,0.0028928546234965324,-0.008997593075037003
1759645145924037400,4.667037353515625,-0.0009856463875621557,-0.00018043314048554748,-0.00026854960015043616
1759645145933995500,4.67699560546875,-0.0006067443173378706,0.007462274748831987,0.002903572516515851
1759645145943952600,4.68695263671875,0.0005232349503785372,0.011144627816975117,0.0037406040355563164
1759645145953909800,4.69690966796875,0.0017738735768944025,-0.001312537002377212,-0.00022094842279329896
1759645145963866400,4.706866455078125,0.002704648533836007,-0.007571497932076454,-0.006119051482528448
1759645145973824500,4.716824462890625,0.0032784463837742805,-0.007708409801125526,-0.013116545975208282
1759645145983781600,4.72678173828125,0.0026304996572434902,-0.00010055775055661798,-0.01712007448077202
1759645145993738800,4.73673876953125,-0.003307718550786376,0.01669664867222309,-0.017376521602272987
1759645146003695400,4.7466953125,-0.0073109823279082775,0.03530815243721008,-0.01745082437992096
1759645146013653500,4.756653564453125,-0.006916522514075041,0.04416288807988167,-0.012998215854167938
1759645146023610600,4.766610595703125,-0.004469343926757574,0.042937032878398895,-0.011194989085197449
1759645146033567700,4.776567626953125,0.0007890223059803247,0.037364911288022995,-0.01255034189671278
1759645146043524600,4.786524658203125,0.006369675509631634,0.029288340359926224,-0.015878494828939438
1759645146053482500,4.796482421875,0.009575285017490387,0.009943722747266293,-0.015022477135062218
1759645146063439600,4.806439697265625,0.010240277275443077,-0.006904233247041702,-0.010574998334050179
1759645146073396700,4.816396728515625,0.008303804323077202,-0.013919783756136894,-0.01092640869319439
1759645146083354400,4.826354248046875,0.004600679036229849,-0.016084667295217514,-0.012299002148211002
1759645146093311500,4.8363115234375,-0.00030093081295490265,-0.005343327764421701,-0.016670135781168938
1759645146103268600,4.8462685546875,-0.0027790023013949394,0.014991505071520805,-0.024283848702907562
1759645146113225500,4.8562255859375,-0.003065706230700016,0.031904734671115875,-0.02946152724325657
1759645146123182800,4.866182861328125,-0.0036524005699902773,0.041593048721551895,-0.032021623104810715
1759645146133139700,4.8761396484375,-0.001418990083038807,0.04016406834125519,-0.025982504710555077
1759645146143096600,4.8860966796875,0.001340310787782073,0.030223283916711807,-0.019701439887285233
1759645146153053700,4.8960537109375,-0.0005651807878166437,0.008721189573407173,-0.010089823976159096
1759645146163011800,4.90601171875,-0.003309420542791486,-0.0018285461701452732,-0.0038113370537757874
1759645146172968700,4.91596875,-0.0038324149791151285,0.006155842915177345,-0.006343833636492491
1759645146182925800,4.92592578125,-0.0060630785301327705,0.019933974370360374,-0.01706492155790329
1759645146192882700,4.935882568359375,-0.0037561985664069653,0.03465741127729416,-0.024636177346110344
1759645146202840800,4.9458408203125,-0.004572457633912563,0.03868784010410309,-0.02792784385383129
1759645146212797700,4.955797607421875,-0.003324179444462061,0.03152632713317871,-0.02342277020215988
1759645146222754800,4.9657548828125,-0.004056548699736595,0.024593321606516838,-0.014828483574092388
1759645146232711700,4.975711669921875,-0.004640433471649885,0.014647719450294971,-0.0037021012976765633
1759645146242669600,4.985669677734375,-0.0037416163831949234,0.005194295663386583,-0.0003345342120155692
1759645146252626700,4.995626708984375,-0.001178042497485876,0.006152537185698748,-0.002848392352461815
1759645146262583800,5.005583740234375,0.0021088311914354563,0.012521754018962383,-0.008569395169615746
1759645146272541000,5.015541015625,0.0029311743564903736,0.01618362031877041,-0.011918941512703896
1759645146282498600,5.02549853515625,0.002363921143114567,0.018987130373716354,-0.009021156467497349
1759645146292455700,5.03545556640625,0.0010946993716061115,0.017415689304471016,-0.006367269437760115
1759645146302412800,5.045412841796875,-0.0012251802254468203,0.017274808138608932,-0.007505238056182861
1759645146312370700,5.05537060546875,-0.0035152325872331858,0.01836526207625866,-0.009452233090996742
1759645146322327600,5.06532763671875,-0.007988810539245605,0.03190956264734268,-0.007131554186344147
1759645146332284700,5.07528466796875,-0.014000295661389828,0.0486568883061409,-0.009679697453975677
1759645146342241800,5.08524169921875,-0.0025942432694137096,0.03878748044371605,-0.008152640424668789
1759645146352199700,5.09519970703125,-0.0035250361543148756,0.020785802975296974,-0.0037761679850518703
1759645146362156500,5.105156494140625,0.0011738452594727278,-0.012589996680617332,0.004145404323935509
1759645146372113700,5.11511376953125,0.009213929064571857,-0.029145270586013794,0.00878303311765194
1759645146382070800,5.12507080078125,0.008736157789826393,-0.028537271544337273,0.012050731107592583
1759645146392029000,5.13502880859375,0.008209419436752796,-0.022073425352573395,0.00908534787595272
1759645146401985500,5.144985595703125,0.009988677687942982,-0.013177935965359211,0.0018516702111810446
1759645146411942700,5.154942626953125,0.0050944858230650425,0.005061137489974499,-0.014164595864713192
1759645146421899800,5.164899658203125,-0.002387399086728692,0.03519400581717491,-0.02507183887064457
1759645146431857700,5.174857666015625,-0.010451900772750378,0.06789570301771164,-0.03302723914384842
1759645146441814800,5.184814697265625,-0.014876209199428558,0.07813475281000137,-0.03771866485476494
1759645146451771600,5.194771728515625,-0.011454608291387558,0.06108151748776436,-0.036671679466962814
1759645146461729800,5.204729736328125,-0.00708915526047349,0.01986057497560978,-0.02593567967414856
1759645146471686700,5.214686767578125,-0.0024803434498608112,-0.009378520771861076,-0.012458841316401958
1759645146481643800,5.224643798828125,0.003573021851480007,-0.02179178223013878,-0.0007071104482747614
1759645146491600600,5.2346005859375,0.0019444935023784637,-0.025635287165641785,-0.0031006592325866222
1759645146501558800,5.244558837890625,0.0015402254648506641,-0.025802267715334892,-0.015024431049823761
1759645146511515600,5.254515625,0.0006542622577399015,-0.019060678780078888,-0.024218060076236725
1759645146521472800,5.26447265625,-0.0009952995460480452,-0.014908811077475548,-0.02154983952641487
1759645146531430000,5.274429931640625,-0.0020647067576646805,-0.00928924698382616,-0.01662321761250496
1759645146541387800,5.2843876953125,-0.0052996487356722355,-0.0026566442102193832,-0.01482851430773735
1759645146551344600,5.2943447265625,-0.005456819664686918,0.00792770367115736,-0.014587710611522198
1759645146561301800,5.3043017578125,-0.0037502660416066647,0.017859961837530136,-0.01684713549911976
1759645146571259600,5.314259765625,-0.0006359207909554243,0.024068443104624748,-0.020562034100294113
1759645146581216800,5.324216796875,0.00020111072808504105,0.023311041295528412,-0.020092785358428955
1759645146591173600,5.334173583984375,0.0009249220602214336,0.024748262017965317,-0.012998702935874462
1759645146601130800,5.344130859375,0.0014524944126605988,0.023043572902679443,-0.003541817655786872
1759645146611088600,5.354088623046875,0.0004410569090396166,0.017229679971933365,-0.0013541505904868245
1759645146621045500,5.36404541015625,-0.0017190329963341355,0.015953227877616882,-0.007183543872088194
1759645146631002600,5.374002685546875,-0.00043659633956849575,0.025220021605491638,-0.01641998067498207
1759645146640959700,5.383959716796875,-0.002682972699403763,0.03751290589570999,-0.021418733522295952
1759645146650918000,5.39391796875,-0.0009593148715794086,0.04292391985654831,-0.017414335161447525
1759645146660874500,5.40387451171875,-0.002227512188255787,0.0399789959192276,-0.010731665417551994
1759645146670831600,5.41383154296875,-0.0015982459299266338,0.03233054280281067,-0.0018076251726597548
1759645146680788700,5.423788818359375,0.00012109102681279182,0.030097750946879387,0.0023636838886886835
1759645146690747000,5.433746826171875,0.00037290342152118683,0.03193479776382446,0.0031326659955084324
1759645146700703700,5.443703857421875,-0.00041086506098508835,0.03686484321951866,0.001337429159320891
1759645146710660600,5.45366064453125,0.0039056451059877872,0.036395590752363205,-0.003329158527776599
1759645146720618800,5.46361865234375,0.0038747526705265045,0.018874922767281532,-0.0040364945307374
1759645146730576000,5.473575927734375,0.003207590663805604,-0.0029047634452581406,-0.00044287083437666297
1759645146740532700,5.48353271484375,0.0014762699138373137,-0.008614846505224705,0.003872781526297331
1759645146750489600,5.493489501953125,-0.00042236014269292355,-0.0023798844777047634,0.0021979506127536297
1759645146760447700,5.50344775390625,-0.009125837124884129,0.009064250625669956,-0.00364529131911695
1759645146770404900,5.51340478515625,-0.014795973896980286,0.016412978991866112,-0.011469125747680664
1759645146780361700,5.52336181640625,-0.0171696487814188,0.0171328317373991,-0.014306724071502686
1759645146790318800,5.53331884765625,-0.017841190099716187,0.011891880072653294,-0.009693680331110954
1759645146800276700,5.54327685546875,-0.014035798609256744,0.012544088065624237,-0.004362299107015133
1759645146810233600,5.553233642578125,-0.0066368468105793,0.020715581253170967,-0.0009259374928660691
1759645146820190700,5.563190673828125,-0.0014703141059726477,0.02614976093173027,-0.00521495845168829
1759645146830148600,5.573148681640625,0.00046293740160763264,0.034368809312582016,-0.011383568868041039
1759645146840105700,5.583105712890625,-0.0015362976118922234,0.03390035778284073,-0.014407321810722351
1759645146850062600,5.5930625,-0.004421588033437729,0.0223857369273901,-0.013484826311469078
1759645146860019700,5.603019775390625,-0.0052849845960736275,0.006282402202486992,-0.008147318847477436
1759645146869977600,5.6129775390625,-0.008670097216963768,-0.005659237038344145,-0.00035508681321516633
1759645146879934700,5.622934814453125,-0.03011014312505722,0.0024671326391398907,0.011551906354725361
1759645146889891600,5.6328916015625,-0.012923073954880238,0.0035798856988549232,0.004563887137919664
1759645146899848700,5.6428486328125,-0.004224124364554882,-0.00220210338011384,-0.006486633326858282
1759645146909806800,5.652806884765625,-0.018015138804912567,0.0019192569889128208,-0.009685804136097431
1759645146919763700,5.662763671875,-0.011628080159425735,0.009797686710953712,-0.008023192174732685
1759645146929720600,5.672720458984375,-0.013254716992378235,0.011636510491371155,-0.005782118998467922
1759645146939678700,5.6826787109375,-0.015382050536572933,0.00007679406553506851,-0.002009751508012414
1759645146949635800,5.6926357421875,-0.015323519706726074,-0.019046062603592873,0.004819157067686319
1759645146959592700,5.7025927734375,-0.01475360244512558,-0.03586898371577263,0.01196361891925335
1759645146969549600,5.712549560546875,-0.014491962268948555,-0.039494290947914124,0.012290061451494694
1759645146979507700,5.7225078125,-0.011736921966075897,-0.0324409082531929,0.011403760872781277
1759645146989464800,5.73246484375,-0.009667789563536644,-0.024235114455223083,0.011161351576447487
1759645146999421700,5.742421630859375,-0.006225920747965574,-0.030454661697149277,0.014021852985024452
1759645147009378600,5.752378662109375,-0.003337862901389599,-0.03939349949359894,0.02359825186431408
1759645147019336700,5.762336669921875,-0.0035091040190309286,-0.046964868903160095,0.029632708057761192
1759645147029293800,5.7722939453125,-0.0038674050010740757,-0.04448295012116432,0.027951540425419807
1759645147039250700,5.782250732421875,-0.008684530854225159,-0.034640174359083176,0.019861124455928802
1759645147049208600,5.79220849609375,-0.010846011340618134,-0.025963330641388893,0.009840643964707851
1759645147059165700,5.802165771484375,-0.01178850419819355,-0.027526339516043663,0.00038162842974998057
1759645147069122800,5.812122802734375,-0.013861325569450855,-0.026410946622490883,-0.004634960554540157
1759645147079079700,5.82207958984375,-0.017661122605204582,-0.01451087836176157,-0.009221989661455154
1759645147089037600,5.83203759765625,-0.0224104393273592,0.010389027185738087,-0.012970137409865856
1759645147098994700,5.84199462890625,-0.023457327857613564,0.028208505362272263,-0.019062651321291924
1759645147108951800,5.851951904296875,-0.016720106825232506,0.0250669214874506,-0.022201931104063988
1759645147118908700,5.86190869140625,-0.00904727354645729,0.004536345135420561,-0.019671928137540817
1759645147128866600,5.871866455078125,-0.0024694763123989105,-0.022545451298356056,-0.010818935930728912
1759645147138823400,5.881823486328125,0.0008453601039946079,-0.03912496194243431,0.0010744748869910836
1759645147148780500,5.891780517578125,0.001916960347443819,-0.04115071892738342,0.011249768547713757
1759645147158738700,5.90173876953125,-0.00029266439378261566,-0.02408757619559765,0.01034003309905529
1759645147168695800,5.91169580078125,-0.001311814645305276,-0.008183089084923267,0.00044829989201389253
1759645147178652400,5.92165234375,-0.0019019711762666702,0.0017622190061956644,-0.01144777424633503
1759645147188609500,5.931609619140625,-0.00403065700083971,0.01064394973218441,-0.01685827411711216
1759645147198567700,5.941567626953125,-0.004832001868635416,0.022607136517763138,-0.0161938164383173
1759645147208524500,5.951524658203125,-0.0032040057703852654,0.025903303176164627,-0.01309939008206129
1759645147218481700,5.961481689453125,-0.00185564742423594,0.02580876089632511,-0.010672450996935368
1759645147228439600,5.971439453125,0.00044746953062713146,0.0296148881316185,-0.010532446205615997
1759645147238396700,5.981396728515625,0.0020501597318798304,0.04333363100886345,-0.009480497799813747
1759645147248353500,5.991353515625,0.003377545392140746,0.0584835559129715,-0.010380576364696026
1759645147258310700,6.001310546875,0.004924841225147247,0.0637531578540802,-0.011649838648736477
1759645147268268500,6.0112685546875,0.005295982584357262,0.056548383086919785,-0.015189461410045624
1759645147278225700,6.0212255859375,0.006419303826987743,0.04703131318092346,-0.01746300235390663
1759645147288182500,6.0311826171875,0.006008541211485863,0.04044732451438904,-0.02032192051410675
1759645147298139600,6.0411396484375,0.0018785109277814627,0.03927740082144737,-0.019310185685753822
1759645147308097500,6.05109765625,-0.0006669142749160528,0.04434590041637421,-0.017609668895602226
1759645147318054700,6.0610546875,-0.007119487039744854,0.05211300775408745,-0.01731805130839348
1759645147328011500,6.071011474609375,-0.002495589666068554,0.0547090582549572,-0.019971754401922226
1759645147337969700,6.0809697265625,-0.0005205895286053419,0.05338573455810547,-0.02155580185353756
1759645147347926500,6.090926513671875,0.0076306904666125774,0.0456758514046669,-0.017778679728507996
1759645147357883400,6.10088330078125,0.009432319551706314,0.036253053694963455,-0.015050004236400127
1759645147367840500,6.110840576171875,0.011140963062644005,0.032251566648483276,-0.00871572270989418
1759645147377798700,6.120798583984375,0.011262137442827225,0.03052743710577488,-0.005234704352915287
1759645147387755500,6.130755615234375,0.009915908798575401,0.03662844002246857,-0.008127596229314804
1759645147397712400,6.14071240234375,0.00907115451991558,0.04603260010480881,-0.013108239509165287
1759645147407669500,6.15066943359375,0.00955896358937025,0.052852775901556015,-0.01639121025800705
1759645147417627600,6.160627685546875,0.011128631420433521,0.05338460952043533,-0.017869798466563225
1759645147427584800,6.170584716796875,0.012104494497179985,0.051019929349422455,-0.016563789919018745
1759645147437541400,6.180541259765625,0.013586543500423431,0.05736730620265007,-0.01247264351695776
1759645147447499500,6.19049951171875,0.016634881496429443,0.080947645008564,-0.0013296187389642
1759645147457456600,6.20045654296875,0.018821068108081818,0.12368472665548325,0.024897458031773567
1759645147467413800,6.210413818359375,0.009433700703084469,0.13581939041614532,0.028910143300890923
1759645147477370600,6.22037060546875,0.010291239246726036,0.14009110629558563,0.032775986939668655
1759645147487328500,6.23032861328125,0.01686348207294941,0.14765888452529907,0.028478626161813736
1759645147497285600,6.24028564453125,0.019902149215340614,0.14781947433948517,0.017507733777165413
1759645147507242800,6.25024267578125,0.021526988595724106,0.15892840921878815,0.012425670400261879
1759645147517199600,6.26019970703125,0.013955886475741863,0.1660502403974533,0.015245424583554268
1759645147527157500,6.270157470703125,0.007308038882911205,0.18868203461170197,0.021303780376911163
1759645147537114600,6.280114501953125,0.00498762633651495,0.22360965609550476,0.018256591632962227
1759645147547071500,6.290071533203125,-0.004666823893785477,0.27622318267822266,0.008009226061403751
1759645147557029400,6.300029296875,-0.011480521410703659,0.3108211159706116,-0.006225103046745062
1759645147566986500,6.309986572265625,-0.007473631761968136,0.3335185945034027,-0.020147858187556267
1759645147576943600,6.319943603515625,0.0003078589215874672,0.34094613790512085,-0.010736512951552868
1759645147586900500,6.329900390625,0.00393807515501976,0.2982596755027771,0.012307089753448963
1759645147596858600,6.339858642578125,-0.025409961119294167,0.22778069972991943,0.040267616510391235
1759645147606815500,6.3498154296875,-0.04147456958889961,0.1896326094865799,0.0865526795387268
1759645147616772600,6.359772705078125,-0.01182639505714178,0.17102377116680145,0.12131571769714355
1759645147626730800,6.369730712890625,-0.01145495567470789,0.12367226183414459,0.12864215672016144
1759645147636687600,6.3796875,-0.026021648198366165,0.07386262714862823,0.14087645709514618
1759645147646644500,6.38964453125,-0.012365938164293766,0.01434595137834549,0.14568090438842773
1759645147656601600,6.3996015625,0.017638564109802246,-0.02837221696972847,0.12991446256637573
1759645147666559500,6.4095595703125,0.016250669956207275,-0.014608467929065228,0.10791394114494324
1759645147676516600,6.4195166015625,0.041696105152368546,0.046152349561452866,0.08311565220355988
1759645147686473700,6.4294736328125,0.029906699433922768,0.11897270381450653,0.07021935284137726
1759645147696430600,6.4394306640625,0.01367819681763649,0.17002657055854797,0.06692688912153244
1759645147706388500,6.449388427734375,-0.013838743790984154,0.21405093371868134,0.07585927844047546
1759645147716345600,6.459345703125,-0.021783217787742615,0.24768319725990295,0.07910647243261337
1759645147726302700,6.469302734375,-0.009769786149263382,0.2389458864927292,0.06830862164497375
1759645147736260600,6.479260498046875,-0.01817632094025612,0.19137677550315857,0.05893243849277496
1759645147746217500,6.489217529296875,-0.008766534738242626,0.16199609637260437,0.05081053823232651
1759645147756174600,6.499174560546875,-0.015569846145808697,0.1706111580133438,0.056569892913103104
1759645147766131700,6.509131591796875,-0.025506138801574707,0.205540269613266,0.061472561210393906
1759645147776089600,6.519089599609375,-0.024921840056777,0.23264698684215546,0.0652792826294899
1759645147786046500,6.52904638671875,-0.019320251420140266,0.22123442590236664,0.07020051777362823
1759645147796003600,6.539003662109375,-0.004243297502398491,0.1885358691215515,0.07820384949445724
1759645147805960700,6.548960693359375,0.010272898711264133,0.17017428576946259,0.08907382190227509
1759645147815918600,6.558918701171875,0.02129385806620121,0.179913729429245,0.09699166566133499
1759645147825875500,6.56887548828125,0.02704569324851036,0.2090255171060562,0.09590592980384827
1759645147835832600,6.57883251953125,0.028078999370336533,0.24321837723255157,0.08418881893157959
1759645147845790700,6.588790771484375,0.03161802887916565,0.26487112045288086,0.07434253394603729
1759645147855747600,6.59874755859375,0.020949140191078186,0.25521981716156006,0.0738610327243805
1759645147865704400,6.608704345703125,0.028796250000596046,0.20290108025074005,0.08771161735057831
1759645147875661600,6.61866162109375,0.0399615503847599,0.14700637757778168,0.11038683354854584
1759645147885619700,6.62861962890625,0.04188176989555359,0.12141203880310059,0.1390247642993927
1759645147895576600,6.63857666015625,0.05011892691254616,0.11940960586071014,0.16026507318019867
1759645147905533400,6.648533447265625,0.03891884163022041,0.10973073542118073,0.16983835399150848
1759645147915491600,6.65849169921875,0.03961552307009697,0.13597165048122406,0.17748668789863586
1759645147925448700,6.66844873046875,0.06160866469144821,0.1544959545135498,0.17681322991847992
1759645147935405600,6.678405517578125,0.05978253483772278,0.1470409780740738,0.1716565489768982
1759645147945362700,6.68836279296875,0.05845476686954498,0.14037741720676422,0.166386678814888
1759645147955320600,6.698320556640625,0.06214350834488869,0.1326902061700821,0.1710948944091797
1759645147965277700,6.708277587890625,0.05642178654670715,0.1223786473274231,0.1837632656097412
1759645147975234600,6.718234619140625,0.0567442961037159,0.12145160138607025,0.1979648321866989
1759645147985191700,6.728191650390625,0.05884856358170509,0.12406937777996063,0.20606288313865662
1759645147995149600,6.738149658203125,0.05120529234409332,0.1507212221622467,0.2167232483625412
1759645148005106700,6.748106689453125,0.04408654198050499,0.1848762333393097,0.22572976350784302
1759645148015063600,6.7580634765625,0.05895949900150299,0.2160104513168335,0.22408419847488403
1759645148025021400,6.768021484375,0.07533451169729233,0.22900141775608063,0.2190546989440918
1759645148034978600,6.777978515625,0.08570832759141922,0.23240946233272552,0.21334221959114075
1759645148044935400,6.787935302734375,0.09181731194257736,0.23871709406375885,0.21224085986614227
1759645148054892500,6.797892578125,0.0934961661696434,0.24418802559375763,0.21241769194602966
1759645148064850700,6.8078505859375,0.09008130431175232,0.24986332654953003,0.214631587266922
1759645148074807600,6.8178076171875,0.08734863251447678,0.2603037357330322,0.21973447501659393
1759645148084764400,6.827764404296875,0.08155283331871033,0.26742058992385864,0.2284688949584961
1759645148094721500,6.837721435546875,0.07608962804079056,0.26223859190940857,0.23899956047534943
1759645148104679700,6.8476796875,0.07743368297815323,0.23709401488304138,0.2556583881378174
1759645148114636500,6.857636474609375,0.08047501742839813,0.2249947339296341,0.2777407765388489
1759645148124594000,6.867593994140625,0.08413441479206085,0.2230329066514969,0.3031213879585266
1759645148134551000,6.877551025390625,0.09303363412618637,0.20328690111637115,0.3286648392677307
1759645148144508000,6.8875078125,0.09394650161266327,0.2057921439409256,0.3656124174594879
1759645148154465000,6.897465087890625,0.09108254313468933,0.23209723830223083,0.38324227929115295
1759645148164423000,6.9074228515625,0.08355513960123062,0.24363397061824799,0.39520442485809326
1759645148174380000,6.917380126953125,0.08245046436786652,0.255531907081604,0.4019797742366791
1759645148184337000,6.9273369140625,0.09710697084665298,0.2634444832801819,0.4172653555870056
1759645148194295000,6.937294921875,0.09017982333898544,0.29659923911094666,0.43363794684410095
1759645148204252000,6.947251953125,0.09525678306818008,0.32486820220947266,0.4438275992870331
1759645148214208800,6.957208740234375,0.09483014047145844,0.3437606692314148,0.45224398374557495
1759645148224166000,6.967165771484375,0.09357848018407822,0.3543509244918823,0.4552508592605591
1759645148234124000,6.9771240234375,0.09725230932235718,0.37058529257774353,0.4503660798072815
1759645148244081000,6.987080810546875,0.07842698693275452,0.36104366183280945,0.4596567451953888
1759645148254037800,6.997037841796875,0.06331434845924377,0.32787689566612244,0.4629531800746918
1759645148263995000,7.006994873046875,0.05198932811617851,0.2899307608604431,0.4702197313308716
1759645148273953000,7.016953125,0.04431995749473572,0.2678094804286957,0.477554053068161
1759645148283910100,7.02691015625,0.03249853476881981,0.2525833547115326,0.48365452885627747
1759645148293866800,7.03686669921875,0.0191345252096653,0.2438361942768097,0.4820486605167389
1759645148303825000,7.046824951171875,0.009855413809418678,0.222089022397995,0.4747351408004761
1759645148313782000,7.056781982421875,0.018022796139121056,0.18330301344394684,0.46930521726608276
1759645148323739100,7.0667392578125,0.030676724389195442,0.10364259779453278,0.4705638587474823
1759645148333696000,7.076696044921875,0.028277480974793434,0.0645575150847435,0.48457688093185425
1759645148343654000,7.08665380859375,0.028280477970838547,0.07766852527856827,0.4872291684150696
1759645148353611000,7.096611083984375,0.039337120950222015,0.11361134797334671,0.4854469895362854
1759645148363567900,7.10656787109375,0.02622195892035961,0.13974566757678986,0.45924103260040283
1759645148373525000,7.11652490234375,0.02692503295838833,0.14662301540374756,0.45267075300216675
1759645148383483000,7.12648291015625,0.033716458827257156,0.19292989373207092,0.45055168867111206
1759645148393440000,7.13643994140625,0.05457247048616409,0.23692132532596588,0.45711183547973633
1759645148403396900,7.14639697265625,0.06306755542755127,0.2504507601261139,0.45367497205734253
1759645148413354800,7.156354736328125,0.07611837238073349,0.2283470779657364,0.45620179176330566
1759645148423312000,7.166311767578125,0.0818699300289154,0.215807244181633,0.4622134864330292
1759645148433269000,7.17626904296875,0.08219536393880844,0.1858655959367752,0.47726914286613464
1759645148443225900,7.186225830078125,0.09418578445911407,0.15165652334690094,0.49826759099960327
1759645148453184000,7.19618408203125,0.09970945119857788,0.13289880752563477,0.5116425156593323
1759645148463140900,7.206140869140625,0.07416205108165741,0.08601304143667221,0.5071138739585876
1759645148473098000,7.216097900390625,0.08210466802120209,0.09446938335895538,0.5166759490966797
1759645148483054800,7.226054931640625,0.08940533548593521,0.13936559855937958,0.5174539685249329
1759645148493013000,7.236012939453125,0.08701195567846298,0.16675540804862976,0.5154308080673218
1759645148502969900,7.245969970703125,0.07978712022304535,0.16559426486492157,0.5067263245582581
1759645148512927000,7.255927001953125,0.0997038409113884,0.17068995535373688,0.4914450943470001
1759645148522884900,7.265884765625,0.10851528495550156,0.14669902622699738,0.47466468811035156
1759645148532842000,7.275842041015625,0.12448573112487793,0.0906277671456337,0.47632357478141785
1759645148542799000,7.285799072265625,0.1463671177625656,0.06536528468132019,0.4887523353099823
1759645148552755700,7.295755615234375,0.1512068808078766,0.028702877461910248,0.4940330982208252
1759645148562713900,7.3057138671875,0.1533985584974289,-0.06355256587266922,0.4973995089530945
1759645148572671000,7.3156708984375,0.17041537165641785,-0.11786960065364838,0.5135912895202637
1759645148582628000,7.325628173828125,0.18782885372638702,-0.1250009387731552,0.5382949709892273
1759645148592585000,7.3355849609375,0.1910954862833023,-0.11688896268606186,0.5483303070068359
1759645148602542800,7.34554296875,0.1830509454011917,-0.12850376963615417,0.5374336242675781
1759645148612500000,7.3555,0.18524032831192017,-0.12537536025047302,0.5097556710243225
1759645148622457000,7.36545703125,0.17698796093463898,-0.12162850052118301,0.4645789563655853
1759645148632414000,7.3754140625,0.14588968455791473,-0.09431485831737518,0.43032538890838623
1759645148642371800,7.385371826171875,0.13985171914100647,0.016276245936751366,0.43207621574401855
1759645148652329000,7.395328857421875,0.13683836162090302,0.1365177035331726,0.458611398935318
1759645148662286000,7.4052861328125,0.1310080885887146,0.16568057239055634,0.5076272487640381
1759645148672243700,7.41524365234375,0.15918245911598206,0.09031631052494049,0.5591740608215332
1759645148682200800,7.425200927734375,0.17824305593967438,-0.10432779788970947,0.5800948143005371
1759645148692158000,7.435157958984375,0.19051623344421387,-0.28746992349624634,0.5916787981987
1759645148702115000,7.445114990234375,0.17476287484169006,-0.35937201976776123,0.5987696647644043
1759645148712073000,7.455072998046875,0.1510878950357437,-0.2984631359577179,0.5979483127593994
1759645148722029800,7.46502978515625,0.12856315076351166,-0.1995047777891159,0.582004964351654
1759645148731987000,7.474987060546875,0.09553461521863937,-0.09524761885404587,0.5606176853179932
1759645148741943800,7.48494384765625,0.050149038434028625,0.0029294565320014954,0.5205251574516296
1759645148751902000,7.49490185546875,-0.0023796837776899338,0.04611847177147865,0.46648693084716797
1759645148761858800,7.50485888671875,-0.06511712074279785,0.07455343753099442,0.4284416735172272
1759645148771816000,7.51481591796875,-0.1186988577246666,0.11319670081138611,0.42816150188446045
1759645148781772800,7.524772705078125,-0.16506971418857574,0.14548441767692566,0.47342342138290405
1759645148791731000,7.53473095703125,-0.18656781315803528,0.15527179837226868,0.5344175100326538
1759645148801688000,7.54468798828125,-0.19138221442699432,0.1310877650976181,0.5819277763366699
1759645148811645000,7.55464501953125,-0.14304077625274658,0.09495452046394348,0.627060055732727
1759645148821601800,7.564601806640625,-0.07508920133113861,0.03742220997810364,0.6581479907035828
1759645148831560000,7.574559814453125,-0.005655796267092228,0.005941514857113361,0.6874667406082153
1759645148841517000,7.58451708984375,0.030448995530605316,-0.03110523149371147,0.6992959380149841
1759645148851474000,7.594473876953125,0.03336755186319351,-0.06904808431863785,0.7011278867721558
1759645148861430800,7.6044306640625,0.0188433974981308,-0.11062832176685333,0.7049474120140076
1759645148871389000,7.614388916015625,-0.0126735158264637,-0.16404946148395538,0.7032837271690369
1759645148881346000,7.624345947265625,-0.045065660029649734,-0.1983860582113266,0.6943546533584595
1759645148891303200,7.63430322265625,-0.07277798652648926,-0.19735781848430634,0.6806502938270569
1759645148901259800,7.644259765625,-0.09227173030376434,-0.19073405861854553,0.6687405705451965
1759645148911218000,7.654218017578125,-0.100479856133461,-0.19428670406341553,0.6554628610610962
1759645148921175000,7.664175048828125,-0.09088090062141418,-0.23992785811424255,0.6451749205589294
1759645148931132000,7.6741318359375,-0.0821119099855423,-0.3403383493423462,0.6351925730705261
1759645148941089000,7.684089111328125,-0.07221369445323944,-0.4930668771266937,0.621853232383728
1759645148951047000,7.694046875,-0.03963204473257065,-0.5992209911346436,0.6373573541641235
1759645148961004000,7.704004150390625,-0.008084231987595558,-0.6329910159111023,0.6713398098945618
1759645148970961000,7.7139609375,-0.007593677379190922,-0.6201639175415039,0.708905816078186
1759645148980918000,7.72391796875,-0.013503693044185638,-0.5979429483413696,0.7120751738548279
1759645148990876000,7.7338759765625,0.0013972260057926178,-0.5509586334228516,0.6693439483642578
1759645149000833000,7.7438330078125,0.025219276547431946,-0.5832122564315796,0.5766105055809021
1759645149010790000,7.753789794921875,0.032615143805742264,-0.710127055644989,0.4621420204639435
1759645149020747000,7.7637470703125,0.031118178740143776,-0.8380352258682251,0.38078564405441284
1759645149030705000,7.773704833984375,0.026974299922585487,-0.8968913555145264,0.35760149359703064
1759645149040662000,7.783662109375,0.018188362941145897,-0.9080846309661865,0.3626974821090698
1759645149050619000,7.793618896484375,0.00464192871004343,-0.8663089871406555,0.3422987461090088
1759645149060576000,7.803575927734375,-0.021555401384830475,-0.769571840763092,0.2820870876312256
1759645149070534000,7.813533935546875,-0.04221407324075699,-0.5872227549552917,0.1884269267320633
1759645149080490800,7.82349072265625,-0.06999065726995468,-0.38123902678489685,0.06344080716371536
1759645149090448000,7.83344775390625,-0.12127754837274551,-0.20773035287857056,-0.06466842442750931
1759645149100405000,7.843405029296875,-0.1729424148797989,-0.05871044099330902,-0.18314260244369507
1759645149110363000,7.85336279296875,-0.20981788635253906,0.01175706461071968,-0.30500003695487976
1759645149120319700,7.86331982421875,-0.20532894134521484,-0.04647785797715187,-0.42711082100868225
1759645149130276600,7.873276611328125,-0.1423068344593048,-0.20088927447795868,-0.5211672782897949
1759645149140233700,7.883233642578125,-0.018525365740060806,-0.3604877293109894,-0.575447142124176
1759645149150191900,7.89319189453125,0.09702493250370026,-0.48497480154037476,-0.586665689945221
1759645149160148700,7.903148681640625,0.19343003630638123,-0.5199906229972839,-0.58376544713974
1759645149170105600,7.913105712890625,0.25855761766433716,-0.4478070139884949,-0.5583365559577942
1759645149180062700,7.923062744140625,0.29788506031036377,-0.3306765854358673,-0.5076297521591187
1759645149190019600,7.93301953125,0.3200947642326355,-0.23562514781951904,-0.459642231464386
1759645149199977700,7.942977783203125,0.3326481878757477,-0.21458260715007782,-0.43173015117645264
1759645149209934600,7.9529345703125,0.33937907218933105,-0.2359808385372162,-0.42921799421310425
1759645149219891700,7.9628916015625,0.3352731764316559,-0.25128602981567383,-0.45891839265823364
1759645149229848600,7.9728486328125,0.31935039162635803,-0.2633517384529114,-0.5207159519195557
1759645149239806700,7.982806640625,0.3003864288330078,-0.2288147360086441,-0.5929203033447266
1759645149249764600,7.9927646484375,0.27889952063560486,-0.14231793582439423,-0.6546382308006287
1759645149259721700,8.0027216796875,0.24765326082706451,-0.02207847498357296,-0.7420269250869751
1759645149269678600,8.0126787109375,0.21469876170158386,0.059731170535087585,-0.8316540122032166
1759645149279635700,8.0226357421875,0.16104422509670258,0.1650954782962799,-0.9260634779930115
1759645149289593600,8.032593505859374,0.09223239868879318,0.2944529354572296,-1.0070946216583252
1759645149299550700,8.04255078125,0.017355920746922493,0.42264875769615173,-1.0368069410324097
1759645149309507600,8.052507568359376,-0.06684284657239914,0.5476921200752258,-1.012952208518982
1759645149319464700,8.062464599609376,-0.1447189897298813,0.6160711050033569,-0.9394693374633789
1759645149329421800,8.072421875,-0.21305197477340698,0.6569806933403015,-0.8404144048690796
1759645149339379700,8.082379638671876,-0.25262966752052307,0.686549961566925,-0.7253626585006714
1759645149349336600,8.092336669921876,-0.2613523304462433,0.7130936980247498,-0.6081779599189758
1759645149359293700,8.102293701171876,-0.23986540734767914,0.73043292760849,-0.49247220158576965
1759645149369250800,8.112250732421876,-0.18339946866035461,0.7189954519271851,-0.39952734112739563
1759645149379208700,8.122208740234376,-0.10210344940423965,0.6825559735298157,-0.3371824324131012
1759645149389165600,8.13216552734375,-0.0046115173026919365,0.617374837398529,-0.3022143244743347
1759645149399122700,8.142122802734375,0.080024354159832,0.551352322101593,-0.2977522611618042
1759645149409079800,8.152079833984375,0.13155332207679749,0.48019424080848694,-0.30351346731185913
1759645149419037700,8.16203759765625,0.15298159420490265,0.42134734988212585,-0.31497982144355774
1759645149428994600,8.17199462890625,0.17356356978416443,0.37349435687065125,-0.35316795110702515
1759645149438951700,8.18195166015625,0.17508740723133087,0.3186486065387726,-0.418866366147995
1759645149448908800,8.19190869140625,0.17072834074497223,0.24941442906856537,-0.4989691972732544
1759645149458865700,8.20186572265625,0.156205952167511,0.19120128452777863,-0.5903358459472656
1759645149468823600,8.211823486328125,0.15796683728694916,0.14140790700912476,-0.6855513453483582
1759645149478780700,8.22178076171875,0.14906594157218933,0.07385438680648804,-0.7718736529350281
1759645149488737500,8.231737548828125,0.12534382939338684,0.0017056285869330168,-0.8448551893234253
1759645149498694700,8.241694580078125,0.112727090716362,-0.055460069328546524,-0.9090657234191895
1759645149508652800,8.25165283203125,0.08764703571796417,-0.08096516132354736,-0.9711945652961731
1759645149518609700,8.261609619140625,0.06620538979768753,-0.07808183133602142,-1.030440092086792
1759645149528566500,8.27156640625,0.05880260095000267,-0.06357372552156448,-1.0845264196395874
1759645149538523600,8.281523681640625,0.051333509385585785,-0.05579821765422821,-1.1313121318817139
1759645149548481800,8.291481689453125,0.04668549448251724,-0.052699632942676544,-1.1644258499145508
1759645149558438700,8.301438720703125,0.02371777594089508,-0.053690727800130844,-1.177375316619873
1759645149568395500,8.3113955078125,-0.0009686604607850313,-0.047368649393320084,-1.1668717861175537
1759645149578352600,8.3213525390625,-0.02881847321987152,-0.017859455198049545,-1.131655216217041
1759645149588309800,8.331309814453125,-0.05725517496466637,0.021138809621334076,-1.0769217014312744
1759645149598268000,8.341267822265625,-0.079948790371418,0.050484221428632736,-1.0023099184036255
1759645149608224500,8.351224609375,-0.10345625132322311,0.08333298563957214,-0.9190011024475098
1759645149618181600,8.361181640625,-0.11488591134548187,0.12644211947917938,-0.8344646692276001
1759645149628138800,8.371138671875,-0.11641616374254227,0.16038277745246887,-0.7473318576812744
1759645149638097000,8.381096923828125,-0.1172320768237114,0.18783873319625854,-0.6486177444458008
1759645149648053800,8.3910537109375,-0.1095600426197052,0.19440582394599915,-0.5377705693244934
1759645149658010600,8.4010107421875,-0.0890178307890892,0.21356301009655,-0.4263607859611511
1759645149667967700,8.4109677734375,-0.07210968434810638,0.2180062234401703,-0.32899773120880127
1759645149677924600,8.420924560546876,-0.050709862262010574,0.20576322078704834,-0.24431821703910828
1759645149687882800,8.4308828125,-0.039631109684705734,0.1958932727575302,-0.17551517486572266
1759645149697839600,8.440839599609374,-0.02682644873857498,0.18602241575717926,-0.1103505939245224
1759645149707796700,8.450796630859376,-0.009528683498501778,0.1621146947145462,-0.05899738520383835
1759645149717753600,8.460753662109376,0.004744431469589472,0.13568368554115295,-0.02131105586886406
1759645149727711700,8.470711669921876,0.016725193709135056,0.12270424515008926,-0.00441942410543561
1759645149737668900,8.4806689453125,0.02304071933031082,0.11562822014093399,-0.0018778603989630938
1759645149747625500,8.49062548828125,0.027877816930413246,0.10108496248722076,0.003125420305877924
1759645149757582600,8.50058251953125,0.04112320765852928,0.07289373874664307,0.007433461025357246
1759645149767539700,8.510539794921876,0.05755943804979324,0.03019101545214653,0.013038615696132183
1759645149777497900,8.520497802734376,0.07140281796455383,-0.009937155991792679,0.02200525812804699
1759645149787454700,8.530454833984376,0.07308567315340042,-0.0433875247836113,0.020120272412896156
1759645149797411600,8.54041162109375,0.0747947245836258,-0.06684987992048264,0.01964312046766281
1759645149807368700,8.55036865234375,0.07440723478794098,-0.08458147197961807,0.013175900094211102
1759645149817326800,8.560326904296875,0.06850649416446686,-0.09026797115802765,0.0028405319899320602
1759645149827283700,8.57028369140625,0.07261334359645844,-0.0649343878030777,-0.0026040347293019295
1759645149837240600,8.580240478515625,0.05571326985955238,-0.10285739600658417,-0.006343167275190353
1759645149847197700,8.59019775390625,0.04734109342098236,-0.14891092479228973,0.007063451688736677
1759645149857155800,8.60015576171875,0.05373740196228027,-0.16818203032016754,0.01571720466017723
1759645149867112700,8.61011279296875,0.04674207791686058,-0.1631111055612564,0.015022652223706245
1759645149877069800,8.62006982421875,0.03542895242571831,-0.14382901787757874,0.008386251516640186
1759645149887026700,8.630026611328125,0.02076372131705284,-0.12339217960834503,0.00542827881872654
1759645149896983600,8.639983642578125,0.013285217806696892,-0.12762664258480072,0.012325098738074303
1759645149906941700,8.649941650390625,0.0019827622454613447,-0.15240921080112457,0.027280611917376518
1759645149916898800,8.65989892578125,-0.0005073584616184235,-0.17022067308425903,0.04342503845691681
1759645149926855700,8.669855712890625,-0.0016794155817478895,-0.17069870233535767,0.048285841941833496
1759645149936812500,8.6798125,-0.000032531796023249626,-0.16377323865890503,0.037507981061935425
1759645149946770700,8.689770751953125,-0.004109032452106476,-0.1524052619934082,0.023922663182020187
1759645149956727800,8.699727783203125,-0.00807237159460783,-0.13235953450202942,0.007439467124640942
1759645149966684700,8.7096845703125,-0.008683833293616772,-0.12320678681135178,-0.004144484642893076
1759645149976641500,8.7196416015625,-0.007532978430390358,-0.14483119547367096,-0.0025851416867226362
1759645149986599700,8.729599609375,-0.0016644366551190615,-0.16845981776714325,0.003252507420256734
1759645149996556800,8.739556884765625,-0.009699998423457146,-0.21902303397655487,0.005836282856762409
1759645150006513700,8.749513671875,0.015433317050337791,-0.23170581459999084,0.00719369575381279
1759645150016470800,8.759470703125,0.019990459084510803,-0.22265511751174927,-0.00042603962356224656
1759645150026427600,8.769427734375,0.022360140457749367,-0.2253907173871994,-0.00027636997401714325
1759645150036385800,8.7793857421875,0.028415603563189507,-0.2152705043554306,-0.002074918942525983
1759645150046342700,8.7893427734375,0.03030724637210369,-0.21046589314937592,0.003380832727998495
1759645150056299800,8.7992998046875,0.03085562400519848,-0.23549288511276245,0.022204436361789703
1759645150066256600,8.809256591796874,0.026243561878800392,-0.25036105513572693,0.04092353209853172
1759645150076214800,8.81921484375,0.039083804935216904,-0.24645361304283142,0.050782255828380585
1759645150086171600,8.829171630859374,0.05710328370332718,-0.2152261883020401,0.05113166198134422
1759645150096128800,8.839128662109376,0.051626864820718765,-0.1802559345960617,0.04723203554749489
1759645150106086000,8.8490859375,0.053002387285232544,-0.15308928489685059,0.046246398240327835
1759645150116043800,8.859043701171874,0.05461747199296951,-0.13133420050144196,0.048513706773519516
1759645150126000600,8.869000732421876,0.05612535402178764,-0.12935307621955872,0.056581754237413406
1759645150135958000,8.8789580078125,0.05030306056141853,-0.12296373397111893,0.060451045632362366
1759645150145915100,8.8889150390625,0.04606756940484047,-0.10086322575807571,0.059477925300598145
1759645150155873000,8.898873046875,0.040215734392404556,-0.06904640793800354,0.04952044039964676
1759645150165830000,8.908829833984376,0.030239533632993698,-0.0393122062087059,0.03550715371966362
1759645150175787000,8.918787109375,0.02547641657292843,0.0034530472476035357,0.019373293966054916
1759645150185744100,8.928744140625,0.010081748478114605,0.034672752022743225,-0.007278557401150465
1759645150195701000,8.938700927734375,0.0017458479851484299,0.03019779920578003,-0.022156650200486183
1759645150205659000,8.948658935546876,0.003525105770677328,0.00989092979580164,-0.018392272293567657
1759645150215616000,8.958615966796875,0.01204907801002264,-0.012156220152974129,0.002367311390116811
1759645150225573000,8.968572998046875,0.015281888656318188,-0.05186368525028229,0.009015093557536602
1759645150235530000,8.978530029296875,0.02461487427353859,-0.0939844623208046,0.018293891102075577
1759645150245487900,8.98848779296875,0.03352874517440796,-0.11932523548603058,0.029186751693487167
1759645150255445000,8.998445068359375,0.036932967603206635,-0.13818904757499695,0.0382998064160347
1759645150265401900,9.00840185546875,0.040724508464336395,-0.1259523630142212,0.041763514280319214
1759645150275359000,9.01835888671875,0.03462371975183487,-0.10239225625991821,0.039176471531391144
1759645150285316900,9.02831689453125,0.025505593046545982,-0.0826108306646347,0.031428806483745575
1759645150295274000,9.03827392578125,0.01960270293056965,-0.08686745166778564,0.032332707196474075
1759645150305230800,9.04823095703125,0.01691424287855625,-0.08346100896596909,0.0339825339615345
1759645150315188000,9.05818798828125,0.009007059037685394,-0.06599050015211105,0.03800472989678383
1759645150325145900,9.068145751953125,0.0029334540013223886,-0.049617648124694824,0.045573700219392776
1759645150335103000,9.07810302734375,0.001068004174157977,-0.03780508413910866,0.05136502534151077
1759645150345059800,9.088059814453125,0.0033950742799788713,-0.046155426651239395,0.0618315152823925
1759645150355017000,9.098016845703125,0.010072941891849041,-0.0765601098537445,0.07460400462150574
1759645150364974000,9.10797412109375,0.020156200975179672,-0.1066221371293068,0.08838000893592834
1759645150374932000,9.117931884765625,0.025716233998537064,-0.12643961608409882,0.09906958788633347
1759645150384888800,9.127888916015625,0.025446724146604538,-0.12896908819675446,0.10323477536439896
1759645150394846000,9.137845947265625,0.026020009070634842,-0.11894932389259338,0.0981965884566307
1759645150404803000,9.147802978515625,0.021179713308811188,-0.11059312522411346,0.08709467202425003
1759645150414760700,9.1577607421875,0.010267870500683784,-0.11804318428039551,0.08016171306371689
1759645150424717800,9.1677177734375,0.00921938382089138,-0.10865580290555954,0.07426281273365021
1759645150434675000,9.177675048828124,0.0005518833640962839,-0.10175956040620804,0.07769010961055756
1759645150444632000,9.187632080078124,-0.0058210608549416065,-0.09238709509372711,0.07924113422632217
1759645150454590000,9.19758984375,-0.005176600068807602,-0.08163457363843918,0.07482660561800003
1759645150464546800,9.207546875,-0.008452821522951126,-0.08457337319850922,0.0698946937918663
1759645150474504000,9.21750390625,-0.011705040000379086,-0.07394826412200928,0.05912176892161369
1759645150484460800,9.227460693359374,-0.01100862305611372,-0.06138880178332329,0.05049872025847435
1759645150494419000,9.2374189453125,-0.01729723997414112,-0.04974770545959473,0.04461817815899849
1759645150504375800,9.247375732421874,-0.02444596402347088,-0.03992383927106857,0.04052862897515297
1759645150514333000,9.2573330078125,-0.04238305613398552,-0.04628415033221245,0.032669391483068466
1759645150524289800,9.267289794921876,-0.05442320927977562,-0.07258765399456024,0.038142453879117966
1759645150534248000,9.277248046875,-0.05366256460547447,-0.054980553686618805,0.04708309471607208
1759645150544205000,9.287205078125,-0.062165770679712296,-0.039574168622493744,0.04337277635931969
1759645150554162000,9.297161865234376,-0.06378593295812607,-0.0418965183198452,0.03622252121567726
1759645150564118800,9.307118896484376,-0.07366731762886047,-0.05965660512447357,0.025152290239930153
1759645150574076000,9.317075927734376,-0.06462740898132324,-0.04468827322125435,0.02385956235229969
1759645150584034000,9.327033935546876,-0.07206428796052933,-0.04254549369215965,0.025075560435652733
1759645150593991200,9.3369912109375,-0.06475521624088287,-0.04239530861377716,0.037531234323978424
1759645150603947800,9.34694775390625,-0.07109194248914719,-0.06835766136646271,0.048183079808950424
1759645150613905000,9.35690478515625,-0.06501860916614532,-0.08170080929994583,0.05633259564638138
1759645150623863000,9.366863037109376,-0.06108059734106064,-0.0900290459394455,0.05243399366736412
1759645150633820200,9.376820068359375,-0.048761721700429916,-0.09915614128112793,0.044593002647161484
1759645150643776800,9.38677685546875,-0.0565517321228981,-0.09560907632112503,0.04331148788332939
1759645150653734000,9.39673388671875,-0.07756882160902023,-0.06923601776361465,0.03705881908535957
1759645150663692000,9.406692138671875,-0.08828990906476974,-0.05053023621439934,0.03512855991721153
1759645150673649000,9.41664892578125,-0.10176456719636917,-0.031925760209560394,0.04296456277370453
1759645150683606000,9.42660595703125,-0.09477456659078598,-0.015040785074234009,0.03984466940164566
1759645150693563000,9.43656298828125,-0.10025156289339066,-0.008048683404922485,0.015673425048589706
1759645150703521000,9.44652099609375,-0.08186643570661545,-0.0032547274604439735,-0.008856152184307575
1759645150713478000,9.456477783203125,-0.06707363575696945,0.011895996518433094,-0.030143864452838898
1759645150723435000,9.46643505859375,-0.044825803488492966,0.045392125844955444,-0.03159216791391373
1759645150733392100,9.47639208984375,-0.04540812969207764,0.07407625764608383,-0.024678830057382584
1759645150743350000,9.48635009765625,-0.06192691996693611,0.08938170969486237,-0.01881774514913559
1759645150753307000,9.496306884765625,-0.07796752452850342,0.1172027587890625,-0.012255511246621609
1759645150763264000,9.506263916015625,-0.08772853761911392,0.15599490702152252,-0.015988197177648544
1759645150773221000,9.51622119140625,-0.10101798176765442,0.19161255657672882,-0.025446148589253426
1759645150783179000,9.526178955078125,-0.116431824862957,0.21927639842033386,-0.039944130927324295
1759645150793135900,9.536135986328125,-0.10842092335224152,0.21533121168613434,-0.049425747245550156
1759645150803093000,9.546093017578125,-0.08855988085269928,0.1845780909061432,-0.0432051345705986
1759645150813050000,9.556050048828125,-0.07494033128023148,0.12950845062732697,-0.01903444156050682
1759645150823008000,9.566008056640625,-0.05577994883060455,0.05934162437915802,0.010111460462212563
1759645150832964900,9.57596484375,-0.04869180917739868,0.01045973040163517,0.03605589270591736
1759645150842922000,9.585921875,-0.045228101313114166,-0.0052302828989923,0.05412144586443901
1759645150852879000,9.595879150390624,-0.039487872272729874,-0.0015116599388420582,0.05701407045125961
1759645150862836700,9.605836669921874,-0.03533387556672096,0.012387643568217754,0.04856465756893158
1759645150872793900,9.6157939453125,-0.023551931604743004,0.03027273528277874,0.04011533036828041
1759645150882751000,9.6257509765625,-0.029153091832995415,0.033782247453927994,0.039293210953474045
1759645150892708000,9.6357080078125,-0.026259014382958412,0.04322803020477295,0.044291481375694275
1759645150902665000,9.6456650390625,-0.025200141593813896,0.044750556349754333,0.05016588047146797
1759645150912622800,9.655622802734374,-0.01802743785083294,0.03957141190767288,0.0539902038872242
1759645150922580000,9.665580078125,-0.007600097451359034,0.03485389053821564,0.049574680626392365
1759645150932536800,9.675536865234376,-0.007901985198259354,0.03617286682128906,0.040291815996170044
1759645150942494000,9.685493896484376,-0.007867896929383278,0.04378311708569527,0.027346985414624214
1759645150952451800,9.695451904296876,-0.019800346344709396,0.03864101320505142,0.02368946187198162
1759645150962409000,9.705408935546876,-0.03125300258398056,0.026568371802568436,0.026080181822180748
1759645150972365800,9.71536572265625,-0.01772516965866089,-0.025735685601830482,0.0260323379188776
1759645150982323000,9.725322998046876,-0.008572950027883053,-0.07189039885997772,0.0359313078224659
1759645150992281000,9.735281005859376,-0.00014664465561509132,-0.10186734050512314,0.04647870361804962
1759645151002238000,9.745238037109376,-0.0011589122004806995,-0.08617706596851349,0.0577971413731575
1759645151012194800,9.75519482421875,-0.004285233095288277,-0.045619674026966095,0.057713691145181656
1759645151022152000,9.76515185546875,-0.016256941482424736,0.016433043405413628,0.05479246750473976
1759645151032110000,9.775110107421876,-0.028324486687779427,0.07393777370452881,0.050585031509399414
1759645151042067000,9.78506689453125,-0.029505599290132523,0.10468370467424393,0.042645085602998734
1759645151052023800,9.79502392578125,-0.017908552661538124,0.09501951932907104,0.03886295482516289
1759645151061981000,9.80498095703125,-0.015494130551815033,0.07093175500631332,0.044268373399972916
1759645151071939000,9.81493896484375,-0.01747485250234604,0.06618377566337585,0.049939755350351334
1759645151081896000,9.82489599609375,-0.02590722218155861,0.08445651829242706,0.04486323893070221
1759645151091852800,9.834852783203125,-0.02682311087846756,0.09323271363973618,0.03867025300860405
1759645151101810000,9.844809814453125,-0.04842081293463707,0.11060850322246552,0.04234008863568306
1759645151111768000,9.85476806640625,-0.05311919003725052,0.12470259517431259,0.037263479083776474
1759645151121725000,9.864724853515625,-0.05378152057528496,0.12556491792201996,0.03655720874667168
1759645151131681800,9.874681884765625,-0.06651753932237625,0.14738990366458893,0.049193374812603
1759645151141638400,9.884638427734375,-0.07156688719987869,0.18558496236801147,0.06383755803108215
1759645151151596500,9.894596435546875,-0.08039674162864685,0.2336461991071701,0.06885245442390442
1759645151161553700,9.9045537109375,-0.09198042750358582,0.25103503465652466,0.05145854875445366
1759645151171510500,9.914510498046875,-0.091389499604702,0.23301638662815094,0.03159609064459801
1759645151181467600,9.924467529296875,-0.07958796620368958,0.19834843277931213,0.025134729221463203
1759645151191425500,9.934425537109375,-0.0632854700088501,0.17321957647800446,0.028107184916734695
1759645151201382700,9.944382568359375,-0.05492980778217316,0.1666833907365799,0.04352422431111336
1759645151211339500,9.954339599609375,-0.050251539796590805,0.15571993589401245,0.06346514075994492
1759645151221296600,9.964296630859375,-0.04787999391555786,0.14171916246414185,0.07470714300870895
1759645151231254500,9.974254638671875,-0.05363832041621208,0.13645508885383606,0.07940084487199783
1759645151241211600,9.984211669921875,-0.06158918887376785,0.1371762752532959,0.079894058406353
1759645151251168500,9.99416845703125,-0.06724094599485397,0.14353138208389282,0.07143665850162506
1759645151261125600,10.004125732421874,-0.0604531392455101,0.15158233046531677,0.05548122897744179
1759645151271082800,10.014082763671874,-0.05024972930550575,0.15093399584293365,0.041802529245615005
1759645151281040600,10.02404052734375,-0.04581529647111893,0.13848532736301422,0.0423724427819252
1759645151290997500,10.03399755859375,-0.03901746869087219,0.10909246653318405,0.05095086619257927
1759645151300954600,10.04395458984375,-0.034392356872558594,0.0846872553229332,0.06460488587617874
1759645151310911700,10.053911865234374,-0.014395716600120068,0.08604278415441513,0.07182532548904419
1759645151320869600,10.06386962890625,-0.02479722537100315,0.0900828018784523,0.07103756070137024
1759645151330826500,10.073826416015624,-0.025711067020893097,0.10185884684324265,0.06839750707149506
1759645151340783600,10.08378369140625,-0.035214558243751526,0.12857674062252045,0.06029590591788292
1759645151350740700,10.09374072265625,-0.04348641261458397,0.16484282910823822,0.05172428488731384
1759645151360698400,10.103698486328126,-0.04888836666941643,0.18792285025119781,0.04104474186897278
1759645151370655500,10.113655517578126,-0.048104092478752136,0.1849936693906784,0.0321616530418396
1759645151380612600,10.123612548828126,-0.044180188328027725,0.16360582411289215,0.028764255344867706
1759645151390569700,10.13356982421875,-0.04085792973637581,0.1620878428220749,0.03527694568037987
1759645151400527400,10.14352734375,-0.03618035465478897,0.14028507471084595,0.04177452623844147
1759645151410484500,10.153484375,-0.027130180969834328,0.11829661577939987,0.04205324500799179
1759645151420441600,10.163441650390626,-0.022959936410188675,0.11603958904743195,0.03651094064116478
1759645151430398500,10.1733984375,-0.01940484717488289,0.10004106909036636,0.026954544708132744
1759645151440356600,10.183356689453126,-0.018908966332674026,0.09103665500879288,0.019451353698968887
1759645151450313500,10.1933134765625,-0.016806796193122864,0.08451670408248901,0.014564878307282925
1759645151460270600,10.2032705078125,-0.020412717014551163,0.07764201611280441,0.010244964621961117
1759645151470227500,10.2132275390625,-0.02861246094107628,0.06982644647359848,0.009973431006073952
1759645151480185600,10.223185546875,-0.037852298468351364,0.05609278380870819,0.013342862948775291
1759645151490142500,10.233142578125,-0.03748998045921326,0.04104256629943848,0.015165614895522594
1759645151500099600,10.243099609375,-0.03785376250743866,0.029950501397252083,0.017540356144309044
1759645151510056400,10.253056396484375,-0.0379614382982254,0.03852236270904541,0.016422174870967865
1759645151520014600,10.2630146484375,-0.03783706948161125,0.05366004258394241,0.011876425705850124
1759645151529971700,10.2729716796875,-0.03589000552892685,0.06629300117492676,0.00771930068731308
1759645151539928600,10.282928466796875,-0.03475656360387802,0.06617715209722519,0.006011681631207466
1759645151549885400,10.292885498046875,-0.030594754964113235,0.0613490454852581,0.005978650413453579
1759645151559843600,10.302843505859375,-0.026440490037202835,0.057024870067834854,0.010543308220803738
1759645151569800700,10.31280078125,-0.02499156817793846,0.051378682255744934,0.016645371913909912
1759645151579757600,10.322757568359375,-0.02275078371167183,0.05516250059008598,0.024059345945715904
1759645151589714400,10.33271435546875,-0.019355785101652145,0.05426075682044029,0.024958694353699684
1759645151599672600,10.342672607421875,-0.015747204422950745,0.04190315678715706,0.023593824356794357
1759645151609629700,10.352629638671875,-0.013125509954988956,0.028372734785079956,0.01566103659570217
1759645151619586600,10.362586669921875,-0.015258967876434326,0.018458852544426918,0.00993523932993412
1759645151629543400,10.37254345703125,-0.01885894313454628,0.013016891665756702,0.005219838581979275
1759645151639501600,10.38250146484375,-0.021949807181954384,0.00984852947294712,0.005248068366199732
1759645151649458700,10.392458740234375,-0.026757916435599327,0.01211601123213768,0.005932262167334557
1759645151659415600,10.40241552734375,-0.0244247205555439,0.02125890925526619,0.004077370278537273
1759645151669372700,10.41237255859375,-0.02021510899066925,0.017291322350502014,-0.00016985891852527857
1759645151679330600,10.42233056640625,-0.017244089394807816,0.009609966538846493,-0.0031291632913053036
1759645151689287700,10.43228759765625,-0.020104555413126945,0.002345021115615964,-0.0013207842130213976
1759645151699244500,10.44224462890625,-0.02254614047706127,0.0003575040027499199,0.007740088738501072
1759645151709201700,10.45220166015625,-0.022948363795876503,0.009807788766920567,0.008795772679150105
1759645151719159600,10.46215966796875,-0.026767071336507797,0.03423403576016426,-0.0019135961774736643
1759645151729116700,10.47211669921875,-0.03044046275317669,0.054844923317432404,-0.007599992677569389
1759645151739073500,10.482073486328124,-0.026494191959500313,0.03280859813094139,0.0028097708709537983
1759645151749030700,10.49203076171875,-0.015820113942027092,-0.0009756290237419307,0.01860213465988636
1759645151758987800,10.50198779296875,-0.0005277104210108519,-0.025291888043284416,0.023501019924879074
1759645151768945400,10.5119453125,-0.009733395650982857,-0.029304610565304756,0.026016321033239365
1759645151778902500,10.521902587890626,-0.0034520644694566727,-0.02951553277671337,0.02442827820777893
1759645151788859600,10.531859619140626,-0.008465571328997612,-0.02180916629731655,0.02287614904344082
1759645151798816800,10.541816650390626,-0.012355383485555649,-0.0033188387751579285,0.01874052733182907
1759645151808774400,10.5517744140625,-0.011017732322216034,0.01856812834739685,0.002159230411052704
1759645151818731500,10.5617314453125,-0.015104087069630623,0.03728828579187393,-0.012811463326215744
1759645151828688600,10.571688720703126,-0.01769370771944523,0.04527099058032036,-0.02230389229953289
1759645151838645500,10.5816455078125,-0.022236529737710953,0.041222453117370605,-0.01519910991191864
1759645151848603400,10.591603271484376,-0.020361732691526413,0.025295229628682137,0.003292771987617016
1759645151858560500,10.601560546875,-0.01842721365392208,0.0025989720597863197,0.02813846617937088
1759645151868517600,10.611517578125,-0.009884759783744812,-0.009043930098414421,0.031031569465994835
1759645151878474500,10.621474609375,-0.002986639505252242,-0.0023503403645008802,0.017415359616279602
1759645151888432400,10.631432373046875,0.00010650022886693478,0.011858056299388409,-0.0011850404553115368
1759645151898389500,10.641389404296875,-0.0025505356024950743,0.02423296682536602,-0.014266220852732658
1759645151908346600,10.6513466796875,-0.007752393838018179,0.03253388777375221,-0.017469989135861397
1759645151918303500,10.661303466796875,-0.0092829130589962,0.040372371673583984,-0.013327973894774914
1759645151928261600,10.67126171875,-0.01257359143346548,0.043949760496616364,-0.006976836360991001
1759645151938218500,10.681218505859375,-0.010886212810873985,0.013618750497698784,-0.006313176825642586
1759645151948175600,10.691175537109375,-0.0026046358980238438,-0.0003683934628497809,-0.005983932875096798
1759645151958132500,10.701132568359375,-0.0021958407014608383,0.003946726210415363,-0.0025465907528996468
1759645151968090600,10.711090576171875,-0.007311640772968531,0.017797552049160004,-0.003182129468768835
1759645151978047500,10.721047607421875,-0.012184426188468933,0.030094698071479797,-0.0019568088464438915
1759645151988004600,10.731004638671875,-0.013547319918870926,0.04076191782951355,-0.003009761217981577
1759645151997961500,10.74096142578125,-0.016411548480391502,0.043188855051994324,-0.008026624098420143
1759645152007919600,10.750919677734375,-0.01879197731614113,0.04162812978029251,-0.008626650087535381
1759645152017876700,10.760876708984375,-0.023143848404288292,0.0487118698656559,-0.006670557893812656
1759645152027833300,10.770833251953125,-0.024277761578559875,0.04384410381317139,0.003351372666656971
1759645152037790500,10.78079052734375,-0.03580978140234947,0.029622822999954224,0.022857695817947388
1759645152047748600,10.79074853515625,-0.04442049190402031,0.015920819714665413,0.026265418156981468
1759645152057705700,10.800705810546875,-0.0489896759390831,0.022872736677527428,0.024438491091132164
1759645152067662600,10.81066259765625,-0.06293106079101562,0.057881567627191544,0.025608733296394348
1759645152077619500,10.820619384765624,-0.07905330508947372,0.10070653259754181,0.018905824050307274
1759645152087577600,10.83057763671875,-0.10049663484096527,0.071759894490242,0.01269720308482647
1759645152097534700,10.84053466796875,-0.07383067160844803,0.032875340431928635,0.009460130706429482
1759645152107491600,10.85049169921875,-0.05848602205514908,-0.013752017170190811,0.007993911392986774
1759645152117448400,10.860448486328124,-0.03584728762507439,-0.040367912501096725,0.023322800174355507
1759645152127406600,10.870406494140624,-0.01726403646171093,-0.02303401194512844,0.048639826476573944
1759645152137364000,10.880364013671874,-0.01991015300154686,-0.017526328563690186,0.05630094185471535
1759645152147321000,10.890321044921874,-0.025923218578100204,-0.027369961142539978,0.0462443046271801
1759645152157278000,10.90027783203125,-0.019912730902433395,-0.038493722677230835,0.044663187116384506
1759645152167235800,10.91023583984375,-0.02618981897830963,-0.033447638154029846,0.03103574551641941
1759645152177193000,10.92019287109375,-0.020250169560313225,-0.04255777969956398,0.01846003346145153
1759645152187150000,10.930150146484374,-0.024655725806951523,-0.048911623656749725,0.021409813314676285
1759645152197107000,10.94010693359375,-0.027148710563778877,-0.02396100014448166,0.02666369639337063
1759645152207063800,10.950063720703126,-0.02544669434428215,-0.00705010024830699,0.01650690846145153
1759645152217022000,10.96002197265625,-0.03555791452527046,0.0204294603317976,-0.0006475758855231106
1759645152226979000,10.96997900390625,-0.03419551998376846,0.07651080191135406,-0.016429170966148376
1759645152236936000,10.97993603515625,-0.03681287169456482,0.1279071569442749,-0.0355493389070034
1759645152246893000,10.98989306640625,-0.0339764766395092,0.1587013602256775,-0.052309006452560425
1759645152256851000,10.999850830078126,-0.02567007765173912,0.14171946048736572,-0.05431782826781273
1759645152266808000,11.00980810546875,-0.01785021647810936,0.10955937206745148,-0.04240197688341141
1759645152276765000,11.019764892578126,-0.007258557714521885,0.08598481118679047,-0.0306174885481596
1759645152286722000,11.02972216796875,-0.007904588244855404,0.07951240986585617,-0.020361514762043953
1759645152296680000,11.039679931640626,-0.009311269968748093,0.08971737325191498,-0.01763949729502201
1759645152306637000,11.049636962890625,-0.011258108541369438,0.10553658753633499,-0.023788658902049065
1759645152316594000,11.059593994140625,-0.017845969647169113,0.11697406321763992,-0.027478201314806938
1759645152326551000,11.069551025390625,-0.017416205257177353,0.10529197752475739,-0.030097633600234985
1759645152336509000,11.079509033203125,-0.009429385885596275,0.09196152538061142,-0.023658376187086105
1759645152346466000,11.089466064453125,-0.006674095522612333,0.07722937315702438,-0.016668157652020454
1759645152356423000,11.0994228515625,-0.016452956944704056,0.04009532183408737,-0.007246692199259996
1759645152366380000,11.109380126953125,-0.015139280818402767,0.035837769508361816,-0.0061890734359622
1759645152376338000,11.119337890625,-0.015623976476490498,0.038011178374290466,-0.008932395838201046
1759645152386294800,11.129294677734375,-0.0017663122853264213,0.0525527186691761,-0.013924241065979004
1759645152396252000,11.139251953125,-0.004491791129112244,0.060996271669864655,-0.021036477759480476
1759645152406209000,11.149208984375,-0.0019043812062591314,0.06143346428871155,-0.025295758619904518
1759645152416167000,11.1591669921875,0.002470660023391247,0.06086301431059837,-0.02284058928489685
1759645152426123800,11.169123779296875,0.0007327813655138016,0.07443717122077942,-0.026852069422602654
1759645152436081000,11.179080810546875,-0.007502244785428047,0.10121658444404602,-0.028412416577339172
1759645152446038000,11.1890380859375,0.0017567311879247427,0.1316341757774353,-0.0332038477063179
1759645152455996200,11.19899609375,0.002824126509949565,0.13648273050785065,-0.04173102602362633
1759645152465952800,11.208952880859375,0.010722017847001553,0.11048509925603867,-0.045156821608543396
1759645152475910000,11.218909912109375,0.01524859294295311,0.05566020682454109,-0.029096629470586777
1759645152485867000,11.228866943359375,0.034667741507291794,0.012382925488054752,-0.004623258952051401
1759645152495824000,11.238823974609375,0.054410018026828766,-0.038179051131010056,0.016778435558080673
1759645152505782000,11.248781982421875,0.06826590746641159,-0.1148255318403244,0.04632938280701637
1759645152515739000,11.25873876953125,0.07088379561901093,-0.1343507617712021,0.06672626733779907
1759645152525696000,11.268696044921874,0.0680980309844017,-0.09355488419532776,0.06822265684604645
1759645152535652900,11.27865283203125,0.048903562128543854,-0.030478179454803467,0.04162513464689255
1759645152545611000,11.288611083984375,0.03235246613621712,0.03415190801024437,0.005639733746647835
1759645152555567900,11.29856787109375,0.017856081947684288,0.09471751004457474,-0.024387141689658165
1759645152565525000,11.30852490234375,0.013602374121546745,0.1072479635477066,-0.039760880172252655
1759645152575481900,11.31848193359375,0.016953961923718452,0.07630150020122528,-0.03887750953435898
1759645152585440000,11.32843994140625,0.029109343886375427,0.06060345098376274,-0.01635299250483513
1759645152595397000,11.338397216796874,0.023511912673711777,0.06753912568092346,-0.00776296854019165
1759645152605353700,11.348353759765626,0.009089740924537182,0.09246183931827545,-0.015453637577593327
1759645152615310800,11.358310791015626,0.009464981034398079,0.14647874236106873,-0.030830197036266327
1759645152625269000,11.36826904296875,-0.0028273833449929953,0.1930381953716278,-0.055107422173023224
1759645152635226000,11.37822607421875,-0.015938924625515938,0.21981015801429749,-0.07907533645629883
1759645152645182700,11.3881826171875,-0.012907180935144424,0.21442727744579315,-0.08454465121030807
1759645152655139800,11.398139892578126,-0.012000640854239464,0.16072197258472443,-0.07707395404577255
1759645152665097000,11.408096923828126,-0.006161918863654137,0.14979445934295654,-0.05619603022933006
1759645152675055000,11.41805517578125,-0.005175750702619553,0.15496285259723663,-0.04498225450515747
1759645152685012000,11.428011962890626,-0.01750832423567772,0.14302752912044525,-0.04791855439543724
1759645152694968800,11.43796875,-0.019546708092093468,0.1208186224102974,-0.057155996561050415
1759645152704926000,11.447926025390625,-0.007948996499180794,0.09600198268890381,-0.0584251806139946
1759645152714884000,11.457884033203126,-0.004561455920338631,0.07865175604820251,-0.0604608990252018
1759645152724841000,11.467841064453125,0.001248145243152976,0.08792155236005783,-0.06672406941652298
1759645152734798000,11.477798095703125,-0.0031183739192783833,0.09354161471128464,-0.07503259927034378
1759645152744755000,11.4877548828125,-0.015152936801314354,0.08745075762271881,-0.07123134285211563
1759645152754713000,11.497713134765625,-0.015119380317628384,0.08246505260467529,-0.06221095100045204
1759645152764670000,11.507669921875,-0.02542082592844963,0.08312337100505829,-0.05775952711701393
1759645152774627000,11.517626953125,-0.021297721192240715,0.08476574718952179,-0.060359835624694824
1759645152784584000,11.527583984375,-0.0046624792739748955,0.09276783466339111,-0.060556281358003616
1759645152794540800,11.537540771484375,-0.01759878545999527,0.08635067939758301,-0.057779937982559204
1759645152804499000,11.5474990234375,-0.008991003967821598,0.06910791993141174,-0.05112338066101074
1759645152814456000,11.5574560546875,-0.006744095124304295,0.05502299964427948,-0.03413321077823639
1759645152824413200,11.5674130859375,-0.009181419387459755,0.0529252290725708,-0.022724496200680733
1759645152834369800,11.577369873046875,-0.016893135383725166,0.06372727453708649,-0.02235405147075653
1759645152844328000,11.587327880859375,-0.015815705060958862,0.07972346991300583,-0.03495354950428009
1759645152854285000,11.59728515625,-0.023582015186548233,0.1053561270236969,-0.050566334277391434
1759645152864242000,11.607241943359375,-0.03891969472169876,0.13850703835487366,-0.06962195038795471
1759645152874199000,11.617198974609375,-0.043337348848581314,0.16819967329502106,-0.08762412518262863
1759645152884156000,11.627156005859375,-0.0606183297932148,0.17751383781433105,-0.09596894681453705
1759645152894114000,11.637114013671875,-0.08688988536596298,0.20721927285194397,-0.10379011929035187
1759645152904071000,11.64707080078125,-0.0823230892419815,0.24755890667438507,-0.11342627555131912
1759645152914028000,11.657028076171875,-0.07128961384296417,0.24543637037277222,-0.11319112032651901
1759645152923985000,11.66698486328125,-0.061690233647823334,0.20747368037700653,-0.10502889752388
1759645152933943000,11.676943115234375,-0.03476380929350853,0.1257345974445343,-0.09062571823596954
1759645152943900000,11.68689990234375,-0.010007787495851517,0.052734602242708206,-0.06280148029327393
1759645152953857000,11.69685693359375,0.0029010875150561333,-0.01150190643966198,-0.03950788080692291
1759645152963814100,11.706814208984374,0.008232121355831623,-0.025758620351552963,-0.021989110857248306
1759645152973770800,11.716770751953124,0.008667281828820705,-0.009152477607131004,-0.016388215124607086
1759645152983729000,11.72672900390625,0.0044756317511200905,0.020920228213071823,-0.025823984295129776
1759645152993686000,11.73668603515625,-0.002340196631848812,0.04069739207625389,-0.0416218563914299
1759645153003643100,11.74664306640625,-0.010557262226939201,0.059881217777729034,-0.050028007477521896
1759645153013600000,11.75660009765625,-0.014823379926383495,0.09993862360715866,-0.0577293336391449
1759645153023556900,11.766556884765626,-0.022610051557421684,0.08754203468561172,-0.07365859299898148
1759645153033515000,11.776514892578126,-0.01902357116341591,0.05580886825919151,-0.07179757952690125
1759645153043472100,11.78647216796875,-0.016570068895816803,0.015263693407177925,-0.0646607056260109
1759645153053429000,11.796428955078126,-0.023814933374524117,-0.03338400274515152,-0.049360308796167374
1759645153063385900,11.8063857421875,-0.03478793427348137,-0.057710081338882446,-0.03195582330226898
1759645153073344000,11.816343994140626,-0.051628436893224716,-0.0382479690015316,-0.02533760294318199
1759645153083300900,11.82630078125,-0.06425777822732925,0.015527334995567799,-0.029055077582597733
1759645153093258000,11.836258056640625,-0.06624076515436172,0.07313311100006104,-0.05304030701518059
1759645153103215000,11.846215087890625,-0.04754716902971268,0.1024567186832428,-0.0684942752122879
1759645153113172000,11.856171875,-0.04065250977873802,0.11441777646541595,-0.07943267375230789
1759645153123129900,11.8661298828125,-0.03599552437663078,0.13621734082698822,-0.07522066682577133
1759645153133086500,11.87608642578125,-0.026670729741454124,0.12648801505565643,-0.0731671005487442
1759645153143043300,11.886043212890625,-0.022976739332079887,0.09278488904237747,-0.0676080584526062
1759645153153000400,11.89600048828125,-0.02559089846909046,0.04169827699661255,-0.06264099478721619
1759645153162957300,11.905957275390625,-0.032509103417396545,0.012379358522593975,-0.05829432234168053
1759645153172915500,11.91591552734375,-0.05432066321372986,0.02212466485798359,-0.05514460429549217
1759645153182872300,11.925872314453125,-0.04249868914484978,0.06525004655122757,-0.049280695617198944
1759645153192829400,11.935829345703125,-0.04172450676560402,0.0950593426823616,-0.05041307210922241
1759645153202786600,11.94578662109375,-0.06485334038734436,0.09635709226131439,-0.06185778230428696
1759645153212743200,11.9557431640625,-0.06484748423099518,0.0749087929725647,-0.06721606105566025
1759645153222701300,11.965701416015625,-0.0597519688308239,0.04042026773095131,-0.06866216659545898
1759645153232658400,11.975658447265625,-0.04888547211885452,-0.005753617733716965,-0.054945554584264755
1759645153242615600,11.985615478515625,-0.05056557431817055,-0.03829387202858925,-0.028261199593544006
