time,seconds_elapsed,z,y,x
1757614647469383700,82.5083837890625,7.058652437585592,-6.031847968414425,-9.63469827310145
1757614647479338800,82.5183388671875,7.329483640909195,-5.017870832112431,-8.339751985821128
1757614647489293600,82.52829345703125,7.437628373807668,-4.889995562827587,-7.118715568882227
1757614647499248600,82.53824853515626,7.04477939505577,-5.217173507273197,-5.9770835280478
1757614647509203700,82.54820361328125,6.09534224320352,-5.816087494927644,-5.121299057883024
1757614647519158500,82.55815844726563,4.723748477311432,-6.410035969129204,-4.621389634338021
1757614647529113900,82.56811376953125,2.381393031987548,-6.185390178397298,-4.943989018821716
1757614647539068700,82.57806860351562,-0.5882067156791687,-3.351222983527183,-7.036618884953856
1757614647549023700,82.58802368164062,-1.887788846066594,4.478353036278486,-11.60846912009716
1757614647558978800,82.59797875976562,-1.182503564926982,18.11515870629549,-15.583161855864525
1757614647568933600,82.60793359375,0.9158902715593576,29.022311448884007,-11.198121894055603
1757614647578888700,82.617888671875,1.6974226338163017,29.744074402093887,-0.4063257154405116
1757614647588843500,82.62784350585937,-2.727308410128951,24.11118658878803,4.970652569341659
1757614647598799600,82.63779956054688,-7.087117484569549,16.569729591715333,4.605605205228924
1757614647608754700,82.64775463867187,-8.36712573043704,9.841770413219928,3.254778625294566
1757614647618709500,82.65770947265625,-7.508241540691256,5.7970151301890605,1.14178007100299
1757614647628664800,82.66766479492188,-6.46922056402564,3.824116389852762,-1.2282887261547148
1757614647638619600,82.67761962890626,-4.783366787450015,3.89090561453402,-1.2138507432185113
1757614647648574500,82.68757446289062,-2.587926827445626,5.394300590983033,1.1195070105269551
1757614647658529800,82.69752978515625,-1.1501385878950356,6.962742916882037,3.018994769954681
1757614647668484600,82.70748461914063,-0.3142942052140832,7.657764578160643,4.104290006539225
1757614647678439700,82.71743969726562,0.4118739972174167,7.23361269865036,4.60583667589724
1757614647688394800,82.72739477539062,1.173066459017992,6.055352762642502,4.563950421804189
1757614647698349800,82.73734985351562,1.7981798868119716,4.559964567038417,4.316248749655485
1757614647708304600,82.7473046875,2.506663087210059,3.093403237468004,4.06496746545434
1757614647718259500,82.75725952148437,3.3280274013787507,1.683812918397784,3.497679619163274
1757614647728215800,82.7672158203125,4.195169131860137,0.480904863345623,3.394642438536882
1757614647738170600,82.77717065429688,4.909997901892662,-0.5658686271429062,3.480744266453385
1757614647748125700,82.78712573242187,5.518095897477865,-1.4268518349945545,3.5575317380577323
1757614647758080800,82.79708081054687,6.005539222681522,-2.0718039357244966,3.796922385717928
1757614647768035600,82.80703564453125,6.555859567558765,-2.697034267896413,4.106348108112812
1757614647777990700,82.81699072265624,7.175271568840742,-3.4016567012131214,4.589536113959551
1757614647787945700,82.82694580078125,7.894298375084996,-4.247912880054116,5.202977224138379
1757614647797900800,82.83690087890625,8.544127141940594,-5.248396328532696,5.932083525848388
1757614647807855600,82.84685571289063,8.98248465693593,-6.291638722285628,6.792272952973843
1757614647817810700,82.85681079101562,9.06206146699786,-7.289389530929923,7.631280475860834
1757614647827765800,82.86676586914062,8.920400248944759,-8.110056510484219,8.422596857768296
1757614647837720600,82.87672045898438,8.654004397720097,-8.882048598718642,9.167039260298012
1757614647847675600,82.88667553710937,8.315863745233417,-9.716948101764917,9.949213719850778
1757614647857630700,82.89663061523437,7.836310296496748,-10.848249302721024,10.712477727228402
1757614647867585500,82.90658544921875,7.155353985449671,-12.173318341064451,11.441903762412071
1757614647877542000,82.9165419921875,6.385600616052747,-13.451923734396695,11.976987959712742
1757614647887496700,82.92649658203125,5.526106769976019,-14.118929846024512,12.030788523483276
1757614647897451500,82.93645141601563,4.751059385824203,-13.602053505587577,11.126837111520766
1757614647907406600,82.94640649414063,4.255490037310123,-11.974473346543313,9.65338076173961
1757614647917361700,82.95636157226562,4.097210861933231,-9.685019762584568,8.351882568597793
1757614647927316700,82.96631665039062,3.790257082609832,-7.127369999980926,7.513339156091213
1757614647937271600,82.976271484375,3.0373434965938326,-4.212795389443635,6.98049309310615
1757614647947227000,82.98622680664063,1.7179028195261954,-0.5477496176064014,6.343793272414803
1757614647957181700,82.996181640625,0.4422887169644236,4.992411981207132,4.874417177684605
1757614647967136500,83.00613647460938,0.7428595172524451,13.96495742793083,2.153506359638273
1757614647977091800,83.016091796875,5.333484010970592,25.84696876387596,2.22210277987197
1757614647987046700,83.02604663085937,10.125520719349383,37.13951783112287,10.15089598362446
1757614647997001700,83.03600170898437,9.477190082097051,37.667946662187575,14.46015618956685
1757614648006956500,83.04595654296875,5.892422546589375,26.907663227689262,6.33714141331017
1757614648016912600,83.05591259765625,2.479771280892193,22.432247998428345,-1.13546212002784
1757614648026867700,83.06586767578125,1.0058180875048042,21.556746435880655,-5.373737110903859
1757614648036822800,83.07582275390625,-1.0166215133309364,21.9205411695838,-5.0930274876445525
1757614648046777600,83.08577758789062,-3.160938604341448,21.835647548413277,-0.4454581407807767
1757614648056732700,83.09573266601562,-3.1757389908492564,18.83016107932925,3.0320553270578383
1757614648066687500,83.1056875,-2.311710131691396,14.63278070116043,1.0073379905484616
1757614648076642800,83.11564282226563,-2.590431796003878,11.415050826799868,-1.3589376979365944
1757614648086597600,83.12559765625,-3.2013147461324927,8.658359085798264,-2.228706854312122
1757614648096552700,83.135552734375,-3.285420724056661,6.057957392182946,-2.850991780681908
1757614648106507800,83.1455078125,-3.339910146874189,3.621742636683583,-3.1802187666118145
1757614648116462600,83.15546264648438,-3.438247771507501,1.1935469369888303,-3.411321770659089
1757614648126417700,83.16541772460937,-3.338224385744333,-1.107333465391397,-3.539223343428969
1757614648136372500,83.17537255859375,-2.462511810794473,-3.038919367608428,-3.412666171005368
1757614648146327800,83.18532788085938,-1.2462718343518673,-4.6303462632536885,-3.405090475054085
1757614648156283600,83.19528369140625,0.0571285391494631,-6.13057254653871,-3.771523448306322
1757614648166238700,83.20523876953125,1.38590490757823,-7.618100676292181,-4.489357829895615
1757614648176193300,83.215193359375,1.992439599369466,-9.144929135298728,-5.585811589354276
1757614648186148400,83.2251484375,2.003684046961367,-10.591450131881237,-6.797484550142288
1757614648196103400,83.235103515625,1.824561990042031,-11.905000581866505,-7.866714202588796
1757614648206058200,83.24505834960938,1.974372612281144,-12.853484378516674,-8.779737394279241
1757614648216013300,83.25501342773437,2.6599063142463564,-13.410248492705822,-9.62007528898716
1757614648225968400,83.26496850585937,3.926557065890729,-13.54503222620487,-10.39647701035738
1757614648235923200,83.27492309570313,5.297165327876806,-13.117791148507594,-10.981467686599492
1757614648245878300,83.28487817382812,6.350389601939916,-11.973512392556666,-11.324418369716405
1757614648255833300,83.29483325195312,6.973709716576337,-10.148368510973452,-11.154959628677368
1757614648265788400,83.30478833007813,7.419395967024564,-8.142790320828556,-10.55494790891409
1757614648275743200,83.3147431640625,7.698476527777314,-6.485509435525536,-9.797077285012602
1757614648285699300,83.32469921875,7.8082053149968385,-5.578430831453204,-9.18304814581275
1757614648295654400,83.334654296875,7.954948366358876,-5.219630837297439,-8.471483930534124
1757614648305609200,83.34460913085937,8.00759157678783,-5.25715363548398,-7.296911743128299
1757614648315564300,83.35456420898437,7.755003301641344,-5.669492327603697,-5.92324029417932
1757614648325519400,83.36451928710937,6.922313291338086,-6.094755967748164,-5.214059174644947
1757614648335474200,83.37447412109375,5.535667794525623,-5.833540734031796,-5.413246114471554
1757614648345429500,83.38442944335938,3.4651211653858423,-4.102645161941648,-6.459586474239826
1757614648355384300,83.39438427734375,1.5150757696315644,0.5089005392521619,-9.14658450129032
1757614648365339400,83.40433935546875,0.9720666245505212,11.15135429766178,-14.198387413620948
1757614648375294200,83.41429418945313,2.186110990644991,26.26413268419504,-16.612813531160352
1757614648385249300,83.42424926757812,5.809016533628106,32.11456551631689,-8.449612874987722
1757614648395204400,83.43420434570312,5.043529589504003,25.377759014499187,2.177392846660316
1757614648405159200,83.4441591796875,0.5001701203078032,17.85004997227192,5.229404043292999
1757614648415114500,83.45411450195313,-3.278180543670058,12.270963891780376,4.787367547523975
1757614648425070300,83.4640703125,-6.233076058679819,7.688464252328872,3.62493763333261
1757614648435025200,83.47402514648438,-6.887470526015759,4.749503973075747,2.4555554157853123
1757614648444980500,83.48398046875,-5.882729420092701,3.503813007351756,1.2743930363342164
1757614648454935300,83.49393530273437,-4.774180733692646,3.8577041866779327,1.281553721743822
1757614648464890400,83.50389038085937,-3.540408169299364,5.346080457693338,2.566485395488143
1757614648474845400,83.51384545898438,-2.463582654896378,7.240078095272183,4.110793981605768
1757614648484800300,83.52380029296874,-1.6118962677001951,8.600244165959953,5.150649071007967
1757614648494755300,83.53375537109375,-1.0390706610262392,8.780139545339345,5.374187192758917
1757614648504710100,83.54371020507813,-0.5021095639377832,7.7094842440038915,5.0229368833303445
1757614648514665500,83.55366552734375,0.2507142979681491,5.75814910070002,4.346836487881839
1757614648524620300,83.56362036132812,1.1328618744015693,3.707892395395041,3.705911742971837
1757614648534575000,83.5735751953125,2.0485177526831624,1.8173796773225068,3.1926436561599374
1757614648544530400,83.58353051757813,2.92375160420537,0.197300687688589,2.871161585268378
1757614648554485200,83.5934853515625,3.775792796188593,-1.153659163236618,2.74025381641984
1757614648564441000,83.60344116210938,4.602451709634066,-2.2434850289881227,2.863711561523378
1757614648574396400,83.613396484375,5.430214784929156,-3.1449218277812,3.130682874548435
1757614648584351200,83.62335131835937,6.218289992958307,-3.85423972543776,3.667461016285419
1757614648594306300,83.63330639648437,6.923254956102371,-4.468954508814216,4.375900377541781
1757614648604261400,83.64326147460937,7.513869901967048,-5.066967163714766,5.113177710747719
1757614648614216400,83.65321655273438,8.053287744557856,-5.676618818482757,5.951294422274827
1757614648624171300,83.66317114257812,8.52156810413003,-6.2932280373036855,6.80018445675075
1757614648634126300,83.67312622070312,8.846907727232574,-6.951568611916899,7.600629317009448
1757614648644081400,83.68308129882813,8.982498100939393,-7.591380427148938,8.457586922606826
1757614648654036200,83.6930361328125,8.90096606515646,-8.205943234834075,9.402990288898348
1757614648663991300,83.7029912109375,8.577164319145679,-8.921996578225492,10.355208595901727
1757614648673946400,83.7129462890625,8.122166634994745,-9.846257203245164,11.466067897331714
1757614648683901200,83.72290112304688,7.4658666262984275,-11.075177066910266,12.584789018177986
1757614648693856300,83.73285620117187,6.687746410572529,-12.481345010316373,13.188169922113415
1757614648703812400,83.74281225585938,5.975626314976811,-13.692173921495677,12.86874624505639
1757614648713767200,83.75276708984374,5.518932348302006,-14.01441967023611,11.713254021173714
1757614648723722200,83.76272216796875,5.235871778002381,-13.16117903933525,10.16461588141918
1757614648733677300,83.77267724609375,5.157204484000801,-11.531122845566273,8.742244406709075
1757614648743632400,83.78263232421875,5.163036258894205,-9.492962236246466,7.672148492822051
1757614648753587200,83.79258715820312,4.673119821575284,-7.129817393133044,6.941012146589159
1757614648763542500,83.80254248046874,3.174281777778268,-3.844889128768444,6.290081555971503
1757614648773497300,83.81249731445313,0.9082210521057248,1.6254080757021905,5.190954193389415
1757614648783452200,83.8224521484375,-0.1372185594305396,11.056225698202848,3.079465897530317
1757614648793407200,83.8324072265625,3.541831480100751,24.094099844908712,1.2353538422353565
1757614648803362300,83.8423623046875,9.158649033093452,39.82252708079815,8.224604096162318
1757614648813317400,83.8523173828125,5.961453412717581,39.62646441047191,14.530028767216203
1757614648823272200,83.86227221679688,1.5248393310159445,23.903456861543653,6.113543670326471
1757614648833227500,83.8722275390625,0.1727466766685247,18.25083558924198,-0.7769624239929019
1757614648843183400,83.88218334960938,-0.7122486904114484,16.648626018297673,-4.354962218931317
1757614648853138200,83.89213818359374,-2.0344836743727326,16.034583435094355,-4.980258017554879
1757614648863093500,83.90209350585937,-3.488877596287429,16.263725368201733,-3.1832904291421174
1757614648873048300,83.91204833984375,-4.084705308364332,15.926762527322769,-0.119002226999402
1757614648883003100,83.92200317382813,-2.5174065995424986,14.65085177990198,0.1164442130796611
1757614648892958500,83.93195849609376,-1.3383829856857656,13.41664666931033,-1.1909276944011449
1757614648902913300,83.94191333007812,-1.0957105398759246,12.3249292907238,-1.667339191850275
1757614648912868400,83.95186840820313,-0.8876698469862342,10.81916115540266,-1.900368633915484
1757614648922823200,83.9618232421875,-0.8729185603171586,8.934150541877747,-1.9326652218863367
1757614648932778200,83.9717783203125,-0.987121570341289,7.022675115275383,-1.9181405835799872
1757614648942733300,83.9817333984375,-1.1116644803330302,5.169148604294658,-1.9646536206908525
1757614648952688000,83.99168823242188,-1.1648270384609698,3.229392255103588,-1.939183663869649
1757614648962643500,84.0016435546875,-1.002877065616846,1.107270921549201,-1.877365067207813
1757614648972598300,84.01159838867187,-0.6604056904494762,-1.1369792465925217,-1.9481183732144531
1757614648982553300,84.02155322265625,-0.0781602212622761,-3.3136241974949834,-2.2554994380392133
1757614648992509400,84.03150952148438,0.6391632881954312,-5.282770891821384,-2.734982013496756
1757614649002464300,84.04146435546875,1.3995280670002102,-7.114292491742968,-3.3090266405716537
1757614649012419300,84.05141943359375,2.1197978590428828,-8.89216141193211,-3.934195305684209
1757614649022374400,84.06137451171875,2.784253993926942,-10.673086797082425,-4.498842574338615
1757614649032329200,84.0713291015625,3.311254838015139,-12.447669535207748,-5.142302098423242
1757614649042284300,84.0812841796875,3.7863483847334978,-14.08407714383006,-5.862200426805019
1757614649052239400,84.0912392578125,4.43467551485449,-15.463054297971723,-6.759729112243652
1757614649062194400,84.1011943359375,5.310172108966112,-16.262511900758742,-7.866752196511626
1757614649072149200,84.11114916992187,6.166465113174915,-16.06312797705531,-9.005524756261705
1757614649082104300,84.12110424804688,6.413734239125251,-14.564863933753966,-9.805872001364827
1757614649092059400,84.13105932617188,5.877291028431058,-12.14253274217844,-10.200870267105104
1757614649102014200,84.14101416015625,5.144244464662671,-9.51201648080647,-10.337768800801038
1757614649111969300,84.15096923828125,4.95103133854866,-7.156916996982694,-10.227945321035383
1757614649121925400,84.16092529296876,5.322590861034393,-5.439977469530701,-9.67246072526276
1757614649131880200,84.17088012695312,5.970453296253085,-4.501277400270104,-8.845354068049788
1757614649141835300,84.18083520507813,6.4548045006603,-4.274845895165205,-7.8784385426521295
1757614649151790300,84.19079028320313,6.659589991146325,-4.619594567614794,-7.045072825044393
1757614649161745400,84.20074536132813,6.383457174283266,-5.32011541083157,-6.512189352658391
1757614649171700200,84.2107001953125,5.20592262994051,-5.904854158139228,-6.419001950395107
1757614649181655600,84.22065551757812,2.90530643145442,-5.298810756996273,-7.012239645978808
1757614649191610600,84.23061059570313,0.4263423752918839,-2.059757524099946,-8.963768850550055
1757614649201565400,84.2405654296875,-0.4280193685933947,6.157942199501395,-12.955684523797034
1757614649211520800,84.25052075195312,0.349873175856471,19.0285068921566,-15.633846917963028
1757614649221475600,84.2604755859375,2.872069932284951,26.492418877255915,-10.080907670640944
1757614649231430700,84.2704306640625,3.5614199776679274,25.996975785470006,-0.3997530590519308
1757614649241385500,84.28038549804687,0.1925678139477968,24.62306409802437,4.0658623684674495
1757614649251340500,84.29034057617187,-2.694900178477168,22.185133186256884,4.77630751658827
1757614649261296400,84.30029638671876,-3.961930869349837,17.230261538892982,4.00505426402241
1757614649271251500,84.31025146484374,-5.087085822635888,12.753846777200698,2.9486089820861814
1757614649281206500,84.32020654296875,-4.980869427451491,10.286156686985493,1.817096330336481
1757614649291161600,84.33016162109375,-4.405459649503231,9.130413703212142,0.8509985510624944
1757614649301116400,84.34011645507813,-3.6180449512094257,8.729408306011557,1.4143413129895923
1757614649311071700,84.35007177734374,-2.6576334008783102,8.846125052422284,3.280073810070753
1757614649321026600,84.36002661132812,-1.7066396672338249,9.028023588317632,4.951965989050269
1757614649330981400,84.3699814453125,-0.8413847734123467,8.485269294780492,5.566140674200653
1757614649340936700,84.37993676757813,0.1690057365745305,6.874286634793878,5.50810817194879
1757614649350891500,84.3898916015625,1.2203782452911138,4.626742101281881,5.237506685727834
1757614649360846600,84.3998466796875,2.070512142348289,2.49110662163794,4.937984225448965
1757614649370801400,84.40980151367188,2.844206942847371,0.7494646146059036,4.58833404469341
1757614649380756700,84.4197568359375,3.62874228631258,-0.5905488948911428,4.361709939625859
1757614649390711600,84.42971166992187,4.405687613040208,-1.5837784267187118,4.346513539537787
1757614649400666400,84.43966625976563,5.137369902718067,-2.3090625397920608,4.331001497629285
1757614649410622700,84.44962280273438,5.8143047031641,-2.8021856641978022,4.33903049030602
1757614649420577500,84.45957763671875,6.4549529692202805,-3.199782714259624,4.5128205385476345
1757614649430532400,84.46953247070313,7.181357610756159,-3.7013492573618887,4.807422493559121
1757614649440487700,84.47948779296875,8.03157450992167,-4.3956426043659445,5.29863189329803
1757614649450442500,84.4894423828125,8.79773716135025,-5.28553801844716,5.871957266187668
1757614649460397600,84.4993974609375,9.390664475810528,-6.3445852995753285,6.453269546177983
1757614649470352600,84.5093525390625,9.788449741920829,-7.432076000377536,6.990888230392336
1757614649480307500,84.51930737304687,10.037206476080415,-8.427732467091083,7.469793444353342
1757614649490262500,84.52926245117187,10.133523993062973,-9.242512142172457,7.856326079565286
1757614649500217300,84.53921728515625,10.004251131939888,-9.834099147939682,8.275709429499507
1757614649510172700,84.54917260742188,9.79984441163838,-10.289726946687695,9.108360861358046
1757614649520127500,84.55912744140625,9.570284545379875,-10.746304008984565,10.278898094159365
1757614649530082600,84.56908251953125,9.25171602384746,-11.109550461155177,11.387027678364516
1757614649540037600,84.57903759765625,8.675965469637513,-11.278476118230818,11.964341244107484
1757614649549993500,84.58899340820312,7.833295332589745,-10.985139653110505,11.634852100110054
1757614649559948500,84.59894848632813,7.01525753249526,-10.200842210054397,10.665455279290676
1757614649569903600,84.60890356445313,6.331341787120699,-9.06402136889398,9.538845451021194
1757614649579858400,84.6188583984375,5.723046807658672,-7.664517559552192,8.591291044175625
1757614649589813500,84.6288134765625,4.487392082780599,-5.796797688046097,7.945161131837963
1757614649599768600,84.6387685546875,2.1891800228267906,-3.0484698707640168,7.15688601732254
1757614649609723600,84.6487236328125,-0.4733616083592176,1.6435732624679802,5.851779570555687
1757614649619678500,84.65867846679687,-0.9049246409088372,9.060390318915248,3.3554397244393823
1757614649629633800,84.6686337890625,3.029913054332137,17.784743679624796,1.873390610618889
1757614649639588600,84.67858862304688,6.350802274394035,25.82146022861004,6.3083040258824825
1757614649649543400,84.68854345703124,4.421091518399119,30.334817942774293,11.313297256243228
1757614649659498500,84.69849853515625,3.005968115121126,25.087354511177537,8.720313729929924
1757614649669453600,84.70845361328125,1.5118889562889932,19.028032260382176,5.02848574962914
1757614649679408600,84.71840869140625,-0.961461059384048,17.21603895227313,1.8132189043812448
1757614649689363500,84.72836352539062,-2.402439911669493,16.607309673047066,-0.474822182431072
1757614649699319600,84.73831958007813,-2.8559011800333858,17.233334954988955,-1.0815420215308666
1757614649709274600,84.74827465820313,-3.127147101637721,18.54104135512113,-0.5360694089457393
1757614649719229400,84.7582294921875,-2.504805476644635,18.9504077534318,-0.1224659575872123
1757614649729184500,84.7681845703125,-1.0070593197375537,18.43820992619991,-0.7772495703712106
1757614649739139600,84.7781396484375,0.0313029007583856,17.284620905590057,-2.2391059371210638
1757614649749094400,84.78809448242187,0.6160866562515497,15.480719718521833,-3.735765906226635
1757614649759049700,84.7980498046875,0.9286077143132686,12.922584218227865,-4.348206022669375
1757614649769004500,84.80800463867187,1.1905068386405706,10.056717816758155,-4.171016102856397
1757614649778959600,84.81795971679688,1.3584233186736705,7.221343584185838,-3.84651936031878
1757614649788914400,84.82791455078124,1.3765882131785154,4.4843250964254135,-3.468630050289631
1757614649798869500,84.83786938476563,1.6670049914598464,1.99671274664402,-2.968078821709752
1757614649808824600,84.84782446289063,2.443799511539936,-0.3490589368641376,-2.5242548580020663
1757614649818779400,84.857779296875,3.576380230912566,-2.5469115109682083,-2.445703299334645
1757614649828734700,84.86773461914062,4.563257178843021,-4.561713456532359,-2.7305285412192344
1757614649838690600,84.87769067382813,5.172132004019618,-6.494880490460991,-3.268290433296561
1757614649848645400,84.88764526367187,5.41342322460413,-8.341739360246061,-3.928683556525409
1757614649858600700,84.8976005859375,5.412597879695892,-10.020140774989128,-4.476130976314843
1757614649868555500,84.90755541992188,5.297935727727413,-11.573227126324175,-4.7116588110670445
1757614649878510600,84.91751049804688,5.406756167930364,-12.960063761794569,-4.749790973323584
1757614649888465700,84.92746557617187,5.79485298371911,-14.16263104058504,-4.862050155803561
1757614649898420500,84.93742041015625,6.456029658541083,-15.314268927127122,-5.3492848066926
1757614649908375600,84.94737548828125,7.192222703641653,-16.26100617237091,-6.306233649349212
1757614649918330600,84.95733056640626,7.600337056064605,-16.48454604768753,-7.5357088088095185
1757614649928285700,84.96728564453124,7.295846159723401,-14.890052165687084,-8.390726386255025
1757614649938240500,84.97724047851563,6.337989554572105,-11.689310835528373,-8.581319100737572
1757614649948195600,84.98719555664063,5.501665571680665,-8.254809264811874,-8.54161252877116
1757614649958150700,84.99715063476563,5.081497208848595,-5.009614460420608,-8.527930040377377
1757614649968105500,85.00710546875,5.04236054572463,-2.227626950120926,-8.421352995187044
1757614649978061300,85.01706127929687,5.267158312147855,-0.5436497810721397,-7.72569245148301
1757614649988016600,85.0270166015625,5.413637744137644,-0.3468669797778129,-6.285787073647976
1757614649997971500,85.03697143554687,5.01865584501028,-1.5091881728976964,-5.184089568316936
1757614650007926500,85.04692651367188,3.353825567241013,-2.8182798899084327,-5.3247611908108
1757614650017881600,85.05688159179688,1.2578636340767144,-2.0197493388384578,-7.23146750331521
1757614650027836700,85.06683666992187,0.8502809043124318,2.3376760553359985,-10.567861166501045
1757614650037791500,85.07679150390625,1.6573703171521423,9.1204014277637,-13.242032445204256
1757614650047746600,85.08674658203125,2.0360352877289056,14.951163929253816,-12.393987044858932
1757614650057701600,85.09670166015626,1.6396943752080202,17.98654518586397,-8.574721602168678
1757614650067656400,85.10665649414062,-0.012316460737586,18.36547669842243,-4.895663379330933
1757614650077611500,85.11661157226563,-2.4216087225198746,16.1129409324944,-2.2987325766965747
1757614650087566600,85.12656665039063,-4.575767116326094,12.746993842566011,-0.2785919004529714
1757614650097521700,85.13652172851563,-5.839226378452778,10.204917496669292,0.9678510526821016
1757614650107476500,85.1464765625,-5.833256071871519,8.572427938273549,0.9000356998234986
1757614650117432600,85.1564326171875,-4.836446051208674,7.536434784996509,0.4476975902706384
1757614650127387600,85.1663876953125,-3.1850828655168413,6.998516825574636,1.03636490919888
1757614650137342500,85.17634252929687,-1.8441858511835336,6.825777163168787,2.467379124569893
1757614650147297500,85.18629760742188,-1.0894839204460385,7.026294474816322,3.6849165934771295
1757614650157252600,85.19625268554688,-0.4853261869192123,7.096414305225014,4.342604549400508
1757614650167207400,85.20620751953125,0.09552548982203,6.538962208771705,4.522551074445247
1757614650177162800,85.21616284179687,0.8068868760049343,5.368168955382704,4.422430365787446
1757614650187117600,85.22611767578125,1.6551766065001488,3.913071853634715,4.495638225339353
1757614650197072600,85.23607275390626,2.5805326255410908,2.458739891040325,4.427952344079316
1757614650207027700,85.24602783203125,3.5550007582753893,1.1893968315720558,4.394553055563569
1757614650216982500,85.255982421875,4.409271316745877,0.1072089133530855,4.495029738052189
1757614650226937900,85.26593774414063,5.006814600569009,-0.8096522490650415,4.609022320196032
1757614650236892700,85.275892578125,5.484053927144408,-1.6790397126466037,4.797081132286786
1757614650246847700,85.28584765625,5.900773026305437,-2.5530524979412554,5.02585598564744
1757614650256802800,85.295802734375,6.483967466780543,-3.390233974444866,5.350737343588471
1757614650266758700,85.30575854492187,7.172541267094016,-4.165798075947166,5.867693763524294
1757614650276713700,85.31571362304688,7.763333907613157,-4.95780010203123,6.603280659425258
1757614650286668800,85.32566870117188,8.207343749281764,-5.860033019638061,7.509834362840652
1757614650296623600,85.33562353515624,8.419030105197429,-6.8967959882438175,8.471758655822276
1757614650306578700,85.34557861328125,8.523796301573514,-7.977785052067041,9.383893374240396
1757614650316533500,85.35553344726563,8.47755419035852,-9.0470515293926,10.200170009881257
1757614650326488800,85.36548876953125,8.240723456314205,-10.11510337023139,10.99150860362053
1757614650336443600,85.37544360351562,7.750798251166939,-11.230011070269343,11.776343806815149
1757614650346398500,85.3853984375,7.033274835222959,-12.163072841382029,12.527104890972376
1757614650356353800,85.39535375976563,6.061897654241323,-12.76779346948862,12.839364667749404
1757614650366308600,85.40530859375,5.147817062452435,-12.77422671740651,12.347190222370624
1757614650376263700,85.415263671875,4.814641338896752,-12.033678399705886,11.159945600396394
1757614650386218800,85.42521875,5.041489023587108,-10.679315462338923,9.796922386711834
1757614650396173800,85.435173828125,5.275326421034336,-8.735945598825811,9.084930885931849
1757614650406128600,85.44512866210937,5.189526206412912,-6.318306364458799,8.822122245544195
1757614650416084700,85.45508471679688,4.606195572337508,-3.3310750985115765,8.44497001761794
1757614650426039800,85.46503979492188,3.388555519838631,0.599985416278243,7.5524939393937585
1757614650435994600,85.47499462890624,2.1090578538417817,5.967006955191493,5.559278971737623
1757614650445949700,85.48494970703125,3.1558520948573947,12.675393418210744,2.8190453213229776
1757614650455904800,85.49490478515625,6.093448976802826,19.65903065456152,2.447225686596334
1757614650465859600,85.50485961914063,7.424641466462612,24.91337975401878,5.005595872429013
1757614650475814700,85.51481469726562,6.5420683580935,26.740917837262156,5.81523760010004
1757614650485769700,85.52476977539062,6.242146669363975,24.00211246608496,3.662095397599041
1757614650495724800,85.53472485351563,6.05524637965858,21.173961755025385,1.4557441674798726
1757614650505679600,85.5446796875,4.507045170016586,21.26772608039379,-0.3861539380926638
1757614650515634700,85.554634765625,2.6440722007766366,24.151656546342373,-1.6415858880430458
1757614650525589800,85.56458984375,1.808177841474116,26.76253345674276,-1.2191364285364743
1757614650535544600,85.57454467773438,0.4492991802483796,26.36066296714544,1.9110345509670676
1757614650545499600,85.58449975585937,-1.1450625998049977,22.03773079420328,3.8463065943509336
1757614650555455700,85.59445581054688,-1.5117244133770464,16.125688185864686,1.4497827748574317
1757614650565410600,85.60441064453126,-0.7597942854404449,11.80966389261484,-2.090492269581556
1757614650575366000,85.61436596679688,-0.6071501933410763,8.888641421112418,-3.4585458786487577
1757614650585320700,85.62432080078125,-1.131292140866816,6.427709572985768,-3.611164544045925
1757614650595275500,85.63427563476563,-1.336812083107233,4.245160366475582,-3.569613513256609
1757614650605230600,85.64423071289062,-1.015294648641348,2.1711294023513794,-3.7005566456794736
1757614650615185700,85.654185546875,-0.8360837443947792,0.0684931059896945,-4.06271004191637
1757614650625140700,85.664140625,-0.6063561203539372,-2.0774065780371425,-4.635038512723147
1757614650635095600,85.67409545898437,-0.2774751713827252,-4.245327539736032,-5.333989622405171
1757614650645051000,85.68405078125,0.1334160984076559,-6.280579568132758,-5.975595335316657
1757614650655005700,85.69400561523437,0.8688032339528202,-8.046687907901406,-6.545588933435082
1757614650664960500,85.70396044921876,2.1161571644529698,-9.3527839502275,-7.028669387254118
1757614650674915800,85.71391577148438,3.98315018298924,-10.370465786266326,-7.568181922391057
1757614650684870700,85.72387060546875,5.507390963590145,-11.39455047508478,-8.927561226615309
1757614650694825700,85.73382568359375,6.104657768559456,-12.235401580011844,-10.995566354578733
1757614650704781800,85.74378173828126,6.168012927138805,-12.71037003904581,-13.156565992581845
1757614650714736600,85.75373657226562,6.365812796521187,-12.485510313302278,-14.676465529108048
1757614650724691700,85.76369165039063,6.7427253704726695,-11.420444794797897,-14.881042345279454
1757614650734646800,85.77364672851563,6.896919906884431,-9.850054257440569,-13.91359899661541
1757614650744601600,85.7836015625,6.747306268522143,-8.096538272741437,-12.30747195996642
1757614650754556700,85.793556640625,6.362548826289177,-6.41828649560213,-10.61203348570466
1757614650764511500,85.80351147460938,6.265071617877483,-5.151607102385163,-8.959055850553511
1757614650774466800,85.813466796875,6.421113243460655,-4.560988649389148,-7.607165440779924
1757614650784421600,85.82342163085937,6.507249558168649,-4.49145684800148,-6.474226994010806
1757614650794376700,85.83337670898437,6.227407365393638,-4.700927281433343,-5.515191992729902
1757614650804331800,85.84333178710938,5.437870268118381,-5.031128373092413,-4.593168040721118
1757614650814286600,85.85328662109374,3.877729029835761,-5.119827816286683,-3.908422566524148
1757614650824241700,85.86324169921875,1.6645368477806448,-3.7110704409092654,-4.251336424762011
1757614650834196500,85.87319653320313,0.4257157678261399,0.9251040901064872,-6.34374300353229
1757614650844152600,85.88315258789062,0.372971435110271,11.166738913798332,-10.0190371976614
1757614650854107600,85.89310766601562,1.1006664087176323,26.428558691763875,-12.38317338989973
1757614650864062700,85.90306274414063,3.44858211851716,34.396515592777725,-7.891682639628648
1757614650874017800,85.91301782226563,3.5318244653493163,27.615678226053717,-0.5619339180424809
1757614650883972600,85.92297265625,-0.0179679106280207,18.8593860047698,2.851293686237931
1757614650893927700,85.932927734375,-4.370729696905613,12.565167787384986,3.414365083877742
1757614650903882800,85.9428828125,-6.708459528255462,6.949659563425183,1.7644120572447777
1757614650913837600,85.95283764648437,-6.8833484776496885,3.509728368875384,0.1272226505950093
1757614650923792600,85.96279272460937,-5.625199012368917,2.420700960025191,-0.9025754474341868
1757614650933747700,85.97274780273438,-4.061754933148622,2.6997902886062857,-0.4890951840639114
1757614650943702800,85.98270288085938,-2.7462568562269207,3.979970383909345,1.8086580262064933
1757614650953657600,85.99265771484374,-2.098353504475951,5.661134249103069,4.380739634266496
1757614650963612700,86.00261279296875,-1.3413058873951431,7.113789802917838,6.305483123242855
1757614650973567700,86.01256762695313,-0.4570043477982282,7.478335062727331,7.034326390102505
1757614650983523600,86.02252368164062,0.5104004224210977,6.1453258790344,6.456896504503488
1757614650993478700,86.03247875976562,1.7273627217888832,3.735652508980035,5.455102557948232
1757614651003433700,86.04243383789063,2.990632598823309,1.4265683418780564,4.562324281907081
1757614651013388500,86.05238842773437,4.126005579262972,-0.4001753761172294,3.687698333150148
1757614651023343600,86.06234350585937,4.970155725735426,-1.7756699488401413,3.017951398381591
1757614651033298700,86.07229858398438,5.589152131953835,-2.834467639121413,2.56303963894844
1757614651043253800,86.08225366210938,6.085068686470389,-3.653591480886936,2.569648535694182
1757614651053208600,86.09220849609375,6.584698124030232,-4.187538198590278,3.0405609973356125
1757614651063163600,86.10216357421875,7.153509234365821,-4.558436626818776,3.802444364009797
1757614651073118700,86.11211865234375,7.689762475445866,-4.880073303750157,4.690469892565906
1757614651083073500,86.12207348632812,8.094258052849769,-5.070712195461988,5.681276288899779
1757614651093028900,86.13202880859374,8.239193762528895,-5.14887095541954,6.688083679702878
1757614651102983700,86.14198364257813,8.21320825740099,-5.067931040310859,7.508606282350421
1757614651112938800,86.15193872070313,8.183351463797688,-4.81805553125441,8.338619766920804
1757614651122893600,86.1618935546875,8.155345266497134,-4.604595735925436,9.31190015117526
1757614651132849700,86.171849609375,7.913442051494121,-4.485888107958436,10.69974567142725
1757614651142804700,86.1818046875,7.489120076113939,-4.683969716891646,12.29698914439678
1757614651152759800,86.191759765625,6.509152176919579,-5.45721209744811,13.618413104236126
1757614651162714600,86.20171459960937,4.622172893670201,-7.052461766251922,14.28175075648427
1757614651172669700,86.21166967773438,2.9000667772352693,-9.807982709908485,13.44594641355276
1757614651182624300,86.22162426757812,2.012197316023707,-12.470035680794716,11.62642797063589
1757614651192579300,86.23157934570312,2.1862948227792978,-13.299236095416545,10.646888525986672
1757614651202534100,86.2415341796875,3.1388042216837406,-12.561242138373853,9.953262118458747
1757614651212489200,86.2514892578125,4.091923276919126,-10.75421843537092,9.385691363573072
1757614651222444300,86.2614443359375,4.463752263996005,-8.349717499518395,8.454411215180158
1757614651232399000,86.27139916992188,4.125041118144988,-5.341863716781139,6.884786401498317
1757614651242354200,86.28135424804688,3.5425606711581348,-0.885383489614725,4.337558664187789
1757614651252309200,86.29130932617187,3.578592646265029,6.409282520413399,0.754399586790055
1757614651262264300,86.30126440429687,5.230270889255404,16.865179687988757,-2.856228804552555
1757614651272219100,86.31121923828125,7.931393887770175,25.374518425142764,-4.374954621124267
1757614651282174200,86.32117431640626,7.395630476033687,26.81604994287491,-3.4294600694179533
1757614651292130300,86.33113037109375,3.3078163879990576,24.591462506580356,-3.1247333184942603
1757614651302085000,86.34108520507813,-0.2335837149471044,22.76198381066322,-3.9152228941887617
1757614651312040400,86.35104052734376,-2.5857366239249706,23.055675665092465,-3.830062146514654
1757614651321995300,86.36099536132812,-4.020417545109987,23.78573882913589,-3.108800420825183
1757614651331950000,86.3709501953125,-5.406067601144313,23.80364390366077,-1.8532438946470615
1757614651341905200,86.3809052734375,-6.022073008853197,21.238235782015323,-0.764589849153906
1757614651351860200,86.39086010742187,-5.830130048805475,16.71477752959728,-0.6941505775325
1757614651361815300,86.40081518554688,-5.758633669346571,12.582497692370412,-1.354719787980616
1757614651371770000,86.41077001953126,-5.764264953231812,9.18752149183452,-1.979826347642392
1757614651381725200,86.42072509765624,-5.300854830044508,6.477713667082786,-2.065051538854837
1757614651391680300,86.43068017578125,-4.698649984151125,4.330716250947118,-1.9690141539879145
1757614651401635000,86.44063500976563,-4.082881892329454,2.422899931374192,-1.9159572481915357
1757614651411590400,86.45059033203125,-3.04727949193567,0.6991448786884545,-1.905457627617568
1757614651421545200,86.46054516601562,-1.6412901199668646,-1.0367670602589845,-2.085729292963445
1757614651431501000,86.4705009765625,-0.141848557318747,-2.847837992826104,-2.574004685077071
1757614651441456400,86.48045629882813,1.3700439061015843,-4.7344309071064,-3.367962229143083
1757614651451411200,86.4904111328125,2.4586311699688435,-6.719916157293319,-4.342269618357718
1757614651461366300,86.5003662109375,3.0324747215136885,-8.846685024392604,-5.302573908922076
1757614651471321000,86.51032104492188,3.1943925456538795,-10.99935639451146,-6.202817698538303
1757614651481276200,86.52027612304687,3.085042236357927,-13.029890746736523,-6.819384831783175
1757614651491231200,86.53023120117187,2.8862802439451216,-14.713224941706656,-7.144741406020522
1757614651501186000,86.54018603515625,2.857211093588173,-15.758001705420016,-7.216713586297631
1757614651511141400,86.55014135742188,3.104855190330744,-15.985537372374534,-7.203370120599866
1757614651521096200,86.56009619140625,3.6002535661920905,-15.279037454748153,-7.231385085728764
1757614651531051300,86.57005126953125,3.982099797153473,-13.658622365027666,-7.469724470770359
1757614651541006300,86.58000634765625,4.118970273798704,-11.376152064085009,-7.792708470657467
1757614651550961200,86.58996118164063,4.058014285315573,-8.837171346116065,-7.952715492740273
1757614651560916200,86.59991625976562,4.309438192857802,-6.44135757458806,-7.738005405089258
1757614651570871000,86.60987109375,5.0287715808331965,-4.600270858463645,-7.29073860745132
1757614651580827100,86.6198271484375,5.89901303089559,-3.724635440403223,-6.666362846282124
1757614651590782200,86.6297822265625,6.495808126699924,-3.877000423300266,-5.908527878215908
1757614651600737300,86.6397373046875,6.52817485729754,-4.882426588878035,-5.242752185165882
1757614651610692400,86.6496923828125,6.0191971611559385,-6.325024859058857,-5.16994706119597
1757614651620647200,86.65964721679687,4.591490170636773,-7.311133745226264,-5.938972700840234
1757614651630602200,86.66960229492187,2.1548761866867543,-6.116490245172381,-7.8852347786635155
1757614651640557300,86.67955737304688,0.7249450903773308,-0.4888660514831542,-11.843866606467962
1757614651650512100,86.68951220703126,1.602802860662341,12.21043781914711,-17.54147969766259
1757614651660467200,86.69946728515625,3.336577495320141,26.80026785185337,-18.01247106975913
1757614651670422300,86.70942236328125,4.976687173330784,30.45859396004677,-8.857655331218242
1757614651680377300,86.71937744140625,3.069242025157809,25.547981141126154,0.0608805851593613
1757614651690332200,86.72933227539062,-0.7567427889153361,19.66469116454124,3.3291935225486755
1757614651700287000,86.73928686523438,-3.95439170601666,13.592857807219028,3.78081500826478
1757614651710242300,86.7492421875,-5.868938210627436,8.715346462911366,2.4567305970445275
1757614651720198100,86.7591982421875,-5.629170838609338,6.295537483289838,1.0999990308500829
1757614651730153200,86.7691533203125,-4.394926565051079,6.036496086481213,0.5360197245851159
1757614651740108300,86.7791083984375,-2.6821424037128687,7.043606844145059,1.727145425776392
1757614651750063000,86.78906298828124,-1.3310720781505108,8.258732575735449,4.108742894294858
1757614651760018200,86.79901806640625,-0.3457674941033125,9.062017627856134,6.0833268112391226
1757614651769973200,86.80897314453125,0.3148743431895971,8.688899770012497,6.775078072544932
1757614651779928300,86.81892822265625,0.864995366102457,6.983758816903829,6.38283465847075
1757614651789883100,86.82888305664062,1.575560633471608,4.68959574007988,5.54255638499558
1757614651799838200,86.83883813476562,2.528970780608058,2.784003526297212,4.86913865275979
1757614651809793300,86.84879321289063,3.5447242789328097,1.3161615092664956,4.298809539076686
1757614651819748000,86.858748046875,4.466046512413024,0.0584668020159006,3.831745569556951
1757614651829703400,86.86870336914062,5.17742426520884,-1.0591916580349203,3.570242751070857
1757614651839658200,86.878658203125,5.738276525494456,-2.0149521676898003,3.839668179249763
1757614651849613300,86.88861328125,6.215298994448781,-2.8386504777640105,4.361108466601372
1757614651859568000,86.89856811523437,6.821428904831409,-3.603728256565333,4.939903210812807
1757614651869524200,86.90852416992188,7.442088860347867,-4.328915339004993,5.631476777464151
1757614651879479300,86.91847924804688,8.07987822984159,-5.132112128320336,6.419702792140841
1757614651889434400,86.92843432617188,8.667901405647397,-6.09137217052877,7.199028876525163
1757614651899389200,86.93838916015625,9.047622022756933,-6.9798524571150535,7.943666509366035
1757614651909344300,86.94834423828125,9.134802878081798,-7.664056956303119,8.730623527020215
1757614651919299000,86.95829907226563,8.76017461567521,-8.224320018523931,9.51522375241518
1757614651929254400,86.96825439453124,8.105898806282877,-8.788612774652242,10.335466953599452
1757614651939209200,86.97820922851562,7.407908942848444,-9.475057161721589,11.47913079252243
1757614651949164000,86.9881640625,6.886700710687041,-10.366792650711536,12.859618351227043
1757614651959119400,86.99811938476563,6.319533860427141,-11.389614772248269,13.882726888489724
1757614651969074200,87.00807421875,5.636497820496559,-12.207697580528258,13.949320298337936
1757614651979029200,87.018029296875,5.0167543953031295,-12.36718788526058,13.01319329443574
1757614651988984000,87.02798413085938,4.737276944187284,-11.653533419704436,11.49835922460556
1757614651998939400,87.037939453125,4.824102994725108,-10.29209075320959,9.952247388458252
1757614652008894200,87.04789428710937,4.709963405326008,-8.454433427011967,8.662705590569972
1757614652018849000,87.05784912109375,3.971488971289992,-6.2699535447001455,7.343819040253758
1757614652028805400,87.06780541992188,2.4882412953346966,-3.4048289015084503,5.811252329856157
1757614652038760200,87.07776025390625,0.6270400119423866,1.3290566466748714,3.872394683070481
1757614652048715000,87.08771508789063,-0.0633551585793495,9.509883560431003,1.4064631269603969
1757614652058670300,87.09767041015625,3.198500857755542,20.2134636954546,-1.062779818719998
1757614652068625200,87.10762524414062,8.154930255955458,29.02514287291765,1.5582240064844488
1757614652078580200,87.11758032226562,7.7130317073524,32.140576740407944,8.939987577468155
1757614652088535300,87.12753540039063,4.424641904357076,26.067901671564577,7.379747847247123
1757614652098490000,87.13748999023437,2.992491378432512,20.03853967474699,1.2234557530403136
1757614652108445200,87.14744506835937,1.3391910871982573,19.003060316210984,-3.111371148096025
1757614652118400300,87.15740014648438,-0.1481561330303549,20.386648179018497,-4.679221645581722
1757614652128355300,87.16735522460938,-0.9322302887246012,21.45730523391962,-2.972074613347649
1757614652138310100,87.17731005859375,-1.4918646976530552,20.324396597766874,0.2504201373271644
1757614652148265200,87.18726513671875,-1.079497071699798,17.40888090698719,1.39511755708158
1757614652158220300,87.19722021484375,-0.5341100915715098,13.75505327925682,-0.7837859864026308
1757614652168175000,87.20717504882812,-0.5522340695440768,10.900491531133651,-2.278208844105899
1757614652178131700,87.21713159179687,-0.5460273238584399,8.791219157758354,-2.728175840613246
1757614652188086800,87.22708666992187,-0.4319990858793258,7.008830714318155,-2.8843226801365613
1757614652198041900,87.23704174804688,-0.2758350029602646,5.461922759357094,-2.803372243633866
1757614652207997000,87.24699682617188,-0.2014738817200064,4.1645273253589865,-2.6296219428807497
1757614652217951700,87.25695166015625,-0.188848501163721,2.9215421114623545,-2.4558929771766067
1757614652227906800,87.26690673828125,-0.2787245869219303,1.4395090719938275,-2.335330368992686
1757614652237862000,87.27686181640625,-0.4939540222719311,-0.357571913665533,-2.334483689035475
1757614652247816700,87.28681665039062,-0.6070999244585633,-2.307752626237273,-2.609178874310851
1757614652257771800,87.29677172851562,-0.360446007797122,-4.217192747619748,-2.9739062126889824
1757614652267726800,87.30672680664063,0.3183516639113426,-6.129964059251546,-3.358217956981062
1757614652277682000,87.31668188476563,1.2784963799998164,-8.043483558902144,-3.9634254918217655
1757614652287636700,87.32663671875,2.1147031662523745,-9.916987859028575,-4.981584882244468
1757614652297591800,87.336591796875,2.5922528739511965,-11.756280677473544,-6.218354874888062
1757614652307547000,87.346546875,2.883512240536511,-13.57062376357913,-7.574120080268383
1757614652317502700,87.35650268554687,3.516018408930301,-15.187531721961497,-8.988682342532277
1757614652327457800,87.36645776367187,4.543345732931792,-16.258445966494083,-10.501088892954588
1757614652337412900,87.37641284179688,5.607786105275154,-16.286397803258893,-11.94849836280942
1757614652347367700,87.38636767578124,6.229395908862352,-14.94813610586524,-12.98492113967538
1757614652357323000,87.39632299804687,6.43121202814877,-12.36584816108942,-13.22669692890644
1757614652367277800,87.40627783203125,6.542559356480837,-9.318962344646453,-13.053650392508509
1757614652377233000,87.41623291015625,6.561677898448705,-6.367338983175158,-12.66809157076478
1757614652387188000,87.42618798828126,6.5912973761647935,-3.8539381121426817,-11.92018295342922
1757614652397142800,87.43614282226562,6.6248214601039885,-2.430095395836234,-10.66973982474208
1757614652407097900,87.44609790039063,6.451276911056041,-2.2776930035382508,-9.074295510149
1757614652417052700,87.456052734375,5.893730706578493,-3.111599988415837,-7.699048190185427
1757614652427008000,87.46600805664062,4.852917001277208,-4.23531643333137,-6.967703169637918
1757614652436962800,87.475962890625,3.0916476259723304,-4.7078468515634535,-6.871528860518336
1757614652446918000,87.48591796875,0.4463754017561674,-2.663746915322542,-7.980190944164991
1757614652456873000,87.495873046875,-1.158890341888368,4.8404544100672,-11.459617113757131
