time,seconds_elapsed,z,y,x
1757863026954822000,0.00882177734375,0.03374624624848366,-0.09590362757444382,0.03741847723722458
1757863026964807000,0.018806884765625,0.029748573899269104,-0.07743833214044571,0.040105875581502914
1757863026974791700,0.028791748046875,0.022488264366984367,-0.04904024675488472,0.031185083091259003
1757863026984776700,0.038776611328125,0.010676613077521324,-0.01841815561056137,0.01884506084024906
1757863026994763000,0.048762939453125,-0.00032410668791271746,-0.0004474110610317439,0.008437426760792732
1757863027004747800,0.058747802734375,0.0016029566759243608,-0.013394368812441826,0.008215852081775665
1757863027014732800,0.06873291015625,0.01392939779907465,-0.05711468309164047,0.01798379421234131
1757863027024718800,0.07871875,0.022577481344342232,-0.10755602270364761,0.021793978288769722
1757863027034703600,0.08870361328125,0.02732962556183338,-0.10923061519861221,0.02015719935297966
1757863027044688600,0.098688720703125,0.015851134434342384,-0.07498876005411148,0.014208230189979076
1757863027054674000,0.108673828125,-0.005936452187597752,-0.03154487535357475,0.006360161118209362
1757863027064659700,0.11865966796875,-0.024503745138645172,-0.01452754344791174,0.011818310245871544
1757863027074644700,0.128644775390625,-0.0018927085911855102,-0.04434722289443016,0.031692683696746826
1757863027084629800,0.138629638671875,0.026807112619280815,-0.04725486412644386,0.05108528956770897
1757863027094614800,0.14861474609375,0.03772607445716858,-0.046548325568437576,0.0500091053545475
1757863027104600800,0.158600830078125,0.039726372808218,-0.04020867124199867,0.03711940348148346
1757863027114585900,0.1685859375,0.036008067429065704,-0.026024144142866135,0.015676431357860565
1757863027124571000,0.17857080078125,0.01489559281617403,-0.004267449490725994,0.002037850907072425
1757863027134556700,0.188556640625,-0.019088739529252052,0.028023378923535347,0.000015712650565546937
1757863027144541700,0.198541748046875,-0.0396462120115757,0.04162627458572388,0.0070619042962789536
1757863027154526700,0.208526611328125,-0.03127403184771538,0.030701186507940292,0.01780509576201439
1757863027164512000,0.218511962890625,-0.017855962738394737,0.01950073055922985,0.0345475897192955
1757863027174497800,0.228497802734375,-0.009712016209959984,0.02864682488143444,0.03795350715517998
1757863027184482800,0.23848291015625,-0.005031243897974491,0.024643560871481895,0.024293622002005577
1757863027194467800,0.2484677734375,-0.00330285239033401,0.016094546765089035,0.013218866661190987
1757863027204452900,0.258452880859375,-0.000988032785244286,0.008704009465873241,0.012031362392008305
1757863027214439000,0.26843896484375,0.022837670519948006,-0.03867975249886513,0.020012058317661285
1757863027224424000,0.278423828125,0.03825923800468445,-0.08087274432182312,0.03544560819864273
1757863027234409000,0.288408935546875,0.039195604622364044,-0.07516452670097351,0.0524914376437664
1757863027244393700,0.298393798828125,0.03393932431936264,-0.03630074858665466,0.05032682046294212
1757863027254379800,0.3083798828125,0.028270786628127098,-0.0070579093880951405,0.03548156097531319
1757863027264364800,0.31836474609375,0.016381103545427322,0.012433766387403011,0.01732226461172104
1757863027274349800,0.328349853515625,-0.0032985913567245007,0.01865118183195591,0.009401757270097733
1757863027284335900,0.3383359375,-0.017080184072256088,0.0029553098138421774,0.01158901210874319
1757863027294321000,0.34832080078125,-0.022604111582040787,-0.01727086678147316,0.016518788412213326
1757863027304305700,0.3583056640625,-0.01727406121790409,-0.03838920220732689,0.013954964466392994
1757863027314290700,0.368290771484375,-0.016981912776827812,-0.037810761481523514,0.013856959529221058
1757863027324277000,0.378277099609375,-0.020603811368346214,-0.010991398245096207,0.009666475467383862
1757863027334262000,0.388261962890625,-0.009291502647101879,0.012646286748349667,0.014812768436968327
1757863027344246800,0.398246826171875,0.017229853197932243,-0.007595335599035025,0.029917685315012932
1757863027354231800,0.408231689453125,0.05978769809007645,-0.0624157078564167,0.03995833545923233
1757863027364217900,0.4182177734375,0.09818115830421448,-0.10735815018415451,0.04020973667502403
1757863027374202600,0.42820263671875,0.11532792448997498,-0.12814092636108398,0.034274350851774216
1757863027384188000,0.43818798828125,0.09579337388277054,-0.1209099069237709,0.020472783595323563
1757863027394174000,0.448174072265625,0.04772810637950897,-0.0743597149848938,0.004345479886978865
1757863027404158700,0.45815869140625,-0.011465175077319145,-0.0092334458604455,-0.010843592695891857
1757863027414143700,0.468143798828125,-0.05982178822159767,0.04116874188184738,-0.019455723464488983
1757863027424128800,0.478128662109375,-0.074774369597435,0.05193989723920822,-0.01404551137238741
1757863027434115000,0.488114990234375,-0.0602436326444149,0.025432389229536057,0.005616340320557356
1757863027444100000,0.49810009765625,-0.027782095596194267,-0.01751694269478321,0.027512850239872932
1757863027454085000,0.508085205078125,0.005559881217777729,-0.04776299372315407,0.03235873952507973
1757863027464070100,0.518070068359375,0.028689967468380928,-0.04844769462943077,0.025083249434828758
1757863027474056200,0.52805615234375,0.028013791888952255,-0.028083033859729767,0.010179134085774422
1757863027484041200,0.538041259765625,0.011903530918061733,0.0062613580375909805,-0.0025393241085112095
1757863027494026200,0.548026123046875,-0.01332592498511076,0.029107552021741867,-0.009118929505348206
1757863027504012000,0.558011962890625,-0.005813946947455406,-0.0037063213530927896,-0.004422445315867662
1757863027513997000,0.5679970703125,0.038002509623765945,-0.0713394284248352,0.014733672142028809
1757863027523982000,0.577982177734375,0.0693572387099266,-0.11277101933956146,0.037470411509275436
1757863027533967400,0.58796728515625,0.0655483826994896,-0.10988681763410568,0.03639262914657593
1757863027543953200,0.597953125,0.044433511793613434,-0.0930098369717598,0.019226690754294395
1757863027553938200,0.607938232421875,0.03105725161731243,-0.04525802657008171,0.002424541860818863
1757863027563923200,0.617923095703125,0.007138603366911411,0.017668476328253746,-0.00908297672867775
1757863027573908000,0.627907958984375,-0.015475096181035042,0.0359092652797699,-0.009633186273276806
1757863027583894300,0.637894287109375,-0.003888747887685895,0.004625644534826279,-0.002758768619969487
1757863027593879300,0.64787939453125,0.017846109345555305,-0.03815004974603653,0.005744970869272947
1757863027603864300,0.6578642578125,0.026510169729590416,-0.06679660826921463,0.00908484123647213
1757863027613850000,0.66785009765625,0.01770123280584812,-0.06573693454265594,0.007327155210077763
1757863027623835100,0.677835205078125,-0.0025308020412921906,-0.031267642974853516,0.0010394317796453834
1757863027633820200,0.687820068359375,-0.02491813339293003,0.00863343570381403,-0.005154548212885857
1757863027643805200,0.69780517578125,-0.03171638399362564,0.026575418189167976,-0.00812237523496151
1757863027653791200,0.707791259765625,-0.012248676270246506,0.011486480012536049,0.002195776207372546
1757863027663776300,0.7177763671875,0.02322862297296524,-0.03147190436720848,0.01260846946388483
1757863027673761000,0.727760986328125,0.056299757212400436,-0.07393041998147964,0.01847488060593605
1757863027683746000,0.73774609375,0.06962328404188156,-0.07915686815977097,0.01661386340856552
1757863027693732400,0.747732421875,0.05546538904309273,-0.04656803607940674,0.010300042107701302
1757863027703717000,0.757717041015625,0.015750467777252197,0.007110373582690954,0.0038575888611376286
1757863027713702100,0.7677021484375,-0.014584269374608994,0.0474545992910862,-0.0032059133518487215
1757863027723687200,0.777687255859375,-0.022044582292437553,0.056587111204862595,-0.005403553601354361
1757863027733673200,0.787673095703125,-0.012192750349640846,0.030362432822585106,0.0006559365428984165
1757863027743658000,0.797657958984375,-0.001204547705128789,-0.006134857889264822,0.0117338877171278
1757863027753643000,0.80764306640625,0.019659189507365227,-0.04424522444605827,0.014966965653002262
1757863027763629300,0.81762939453125,0.03693990781903267,-0.05706248804926872,0.014900119975209236
1757863027773614000,0.827614013671875,0.03825417906045914,-0.055031027644872665,0.009819873608648777
1757863027783599000,0.83759912109375,0.025682460516691208,-0.033737991005182266,0.003939614165574312
1757863027793584000,0.847584228515625,0.011836419813334942,-0.006720220670104027,0.0013086773687973619
1757863027803570200,0.857570068359375,-0.004414988216012716,0.016953416168689728,-0.0011499529937282205
1757863027813555200,0.86755517578125,-0.01255067903548479,0.020117785781621933,-0.0015342470724135637
1757863027823540200,0.877540283203125,-0.0178181454539299,0.013648700900375843,-0.0029047098942101
1757863027833525200,0.887525146484375,-0.010445983149111271,0.00045566685730591416,-0.0005944175645709038
1757863027843511000,0.897510986328125,0.0016357135027647018,-0.009534649550914764,0.001431182725355029
1757863027853496000,0.90749609375,0.010491256602108479,-0.01727619208395481,0.0016812535468488932
1757863027863481000,0.917481201171875,0.019288742914795876,-0.030352845788002014,-0.00009134642459684983
1757863027873467100,0.927467041015625,0.026447053998708725,-0.03266393765807152,0.0008277104352600873
1757863027883452200,0.9374521484375,0.02100089006125927,-0.023805996403098106,0.0026048377621918917
1757863027893437200,0.947437255859375,0.008326905779540539,-0.00017896443023346364,0.0009294432238675654
1757863027903422200,0.957422119140625,-0.005273059010505676,0.015502260997891426,-0.005856823641806841
1757863027913408000,0.967407958984375,-0.010046775452792645,0.0015326491557061672,-0.0073194317519664764
1757863027923393300,0.977393310546875,-0.008360727690160275,-0.03483787551522255,-0.004996622912585735
1757863027933378300,0.98737841796875,0.0026770094409585,-0.04476454108953476,0.0007518103811889887
1757863027943363000,0.997363037109375,0.006878145970404148,-0.033072732388973236,0.0006514092092402279
1757863027953349000,1.00734912109375,0.001987517112866044,0.0021470405627042055,-0.004798217210918665
1757863027963334100,1.017334228515625,-0.0027830032631754875,0.04210537672042847,-0.011591941118240356
1757863027973319200,1.027319091796875,0.007095193490386009,0.045940592885017395,-0.011094995774328709
1757863027983305200,1.03730517578125,0.016561666503548622,0.017291106283664703,0.003961185924708843
1757863027993290200,1.047290283203125,0.016763001680374146,-0.011487811803817749,0.014973889105021954
1757863028003275300,1.057275146484375,0.01429238636046648,-0.0154956029728055,0.012899287045001984
1757863028013260000,1.067260009765625,0.00920042209327221,-0.0052259210497140884,-0.005160407163202763
1757863028023246000,1.07724609375,-0.007526359520852566,0.01453153882175684,-0.022789468988776207
1757863028033231400,1.0872314453125,-0.029449235647916794,0.036615535616874695,-0.030246052891016006
1757863028043216100,1.097216064453125,-0.045876145362854004,0.049974482506513596,-0.029739253222942352
1757863028053201200,1.107201171875,-0.04536375403404236,0.05048607662320137,-0.02478311024606228
1757863028063187200,1.117187255859375,-0.00506959343329072,0.014198909513652325,-0.009425992146134377
1757863028073172000,1.127171875,0.02726863883435726,-0.022006498649716377,0.007414773106575012
1757863028083157000,1.137156982421875,0.02736930549144745,-0.04483964294195175,0.01798432692885399
1757863028093143300,1.147143310546875,0.03127589821815491,-0.04754834249615669,0.011969044804573059
1757863028103128300,1.15712841796875,0.02636502869427204,-0.00358754419721663,0.0000125168571685208
1757863028113113000,1.167113037109375,0.002576075727120042,0.031076958402991295,-0.00845473725348711
1757863028123098000,1.17709814453125,-0.022967899218201637,0.05555114150047302,-0.009121859446167946
1757863028133084200,1.187084228515625,-0.04752863571047783,0.07918776571750641,-0.0051992894150316715
1757863028143069200,1.197069091796875,-0.0488080196082592,0.0687955766916275,0.002261023735627532
1757863028153054200,1.20705419921875,-0.015002917498350143,0.04458930715918541,0.004190484061837196
1757863028163039200,1.217039306640625,0.010673683136701584,0.00980309583246708,0.0025984463281929493
1757863028173025000,1.22702490234375,0.020546553656458855,-0.008509598672389984,-0.0005320995696820319
1757863028183010000,1.237010009765625,0.024653680622577667,0.004893824923783541,0.0027212179265916348
1757863028192995000,1.2469951171875,0.022787338122725487,0.022245651111006737,0.005123921670019627
1757863028202980000,1.25697998046875,0.01709110289812088,0.01013652328401804,0.00914263166487217
1757863028212966100,1.266966064453125,0.015244732610881329,-0.0010037453612312675,0.011551727540791035
1757863028222951200,1.276951171875,0.011389806866645813,0.004328702110797167,0.0133288549259305
1757863028232936200,1.286936279296875,0.00618172949180007,0.014837801456451416,0.009336776100099087
1757863028242922000,1.296921875,0.010005496442317963,0.01525938045233488,0.0059963734820485115
1757863028252907000,1.306906982421875,0.017042633146047592,0.007586813066154718,0.0023395870812237263
1757863028262892300,1.316892333984375,0.027522703632712364,-0.013305419124662876,0.00495081627741456
1757863028272877300,1.326877197265625,0.031974710524082184,-0.023151658475399017,0.0065535069443285465
1757863028282863000,1.336863037109375,0.026283003389835358,-0.023066969588398933,0.00785419438034296
1757863028292848000,1.34684814453125,0.01110245194286108,-0.0020905814599245787,0.009139702655375004
1757863028302833200,1.356833251953125,0.0005701828049495816,0.010625213384628296,0.00836578756570816
1757863028312818200,1.366818115234375,0.0019979034550487995,0.015810389071702957,0.013670538552105427
1757863028322804200,1.37680419921875,0.001178448786959052,0.01648230478167534,0.018569955602288246
1757863028332789200,1.386789306640625,0.0020208065398037434,0.006535930093377829,0.01973615400493145
1757863028342774300,1.396774169921875,0.008094677701592445,0.0020485036075115204,0.017062339931726456
1757863028352760000,1.406760009765625,0.014226606115698814,0.012060125358402729,0.010460896417498589
1757863028362745000,1.4167451171875,0.015969112515449524,0.01062148530036211,0.005989182740449905
1757863028372730400,1.42673046875,0.018378207460045815,0.001175252953544259,0.009592439979314804
1757863028382715100,1.436715087890625,0.02063976414501667,-0.014400777406990528,0.014683871529996395
1757863028392701200,1.446701171875,0.008106928318738937,-0.018195249140262604,0.015748336911201477
1757863028402686200,1.456686279296875,-0.006884803995490074,0.0015510249650105834,0.01245187595486641
1757863028412671000,1.4666708984375,-0.010946923866868019,0.007749798707664013,0.009612679481506348
1757863028422656000,1.476656005859375,0.008360727690160275,-0.02293487638235092,0.005624596029520035
1757863028432642800,1.486642822265625,0.021462414413690567,-0.0611773356795311,0.008385495282709599
1757863028442627600,1.496627685546875,0.03051476553082466,-0.06873378902673721,0.010667025111615658
1757863028452612900,1.50661279296875,0.033485256135463715,-0.0317041352391243,0.01456003449857235
1757863028462599000,1.516598876953125,0.01510065607726574,0.006967362016439438,0.007275223266333342
1757863028472583700,1.526583740234375,-0.0003683151735458523,0.02996375784277916,0.0021201425697654486
1757863028482568700,1.536568603515625,-0.0020785972010344267,0.029766950756311417,-0.001606418751180172
1757863028492553700,1.5465537109375,-0.0029119004029780626,0.0015278555219992995,-0.003567037871107459
1757863028502539800,1.556539794921875,-0.004328702110797167,-0.018998192623257637,-0.006146309431642294
1757863028512524800,1.56652490234375,-0.004548412747681141,-0.004156395327299833,-0.011185809038579464
1757863028522509800,1.576509765625,-0.011561314575374126,0.02382703498005867,-0.016476178541779518
1757863028532494800,1.586494873046875,-0.024176975712180138,0.045472677797079086,-0.021506624296307564
1757863028542480600,1.596480712890625,-0.012806076556444168,0.01907595619559288,-0.017040768638253212
1757863028552465700,1.606465576171875,0.009349559433758259,-0.0182876605540514,-0.0059657469391822815
1757863028562451000,1.616450927734375,0.015741677954792976,-0.04572940617799759,-0.003456516657024622
1757863028572436700,1.626436767578125,0.022115422412753105,-0.04778216779232025,-0.009785518981516361
1757863028582421800,1.636421875,0.023140473291277885,-0.024587634950876236,-0.021334050223231316
1757863028592406800,1.64640673828125,0.0096273273229599,0.0020152139477431774,-0.02719060890376568
1757863028602391800,1.656391845703125,-0.00879002921283245,0.013818876817822456,-0.029591714963316917
1757863028612377900,1.6663779296875,-0.023088274523615837,0.024879783391952515,-0.025501631200313568
1757863028622363000,1.67636279296875,-0.03623044118285179,0.03399099037051201,-0.028488365933299065
1757863028632348000,1.686347900390625,-0.04117673262953758,0.03207271546125412,-0.034216560423374176
1757863028642332700,1.696332763671875,-0.04650438576936722,0.04489104077219963,-0.035950277000665665
1757863028652318700,1.706318603515625,-0.03495825082063675,0.03588023781776428,-0.026611637324094772
1757863028662303700,1.7163037109375,0.0043902210891246796,-0.015220231376588345,-0.017128387466073036
1757863028672288800,1.726288818359375,0.02515941485762596,-0.05176465958356857,-0.010724017396569252
1757863028682273800,1.736273681640625,0.026932282373309135,-0.04486867040395737,-0.010459299199283123
1757863028692259800,1.746259765625,0.02401904948055744,-0.0033750240691006184,-0.0203327015042305
1757863028702244900,1.756244873046875,0.013457751832902431,0.026190059259533882,-0.03080158866941929
1757863028712229600,1.766229736328125,0.00169563468080014,0.02586515247821808,-0.03707066923379898
1757863028722216000,1.7762158203125,-0.0028706213925033808,0.009273659437894821,-0.030899858102202415
1757863028732201000,1.786200927734375,-0.011654525063931942,-0.004255465231835842,-0.026098178699612617
1757863028742185700,1.796185791015625,-0.027172232046723366,-0.007684551179409027,-0.025673406198620796
1757863028752170800,1.806170654296875,-0.034322820603847504,0.011068097315728664,-0.03105964884161949
1757863028762156800,1.81615673828125,-0.02526833862066269,0.03909866511821747,-0.03656600043177605
1757863028772141600,1.8261416015625,-0.005915413144975901,0.04655631631612778,-0.037584394216537476
1757863028782126600,1.836126708984375,0.01817421056330204,0.02046905644237995,-0.030117688700556755
1757863028792113000,1.84611279296875,0.03710848465561867,-0.022280804812908173,-0.01835956610739231
1757863028802098000,1.856097900390625,0.03212597966194153,-0.04754701256752014,-0.006372411735355854
1757863028812082700,1.866082763671875,0.003855990944430232,-0.04021186754107475,-0.00609224708750844
1757863028822067700,1.876067626953125,-0.03295635059475899,0.005690642632544041,-0.020609138533473015
1757863028832053800,1.8860537109375,-0.06031261011958122,0.048766475170850754,-0.03744164854288101
1757863028842038800,1.896038818359375,-0.05656048282980919,0.06634360551834106,-0.045516885817050934
1757863028852023800,1.90602392578125,-0.026520557701587677,0.05013294145464897,-0.0417165532708168
1757863028862008800,1.9160087890625,0.0018453042721375823,0.011504855938255787,-0.029575468972325325
1757863028871994600,1.92599462890625,0.01980219967663288,-0.024769794195890427,-0.017775801941752434
1757863028881979600,1.935979736328125,0.0315810963511467,-0.03985100984573364,-0.012684635818004608
1757863028891964700,1.945964599609375,0.023993749171495438,-0.034388601779937744,-0.013338974677026272
1757863028901950000,1.955949951171875,-0.002683667466044426,-0.02665424719452858,-0.01696220599114895
1757863028911935700,1.965935791015625,-0.028924059122800827,-0.012679043225944042,-0.03027534857392311
1757863028921920800,1.975920654296875,-0.04391312971711159,0.006213154643774033,-0.038354046642780304
1757863028931905800,1.98590576171875,-0.05351089686155319,0.019891949370503426,-0.04559917747974396
1757863028941891600,1.9958916015625,-0.041249435395002365,0.012834838591516018,-0.04634938761591911
1757863028951876900,2.005876953125,-0.008861668407917023,-0.014607705175876617,-0.03598383441567421
1757863028961862000,2.01586181640625,0.013830328360199928,-0.04285665228962898,-0.02208532765507698
1757863028971847000,2.025846923828125,0.020326577126979828,-0.0536925233900547,-0.012314722873270512
1757863028981832700,2.035832763671875,0.011057977564632893,-0.029213013127446175,-0.012626579031348228
1757863028991817700,2.045817626953125,-0.006833671126514673,0.0030860709957778454,-0.016875652596354485
1757863029001802800,2.055802734375,-0.026145050302147865,0.028607143089175224,-0.022531408816576004
1757863029011787800,2.065787841796875,-0.03271959722042084,0.028607409447431564,-0.023395337164402008
1757863029021773800,2.07577392578125,-0.02165602706372738,0.012826582416892052,-0.014554708264768124
1757863029031758800,2.0857587890625,-0.005855225957930088,-0.008445682935416698,-0.012714463286101818
1757863029041744000,2.095743896484375,0.014130999334156513,-0.024866467341780663,-0.014288125559687614
1757863029051729700,2.105729736328125,0.024052871391177177,-0.02237694524228573,-0.01774224452674389
1757863029061715000,2.11571484375,0.022820094600319862,-0.021858427673578262,-0.013193033635616302
1757863029071700000,2.125699951171875,0.015960590913891792,-0.030223149806261063,-0.005321528296917677
1757863029081684700,2.135684814453125,0.010598582215607166,-0.03615400940179825,-0.002754773711785674
1757863029091670800,2.1456708984375,0.007844340987503529,-0.016276175156235695,-0.004269313532859087
1757863029101655800,2.15565576171875,0.008074704557657242,0.010190319269895554,-0.013492106460034847
1757863029111640600,2.165640625,0.01104759145528078,0.03882436081767082,-0.02058410458266735
1757863029121625600,2.17562548828125,0.0059929112903773785,0.05447682365775108,-0.022099442780017853
1757863029131612000,2.18561181640625,0.0013259878614917397,0.054554589092731476,-0.016447948291897774
1757863029141596700,2.1955966796875,0.002822684356942773,0.04588945955038071,-0.008957808837294579
1757863029151581700,2.205581787109375,0.012743225321173668,0.0332823246717453,-0.005460012704133987
1757863029161567700,2.215567626953125,0.03021489456295967,0.0127570740878582,-0.007891478948295116
1757863029171553000,2.225552978515625,0.043963197618722916,-0.017855430021882057,-0.007506385911256075
1757863029181537800,2.235537841796875,0.04499277472496033,-0.029873210936784744,-0.009850766509771347
1757863029191522800,2.245522705078125,0.03538116067647934,-0.021407553926110268,-0.010135458782315254
1757863029201508900,2.2555087890625,0.02160915546119213,-0.010092315264046192,-0.015904931351542473
1757863029211493600,2.26549365234375,0.009297894313931465,0.008101602084934711,-0.02034441940486431
1757863029221478700,2.275478759765625,0.007903729565441608,0.01152536179870367,-0.017660219222307205
1757863029231463700,2.285463623046875,0.013770140707492828,0.0022090920247137547,-0.015356052666902542
1757863029241449700,2.29544970703125,0.026308303698897362,-0.020479442551732063,-0.01561411377042532
1757863029251434800,2.305434814453125,0.035475168377161026,-0.04272269457578659,-0.016825318336486816
1757863029261419800,2.315419677734375,0.03280188888311386,-0.057965297251939774,-0.015519305132329464
1757863029271405800,2.32540576171875,0.02659512497484684,-0.055032357573509216,-0.017013603821396828
1757863029281390600,2.335390625,0.008504538796842098,-0.034688472747802734,-0.017601896077394485
1757863029291375900,2.3453759765625,-0.00902918167412281,-0.008654740639030933,-0.019687684252858162
1757863029301361000,2.35536083984375,-0.010969294235110283,-0.0002258360618725419,-0.01575978845357895
1757863029311346700,2.3653466796875,-0.0009622001089155674,-0.01641945354640484,-0.009372728876769543
1757863029321331700,2.375331787109375,0.011320032179355621,-0.04014661908149719,0.0030711572617292404
1757863029331316700,2.385316650390625,0.014056163839995861,-0.045816488564014435,0.011143997311592102
1757863029341301800,2.3953017578125,0.016516126692295074,-0.04706151783466339,0.008561796508729458
1757863029351287800,2.405287841796875,0.013087306171655655,-0.0389532595872879,-0.0027539748698472977
1757863029361272800,2.41527294921875,0.0012604740913957357,-0.02700791507959366,-0.009345831349492073
1757863029371257900,2.4252578125,-0.0218333937227726,0.005763346794992685,-0.0007115966291166842
1757863029381243600,2.43524365234375,-0.03289642930030823,0.02546035312116146,0.008607869036495686
1757863029391228700,2.445228759765625,-0.02389068529009819,0.014583736658096313,0.01549640204757452
1757863029401214000,2.4552138671875,0.005281048361212015,-0.013666544109582901,0.021150026470422745
1757863029411199000,2.465198974609375,0.03271427005529404,-0.04073517769575119,0.025839852169156075
1757863029421184800,2.475184814453125,0.04608360677957535,-0.04472219571471214,0.03254010155797005
1757863029431168500,2.48516845703125,0.038717567920684814,-0.026667829602956772,0.028967203572392464
1757863029441153800,2.49515380859375,0.014711035415530205,0.004835235420614481,0.024661671370267868
1757863029451138800,2.505138916015625,-0.010014284402132034,0.03243543580174446,0.01623835787177086
1757863029461124600,2.51512451171875,-0.028198881074786186,0.028810609132051468,0.015268434770405293
1757863029471109600,2.525109619140625,-0.026875022798776627,-0.0007211840129457414,0.023072030395269394
1757863029481094700,2.5350947265625,-0.016081498935818672,-0.029168272390961647,0.02947586588561535
1757863029491080700,2.545080810546875,-0.0057444386184215546,-0.030276145786046982,0.03570127114653587
1757863029501065700,2.555065673828125,0.010783405043184757,-0.0194900780916214,0.03840038552880287
1757863029511050800,2.56505078125,0.02106666937470436,-0.006797718815505505,0.03899586945772171
1757863029521035800,2.575035888671875,0.017793377861380577,0.0025752766523510218,0.038291461765766144
1757863029531021600,2.585021484375,0.0052384380251169205,0.02305125631392002,0.03339364379644394
1757863029541006600,2.595006591796875,-0.00592526700347662,0.029047630727291107,0.03111637383699417
1757863029550991600,2.60499169921875,-0.013361611403524876,0.01750682108104229,0.027583424001932144
1757863029560976600,2.6149765625,-0.015469503588974476,0.00669225724413991,0.026671025902032852
1757863029570962700,2.624962646484375,-0.01082681491971016,-0.004715925548225641,0.020981447771191597
1757863029580947700,2.63494775390625,-0.006739395204931498,-0.011141601018607616,0.01611984707415104
1757863029590932500,2.644932373046875,-0.0008817726047709584,-0.025535453110933304,0.01785968989133835
1757863029600918800,2.654918701171875,0.002409361768513918,-0.02985510043799877,0.023076023906469345
1757863029610903800,2.66490380859375,-0.0023004384711384773,-0.02881620079278946,0.025545839220285416
1757863029620888800,2.674888916015625,-0.008676312863826752,-0.01932416297495365,0.022414494305849075
1757863029630873600,2.68487353515625,-0.013379454612731934,0.008928780443966389,0.021089572459459305
1757863029640859600,2.694859619140625,-0.018483668565750122,0.02665797621011734,0.01835716888308525
1757863029650844700,2.7048447265625,-0.019242137670516968,0.030847128480672836,0.013172793202102184
1757863029660829400,2.714829345703125,-0.009710418060421944,0.008080297149717808,0.013331251218914986
1757863029670814700,2.724814697265625,0.0036639769095927477,-0.01961870864033699,0.021580392494797707
1757863029680800800,2.73480078125,0.007478955201804638,-0.029806097969412804,0.03165193647146225
1757863029690785500,2.74478564453125,0.003448260948061943,-0.020897025242447853,0.03171718493103981
1757863029700770600,2.7547705078125,-0.006328203249722719,-0.008101335726678371,0.026020681485533714
1757863029710756600,2.764756591796875,-0.016078835353255272,0.0018759306985884905,0.018040252849459648
1757863029720741600,2.77474169921875,-0.015569638460874557,0.02093644067645073,0.016155533492565155
1757863029730726700,2.7847265625,-0.014370949938893318,0.007662447169423103,0.019229087978601456
1757863029740711700,2.794711669921875,-0.01465537492185831,-0.003323092358186841,0.02436419576406479
1757863029750697700,2.80469775390625,-0.019892482087016106,-0.001455151243135333,0.022489063441753387
1757863029760682500,2.8146826171875,-0.024057133123278618,0.011546401306986809,0.02123151905834675
1757863029770667500,2.82466748046875,-0.008153000846505165,0.029207952320575714,0.024528246372938156
1757863029780652800,2.83465283203125,-0.0013132047606632113,0.0239559318870306,0.027546139433979988
1757863029790638600,2.844638671875,0.006706106010824442,0.017555024474859238,0.027787955477833748
1757863029800623600,2.85462353515625,0.011785286478698254,0.013826865702867508,0.023393472656607628
1757863029810608600,2.864608642578125,0.0026351979468017817,0.008825715631246567,0.014065485447645187
1757863029820594400,2.874594482421875,-0.012762133963406086,0.01278903242200613,0.0065684206783771515
1757863029830579700,2.884579833984375,-0.015208513475954533,-0.006154565140604973,0.011484349146485329
1757863029840564700,2.894564697265625,-0.01914173737168312,-0.021832061931490898,0.016215987503528595
1757863029850549800,2.9045498046875,-0.02275111898779869,-0.024445155635476112,0.020144948735833168
1757863029860535600,2.91453564453125,-0.012627111747860909,-0.0017928400775417686,0.015589079819619656
1757863029870520600,2.9245205078125,0.0011883024126291275,0.016885239630937576,0.007416637148708105
1757863029880505600,2.934505615234375,0.01149739883840084,0.012732839211821556,0.008251804858446121
1757863029890491600,2.94449169921875,0.013977334834635258,-0.011266236193478107,0.017587250098586082
1757863029900476700,2.9544765625,0.005517537239938974,-0.024273380637168884,0.022097844630479813
1757863029910461700,2.964461669921875,-0.01164680253714323,-0.021147096529603004,0.01630999706685543
1757863029920446700,2.97444677734375,-0.027598870918154716,0.014112623408436775,0.004985171370208263
1757863029930432500,2.9844326171875,-0.033852238208055496,0.058032941073179245,-0.005717007908970118
1757863029940417800,2.994417724609375,-0.02124110609292984,0.06577421724796295,-0.008049137890338898
1757863029950402800,3.00440283203125,0.01173468679189682,0.027004186064004898,-0.00039974047103896737
1757863029960387600,3.0143876953125,0.03946218639612198,-0.026330674067139626,0.007765245158225298
1757863029970373600,3.02437353515625,0.04036073759198189,-0.045824747532606125,0.01056236308068037
1757863029980358700,3.034358642578125,0.017221864312887192,-0.015387744642794132,0.0030546458438038826
1757863029990343700,3.04434375,-0.019050655886530876,0.04006193205714226,-0.013223660178482533
1757863030000329700,3.054329833984375,-0.050808850675821304,0.06952634453773499,-0.026018550619482994
1757863030010314800,3.064314697265625,-0.05402808263897896,0.07198204845190048,-0.019823506474494934
1757863030020299800,3.0742998046875,-0.03443893417716026,0.0649355873465538,-0.008870190940797329
1757863030030284500,3.084284423828125,-0.00869069341570139,0.05200860649347305,0.0014628743520006537
1757863030040270600,3.0942705078125,0.012791162356734276,0.0354357548058033,0.010541590861976147
1757863030050255600,3.104255615234375,0.024104271084070206,0.04348702356219292,0.011697135865688324
1757863030060240600,3.11424072265625,0.02004002034664154,0.050869304686784744,0.015097726136446
1757863030070225700,3.1242255859375,0.01774597354233265,0.05236094072461128,0.024585770443081856
1757863030080211700,3.134211669921875,0.022470155730843544,0.053354036062955856,0.03946538269519806
1757863030090196700,3.14419677734375,0.03502269834280014,0.0527857169508934,0.05104400962591171
1757863030100181500,3.154181396484375,0.0425405353307724,0.04904477298259735,0.058336012065410614
1757863030110166500,3.16416650390625,0.044438038021326065,0.0714331716299057,0.06427379697561264
1757863030120152800,3.17415283203125,0.044014863669872284,0.10789131373167038,0.06377764791250229
1757863030130137600,3.1841376953125,0.04087446257472038,0.13407763838768005,0.08090603351593018
1757863030140122600,3.19412255859375,0.05118755251169205,0.12749190628528595,0.11753009259700775
1757863030150108700,3.204108642578125,0.08808138966560364,0.08598042279481888,0.14890985190868378
1757863030160093400,3.214093505859375,0.1455976814031601,-0.012253204360604286,0.15293176472187042
1757863030170078700,3.22407861328125,0.2003786414861679,-0.14486850798130035,0.12310381978750229
1757863030180063700,3.234063720703125,0.21591445803642273,-0.2225731611251831,0.09471159428358078
1757863030190049500,3.244049560546875,0.19410236179828644,-0.21020516753196716,0.08706299960613251
1757863030200034600,3.25403466796875,0.15022306144237518,-0.1309944987297058,0.09414967149496078
1757863030210019600,3.26401953125,0.09863469749689102,-0.04856833443045616,0.09336590021848679
1757863030220005600,3.274005615234375,0.06045854836702347,0.016977917402982712,0.08968114852905273
1757863030229990700,3.28399072265625,0.05951526015996933,0.03125033155083656,0.08732638508081436
1757863030239975700,3.2939755859375,0.0886012390255928,0.026554912328720093,0.09036131948232651
1757863030249960700,3.303960693359375,0.1288575828075409,-0.017534252256155014,0.10111916065216064
1757863030259946500,3.313946533203125,0.15262016654014587,-0.06432998925447464,0.11821266263723373
1757863030269931500,3.323931640625,0.14915460348129272,-0.07481751590967178,0.13744547963142395
1757863030279916800,3.333916748046875,0.12824584543704987,-0.07085712999105453,0.15660132467746735
1757863030289901800,3.34390185546875,0.10033006221055984,-0.05156439170241356,0.17545543611049652
1757863030299887600,3.3538876953125,0.08501209318637848,-0.019099125638604164,0.1847810298204422
1757863030309872600,3.36387255859375,0.0841449722647667,-0.01546391099691391,0.18818455934524536
1757863030319857700,3.373857666015625,0.07919841259717941,-0.007730890065431595,0.19366426765918732
1757863030329843700,3.38384375,0.06992688775062561,0.008225705474615097,0.21176284551620483
1757863030339828700,3.393828857421875,0.06822486221790314,0.027844414114952087,0.23397041857242584
1757863030349813800,3.403813720703125,0.08224374055862427,0.03458407521247864,0.2473200410604477
1757863030359798800,3.413798828125,0.10514053702354431,0.01660614088177681,0.2581673562526703
1757863030369784600,3.42378466796875,0.12969860434532166,-0.008567655459046364,0.2664623260498047
1757863030379769600,3.43376953125,0.14957910776138306,-0.0068089039996266365,0.2803206145763397
1757863030389755000,3.4437548828125,0.1500837802886963,-0.00015153386630117893,0.29600849747657776
1757863030399740700,3.45374072265625,0.13446806371212006,0.0211284551769495,0.30186185240745544
1757863030409725700,3.4637255859375,0.11573272198438644,0.06266257911920547,0.29971373081207275
1757863030419710700,3.473710693359375,0.10129492729902267,0.10680101811885834,0.3073357045650482
1757863030429695500,3.483695556640625,0.0943446084856987,0.14010943472385406,0.32796189188957214
1757863030439681800,3.493681884765625,0.09550867974758148,0.17311106622219086,0.36253586411476135
1757863030449666800,3.503666748046875,0.0984775722026825,0.20858889818191528,0.3984363377094269
1757863030459651600,3.513651611328125,0.120725616812706,0.2354215681552887,0.4375016987323761
1757863030469636600,3.52363671875,0.1535317748785019,0.27977120876312256,0.4712165296077728
1757863030479622700,3.53362255859375,0.18298260867595673,0.3333257734775543,0.5078280568122864
1757863030489607700,3.543607666015625,0.17877081036567688,0.40011918544769287,0.5451605319976807
1757863030499592400,3.553592529296875,0.14407621324062347,0.4383488595485687,0.5817739367485046
1757863030509578800,3.563578857421875,0.10115351527929306,0.4703909456729889,0.6215437054634094
1757863030519563800,3.573563720703125,0.08640652894973755,0.5081697702407837,0.6676518321037292
1757863030529548500,3.583548583984375,0.11374494433403015,0.5018370151519775,0.7068671584129333
1757863030539533600,3.593533447265625,0.16312474012374878,0.4737718403339386,0.7439412474632263
1757863030549519600,3.60351953125,0.19423046708106995,0.46806466579437256,0.778546929359436
1757863030559504600,3.613504638671875,0.20489242672920227,0.4812614321708679,0.8074909448623657
1757863030569489700,3.62348974609375,0.19320248067378998,0.538114070892334,0.8356131315231323
1757863030579474700,3.633474609375,0.18068881332874298,0.5773535966873169,0.875611424446106
1757863030589460700,3.643460693359375,0.2008843719959259,0.6274910569190979,0.9179401993751526
1757863030599445500,3.653445556640625,0.23093414306640625,0.6609827280044556,0.9689088463783264
1757863030609430500,3.663430419921875,0.2644535005092621,0.6684760451316833,1.0141181945800781
1757863030619416800,3.673416748046875,0.31207239627838135,0.6620698571205139,1.0587631464004517
1757863030629401600,3.683401611328125,0.3744356632232666,0.5988724827766418,1.104831576347351
1757863030639386600,3.69338671875,0.44470927119255066,0.5116994976997375,1.137568473815918
1757863030649371600,3.70337158203125,0.47785764932632446,0.39022740721702576,1.1769784688949585
1757863030659357400,3.713357421875,0.4589414894580841,0.2606307864189148,1.222517490386963
1757863030669342700,3.7233427734375,0.41082829236984253,0.1697847694158554,1.2594690322875977
1757863030679327700,3.73332763671875,0.34579548239707947,0.11765233427286148,1.2854167222976685
1757863030689312800,3.743312744140625,0.27347734570503235,0.08580891042947769,1.3122888803482056
1757863030699298600,3.753298583984375,0.18511898815631866,0.1683242917060852,1.3779085874557495
1757863030709283600,3.76328369140625,0.13802871108055115,0.13430960476398468,1.41468346118927
1757863030719268600,3.7732685546875,0.17890264093875885,0.01257997378706932,1.4326342344284058
1757863030729254700,3.783254638671875,0.29376450181007385,-0.12505139410495758,1.4579182863235474
1757863030739239700,3.79323974609375,0.4288725256919861,-0.32345983386039734,1.4901286363601685
1757863030749224700,3.803224609375,0.538479208946228,-0.4207879602909088,1.5499749183654785
1757863030759209700,3.813209716796875,0.5743594169616699,-0.397871732711792,1.6149680614471436
1757863030769195500,3.823195556640625,0.5644327402114868,-0.21246884763240814,1.6578198671340942
1757863030779180800,3.833180908203125,0.5404248833656311,0.10370775312185287,1.646454095840454
1757863030789165800,3.843165771484375,0.4863773584365845,0.40282389521598816,1.5635298490524292
1757863030799150600,3.853150634765625,0.4320949614048004,0.537818968296051,1.465293049812317
1757863030809136600,3.86313671875,0.425665020942688,0.6149539947509766,1.4172645807266235
1757863030819121700,3.87312158203125,0.44252869486808777,0.6151124238967896,1.446440577507019
1757863030829106700,3.883106689453125,0.4384830892086029,0.5296127200126648,1.5628478527069092
1757863030839092700,3.8930927734375,0.39726772904396057,0.4527752101421356,1.71819007396698
1757863030849077800,3.903077880859375,0.3465246558189392,0.37173521518707275,1.8207632303237915
1757863030859062800,3.913062744140625,0.3168570399284363,0.3168831467628479,1.8541425466537476
1757863030869047600,3.923047607421875,0.2807011604309082,0.3437911868095398,1.8379236459732056
1757863030879033600,3.93303369140625,0.26393815875053406,0.39416593313217163,1.8059606552124023
1757863030889018600,3.9430185546875,0.30109167098999023,0.43362706899642944,1.787828803062439
1757863030899003600,3.953003662109375,0.38707101345062256,0.4827035367488861,1.8021432161331177
1757863030908989700,3.96298974609375,0.4903494715690613,0.5346455574035645,1.8458009958267212
1757863030918974700,3.972974609375,0.5952417850494385,0.5995052456855774,1.9100651741027832
1757863030928959500,3.98295947265625,0.6744098663330078,0.6497042179107666,1.9340394735336304
1757863030938944500,3.992944580078125,0.7087433338165283,0.673275351524353,1.8971728086471558
1757863030948930800,4.002930908203125,0.7169884443283081,0.6895506978034973,1.8165887594223022
1757863030958915600,4.01291552734375,0.6874955892562866,0.6798405647277832,1.7122714519500732
1757863030968900600,4.022900634765625,0.6170530915260315,0.6747589707374573,1.6200933456420898
1757863030978885600,4.0328857421875,0.5263482332229614,0.7092493176460266,1.551356554031372
1757863030988871700,4.04287158203125,0.4080255627632141,0.7286115884780884,1.5035794973373413
1757863030998856400,4.0528564453125,0.2688559591770172,0.720130980014801,1.4586306810379028
1757863031008841700,4.062841796875,0.15441620349884033,0.6933375000953674,1.3951669931411743
1757863031018827800,4.072827880859375,0.08314042538404465,0.6563736200332642,1.2733614444732666
1757863031028812500,4.0828125,0.06799769401550293,0.6068963408470154,1.120389699935913
1757863031038797600,4.092797607421875,0.11067351698875427,0.5080711841583252,0.9544082283973694
1757863031048782600,4.102782470703125,0.19049857556819916,0.36856791377067566,0.8147512674331665
1757863031058768600,4.1127685546875,0.25598037242889404,0.19242243468761444,0.7435076832771301
1757863031068753700,4.122753662109375,0.30176064372062683,-0.046486277133226395,0.7431063652038574
1757863031078738700,4.13273876953125,0.31715238094329834,-0.25420165061950684,0.7765282392501831
1757863031088723700,4.1427236328125,0.2918717861175537,-0.3938831090927124,0.7785024046897888
1757863031098709500,4.15270947265625,0.23309823870658875,-0.45756277441978455,0.7098557353019714
1757863031108694500,4.162694580078125,0.19748245179653168,-0.48920750617980957,0.5607988834381104
1757863031118679800,4.1726796875,0.23431316018104553,-0.5676120519638062,0.36971333622932434
1757863031128665600,4.18266552734375,0.3169827461242676,-0.6524637937545776,0.20844215154647827
1757863031138650600,4.192650634765625,0.3770926892757416,-0.7482627630233765,0.11386025696992874
1757863031148635600,4.2026357421875,0.35813072323799133,-0.7784388065338135,0.10511523485183716
1757863031158620700,4.21262060546875,0.24350214004516602,-0.7394711375236511,0.15537413954734802
1757863031168606700,4.222606689453125,0.027776770293712616,-0.6351780295372009,0.23658351600170135
1757863031178591700,4.232591796875,-0.20038102567195892,-0.48743411898612976,0.2734515070915222
1757863031188576800,4.24257666015625,-0.3708294630050659,-0.3996714949607849,0.22731438279151917
1757863031198562600,4.2525625,-0.4164406359195709,-0.37671157717704773,0.11588745564222336
1757863031208547600,4.262547607421875,-0.32778027653694153,-0.458134263753891,-0.05303578823804855
1757863031218532600,4.27253271484375,-0.16118809580802917,-0.6161638498306274,-0.2381688952445984
1757863031228518000,4.282517822265625,-0.011268100701272488,-0.7833608388900757,-0.4090985655784607
1757863031238503700,4.292503662109375,0.05389279127120972,-0.9482216835021973,-0.5621682405471802
1757863031248488700,4.30248876953125,0.016628511250019073,-1.0132675170898438,-0.7289577722549438
1757863031258473700,4.3124736328125,-0.1286165714263916,-0.9384952783584595,-0.9208515882492065
1757863031268458500,4.32245849609375,-0.3248124420642853,-0.7229425311088562,-1.1586521863937378
1757863031278444800,4.33244482421875,-0.4930342137813568,-0.43989482522010803,-1.444498062133789
1757863031288429800,4.342429931640625,-0.5418462157249451,-0.24106934666633606,-1.7821674346923828
1757863031298414600,4.35241455078125,-0.4686034321784973,-0.06364741921424866,-2.1221091747283936
1757863031308400600,4.362400634765625,-0.3439387381076813,0.15317223966121674,-2.409355640411377
1757863031318385700,4.3723857421875,-0.28550204634666443,0.4278978109359741,-2.586029291152954
1757863031328370700,4.38237060546875,-0.43861544132232666,0.7741753458976746,-2.6032512187957764
1757863031338355500,4.39235546875,-0.8918718695640564,1.0902587175369263,-2.4705512523651123
1757863031348341800,4.402341796875,-1.385264277458191,1.3996243476867676,-2.1790542602539062
1757863031358326800,4.412326904296875,-1.6988645792007446,1.5001482963562012,-1.8185789585113525
1757863031368311600,4.4223115234375,-1.7540524005889893,1.2466933727264404,-1.407914161682129
1757863031378296600,4.432296630859375,-1.4774583578109741,0.7191858291625977,-0.8491765856742859
1757863031388282600,4.44228271484375,-0.937247097492218,-0.033300966024398804,-0.3146756589412689
1757863031398267600,4.452267578125,-0.32075485587120056,-0.6722322106361389,-0.04376452416181564
1757863031408252700,4.462252685546875,0.21981091797351837,-1.0350801944732666,-0.05901724845170975
1757863031418238700,4.47223876953125,0.5896989703178406,-1.1138484477996826,-0.24646437168121338
1757863031428223500,4.482223388671875,0.7657280564308167,-1.0609029531478882,-0.4821922183036804
1757863031438208800,4.492208740234375,0.8087192177772522,-0.9732980132102966,-0.6850976347923279
1757863031448193800,4.50219384765625,0.8045175075531006,-0.8812421560287476,-0.8556065559387207
1757863031458179800,4.512179931640625,0.7798073887825012,-0.7825296521186829,-1.0168335437774658
1757863031468164900,4.522164794921875,0.7175256609916687,-0.7164965867996216,-1.1618119478225708
1757863031478150000,4.53214990234375,0.6301994919776917,-0.6816901564598083,-1.2972204685211182
1757863031488136000,4.542135986328125,0.4845064878463745,-0.5957595109939575,-1.4251347780227661
1757863031498120700,4.55212060546875,0.2640468180179596,-0.4504814147949219,-1.5377304553985596
1757863031508105700,4.562105712890625,-0.023130353540182114,-0.2852613031864166,-1.6116005182266235
1757863031518090800,4.5720908203125,-0.32636451721191406,-0.15832360088825226,-1.59469473361969
1757863031528076800,4.582076904296875,-0.5712560415267944,-0.12210220843553543,-1.5034571886062622
1757863031538061800,4.592061767578125,-0.7298206686973572,-0.08272869884967804,-1.3852746486663818
1757863031548046800,4.602046875,-0.8114425539970398,-0.030889738351106644,-1.2951726913452148
1757863031558032000,4.612031982421875,-0.8134121894836426,-0.00987287051975727,-1.2655980587005615
1757863031568017700,4.622017578125,-0.7554671764373779,-0.027408987283706665,-1.2837905883789062
1757863031578003000,4.6320029296875,-0.6583930850028992,-0.1087869331240654,-1.316287875175476
1757863031587988000,4.641988037109375,-0.5684093832969666,-0.21021687984466553,-1.3460668325424194
1757863031597973800,4.651973876953125,-0.5363843441009521,-0.28634360432624817,-1.3748997449874878
1757863031607958800,4.661958740234375,-0.5519875288009644,-0.30515751242637634,-1.403173804283142
1757863031617943800,4.67194384765625,-0.5861297845840454,-0.2894704341888428,-1.430091381072998
1757863031627928800,4.6819287109375,-0.6179414987564087,-0.2569010257720947,-1.4512643814086914
1757863031637915000,4.691914794921875,-0.6314959526062012,-0.23416802287101746,-1.4693639278411865
1757863031647900000,4.70189990234375,-0.638465166091919,-0.19694022834300995,-1.4844646453857422
1757863031657885000,4.711885009765625,-0.6400761008262634,-0.14574840664863586,-1.5056368112564087
1757863031667870700,4.72187060546875,-0.6473183035850525,-0.09248252958059311,-1.536933422088623
1757863031677855700,4.731855712890625,-0.6645820140838623,-0.0232872124761343,-1.5853723287582397
1757863031687841000,4.741841064453125,-0.6812568306922913,0.046833284199237823,-1.6370999813079834
1757863031697825800,4.75182568359375,-0.693303108215332,0.09868130087852478,-1.6646027565002441
1757863031707811800,4.761811767578125,-0.6921366453170776,0.10834378749132156,-1.652456283569336
1757863031717796900,4.771796875,-0.6622826457023621,0.04472033306956291,-1.6044541597366333
1757863031727782000,4.781781982421875,-0.6068007349967957,-0.12423353642225266,-1.5217419862747192
1757863031737766700,4.7917666015625,-0.5496266484260559,-0.3040432333946228,-1.4313710927963257
1757863031747753000,4.8017529296875,-0.5184226632118225,-0.42276883125305176,-1.3560960292816162
1757863031757738000,4.811738037109375,-0.5149906277656555,-0.45975348353385925,-1.3038733005523682
1757863031767722800,4.82172265625,-0.5149895548820496,-0.39420828223228455,-1.2758762836456299
1757863031777708800,4.831708740234375,-0.5071609616279602,-0.3036658763885498,-1.2634038925170898
1757863031787693800,4.84169384765625,-0.5080946683883667,-0.2466776967048645,-1.2442102432250977
1757863031797678600,4.8516787109375,-0.5237428545951843,-0.21893474459648132,-1.2114306688308716
1757863031807663900,4.861663818359375,-0.5518999099731445,-0.22070254385471344,-1.174404501914978
1757863031817650000,4.87164990234375,-0.5654453039169312,-0.27098408341407776,-1.135758876800537
1757863031827634700,4.881634765625,-0.5610891580581665,-0.3325108289718628,-1.100346565246582
1757863031837619700,4.89161962890625,-0.5561593770980835,-0.3771456778049469,-1.0632047653198242
1757863031847605800,4.901605712890625,-0.5399441719055176,-0.4187280237674713,-1.0259828567504883
1757863031857591000,4.911591064453125,-0.5093042254447937,-0.45231473445892334,-0.9926637411117554
1757863031867575800,4.921575927734375,-0.47256702184677124,-0.4650976359844208,-0.959513247013092
1757863031877560800,4.931560791015625,-0.40936407446861267,-0.455921471118927,-0.930676281452179
1757863031887547000,4.941546875,-0.34250009059906006,-0.4301777482032776,-0.9005993008613586
1757863031897531600,4.95153173828125,-0.30762040615081787,-0.4352755546569824,-0.8508256077766418
1757863031907516700,4.9615166015625,-0.3033473491668701,-0.44926807284355164,-0.797753632068634
1757863031917502000,4.971501953125,-0.3055998682975769,-0.4529624283313751,-0.7454826831817627
1757863031927487700,4.98148779296875,-0.3109477460384369,-0.4215051531791687,-0.7003684639930725
1757863031937472800,4.99147265625,-0.32507821917533875,-0.3538430333137512,-0.6686129570007324
1757863031947457800,5.001457763671875,-0.3294444680213928,-0.29079481959342957,-0.649817705154419
1757863031957443800,5.01144384765625,-0.3069407641887665,-0.2682943046092987,-0.6227245330810547
1757863031967428900,5.021428955078125,-0.2563984990119934,-0.2985515296459198,-0.5781586766242981
1757863031977414000,5.031413818359375,-0.18389873206615448,-0.3645252287387848,-0.5194093585014343
1757863031987399000,5.04139892578125,-0.12059406191110611,-0.4447694718837738,-0.4445905089378357
1757863031997384700,5.051384765625,-0.0772194191813469,-0.4958113431930542,-0.3616069257259369
1757863032007369700,5.06136962890625,-0.06849570572376251,-0.5328626036643982,-0.2844138741493225
1757863032017354800,5.071354736328125,-0.06133632734417915,-0.5589131116867065,-0.22357822954654694
1757863032027340800,5.0813408203125,-0.038608912378549576,-0.5764635801315308,-0.1866268664598465
1757863032037325800,5.091325927734375,0.0002790992730297148,-0.5431056022644043,-0.1569395512342453
1757863032047310800,5.101310791015625,0.06844377517700195,-0.448642760515213,-0.1593952476978302
1757863032057296000,5.1112958984375,0.12812894582748413,-0.38873469829559326,-0.14182797074317932
1757863032067281700,5.12128173828125,0.18448463082313538,-0.3490155041217804,-0.1426258534193039
1757863032077267000,5.131266845703125,0.21728891134262085,-0.3482658267021179,-0.13733549416065216
1757863032087252000,5.141251953125,0.2439197152853012,-0.35241371393203735,-0.1565733700990677
1757863032097237000,5.151237060546875,0.2278566062450409,-0.34276053309440613,-0.1616424322128296
1757863032107222800,5.161222900390625,0.17319469153881073,-0.3287121057510376,-0.14807948470115662
1757863032117207800,5.171207763671875,0.09837477654218674,-0.3019486665725708,-0.13367816805839539
1757863032127192800,5.18119287109375,0.029676401987671852,-0.24256284534931183,-0.12855158746242523
1757863032137179000,5.191178955078125,-0.016883108764886856,-0.15696591138839722,-0.1382542848587036
1757863032147164000,5.201163818359375,-0.05158117040991783,-0.10199906677007675,-0.15367265045642853
1757863032157149000,5.21114892578125,-0.06594652682542801,-0.06309641152620316,-0.17406021058559418
1757863032167133700,5.2211337890625,-0.06976763159036636,-0.0313456729054451,-0.18850760161876678
1757863032177119700,5.23111962890625,-0.07475120574235916,-0.02274206466972828,-0.18941280245780945
1757863032187104800,5.241104736328125,-0.08347571641206741,-0.018334532156586647,-0.18054261803627014
1757863032197089800,5.25108984375,-0.08482301235198975,-0.023785490542650223,-0.17063432931900024
1757863032207074800,5.26107470703125,-0.0747823640704155,-0.030770162120461464,-0.15246251225471497
1757863032217060900,5.271060791015625,-0.05362168326973915,-0.03452495485544205,-0.12576352059841156
1757863032227046000,5.2810458984375,-0.03381362184882164,-0.037042174488306046,-0.10195805877447128
1757863032237030700,5.29103076171875,-0.02484729327261448,-0.03927576541900635,-0.08820495754480362
1757863032247017000,5.301016845703125,-0.03797880560159683,-0.04934943839907646,-0.08378784358501434
1757863032257002000,5.311001953125,-0.05722174420952797,-0.07836644351482391,-0.08423285186290741
1757863032266986800,5.32098681640625,-0.07065632939338684,-0.09411158412694931,-0.08043225854635239
1757863032276971800,5.3309716796875,-0.08590851724147797,-0.10185765475034714,-0.06808184832334518
1757863032286957800,5.340957763671875,-0.10151676833629608,-0.08612556010484695,-0.043591152876615524
1757863032296942600,5.350942626953125,-0.09209290891885757,-0.049441318958997726,-0.02503611147403717
1757863032306927900,5.360927978515625,-0.052432313561439514,-0.023497868329286575,-0.013640711084008217
1757863032316914000,5.370913818359375,-0.001871136948466301,-0.014001836068928242,-0.012743491679430008
1757863032326898700,5.380898681640625,0.045645248144865036,-0.013558952137827873,-0.010309895500540733
1757863032336883700,5.3908837890625,0.0703497976064682,-0.013856160454452038,0.0005432848702184856
1757863032346868700,5.40086865234375,0.05974642187356949,-0.02684599533677101,0.017040502279996872
1757863032356855000,5.41085498046875,0.04097699373960495,-0.045284390449523926,0.024933045729994774
1757863032366839800,5.42083984375,0.029998645186424255,-0.049794454127550125,0.028729116544127464
1757863032376824800,5.430824951171875,0.024595357477664948,-0.05844040587544441,0.034079939126968384
1757863032386809900,5.440809814453125,0.016352342441678047,-0.08145225048065186,0.040714140981435776
1757863032396795600,5.450795654296875,0.019847474992275238,-0.11282242089509964,0.044083837419748306
1757863032406780700,5.46078076171875,0.026024144142866135,-0.11229964345693588,0.04211762547492981
1757863032416766000,5.470765869140625,0.032100412994623184,-0.10792380571365356,0.031039675697684288
1757863032426751700,5.480751708984375,0.056474462151527405,-0.11915275454521179,-0.0007054713787510991
1757863032436736500,5.490736572265625,0.07952544838190079,-0.13259746134281158,-0.0332341194152832
1757863032446721500,5.500721435546875,0.08742251992225647,-0.1668614149093628,-0.057425208389759064
1757863032456706800,5.510706787109375,0.07327341288328171,-0.2225630283355713,-0.07158763706684113
1757863032466692600,5.520692626953125,0.04728202894330025,-0.2697973847389221,-0.07012289762496948
1757863032476677600,5.530677734375,0.02858930081129074,-0.3197372555732727,-0.06675053387880325
1757863032486662700,5.54066259765625,0.031612519174814224,-0.35041606426239014,-0.06887893378734589
1757863032496648400,5.5506484375,0.0645957738161087,-0.3594055771827698,-0.0851612314581871
1757863032506633700,5.5606337890625,0.12069445848464966,-0.36647146940231323,-0.11036965250968933
1757863032516618800,5.57061865234375,0.16547417640686035,-0.3755160868167877,-0.1258884221315384
1757863032526603800,5.580603759765625,0.18231041729450226,-0.3717256188392639,-0.1287955343723297
1757863032536589600,5.590589599609375,0.17121542990207672,-0.3793286681175232,-0.1311630755662918
1757863032546574600,5.60057470703125,0.13115961849689484,-0.3912135660648346,-0.12540851533412933
1757863032556559600,5.6105595703125,0.07850013673305511,-0.41706088185310364,-0.12157463282346725
1757863032566545000,5.620544921875,0.041252631694078445,-0.4260442554950714,-0.11441366374492645
1757863032576530700,5.63053076171875,0.0119091235101223,-0.3180597424507141,-0.10766734182834625
1757863032586515700,5.640515625,-0.012859339825809002,-0.19762678444385529,-0.1274447739124298
1757863032596500700,5.650500732421875,-0.009572998620569706,-0.024148212745785713,-0.14827708899974823
1757863032606486500,5.660486572265625,0.04192854091525078,0.3241865932941437,-0.15555603802204132
1757863032616471800,5.670471923828125,0.09439228475093842,0.46721938252449036,-0.2421167641878128
1757863032626456800,5.680456787109375,0.12028912454843521,0.26013997197151184,-0.2959917187690735
1757863032636441600,5.690441650390625,0.15544791519641876,0.03620727360248566,-0.2337065041065216
1757863032646427600,5.700427734375,0.15749667584896088,-0.1272737979888916,-0.13359880447387695
1757863032656412700,5.71041259765625,0.1252034604549408,-0.16733600199222565,-0.05736395716667175
1757863032666397700,5.720397705078125,0.0811968520283699,-0.11447784304618835,-0.03152010962367058
1757863032676383700,5.7303837890625,0.041490983217954636,-0.0632476806640625,-0.04550516605377197
1757863032686368800,5.74036865234375,0.010742392390966415,-0.018752649426460266,-0.07712168246507645
1757863032696353800,5.750353759765625,0.006913299672305584,0.0036703685764223337,-0.08883612602949142
1757863032706338600,5.760338623046875,0.006069077644497156,-0.019837353378534317,-0.060377590358257294
1757863032716324600,5.77032470703125,-0.013850834220647812,-0.06884271651506424,-0.0041617220267653465
1757863032726309600,5.7803095703125,-0.03879506513476372,-0.10490697622299194,0.047143276780843735
1757863032736294700,5.790294677734375,-0.03742992877960205,-0.12464738637208939,0.06444477289915085
1757863032746279700,5.80027978515625,-0.044449225068092346,-0.08517774194478989,0.0478878952562809
1757863032756265700,5.810265625,-0.057975150644779205,-0.021877069026231766,0.012178102508187294
1757863032766250500,5.82025048828125,-0.05937677249312401,0.03130599111318588,-0.013009541667997837
1757863032776235500,5.830235595703125,-0.034084200859069824,0.037156689912080765,-0.01882748305797577
1757863032786221800,5.840221923828125,-0.0010149306617677212,0.012417521327733994,-0.01173175685107708
1757863032796206600,5.85020654296875,0.029699837788939476,-0.019713250920176506,0.00013848437811248004
1757863032806191600,5.860191650390625,0.03874526545405388,-0.01290408056229353,0.007906392216682434
1757863032816176600,5.8701767578125,0.03771275654435158,0.008616924285888672,-0.009997240267693996
1757863032826162700,5.88016259765625,0.01702745258808136,0.032167524099349976,-0.027630295604467392
1757863032836147500,5.8901474609375,-0.015311045572161674,0.05556073039770126,-0.03358272835612297
1757863032846132700,5.9001328125,-0.03549221530556679,0.05980607494711876,-0.0279805026948452
1757863032856117800,5.91011767578125,-0.04086354374885559,0.06544425338506699,-0.011913650669157505
1757863032866103600,5.920103515625,-0.02828356996178627,0.06040475517511368,-0.000874582096002996
1757863032876088600,5.930088623046875,0.005426457151770592,0.04097113385796547,-0.00021278657368384302
1757863032886073600,5.940073486328125,0.0445895716547966,0.027358919382095337,0.0002990729990415275
1757863032896059600,5.9500595703125,0.06751006841659546,0.016442622989416122,-0.004462658893316984
1757863032906044700,5.960044677734375,0.0637265145778656,0.03344504162669182,-0.01101430132985115
1757863032916029700,5.97002978515625,0.037569478154182434,0.07775631546974182,-0.011395134031772614
1757863032926014700,5.9800146484375,0.004561462439596653,0.10988388955593109,-0.014545919373631477
1757863032936000500,5.99000048828125,-0.021435251459479332,0.11889522522687912,-0.019410982728004456
1757863032945985500,5.999985595703125,-0.029195435345172882,0.11374973505735397,-0.01949114352464676
1757863032955970800,6.009970703125,-0.021317007020115852,0.0976186990737915,-0.02172580175101757
1757863032965956600,6.01995654296875,-0.010813232511281967,0.08386560529470444,-0.01296267006546259
1757863032975941600,6.029941650390625,-0.002112685702741146,0.07543190568685532,-0.0035918052308261395
1757863032985926700,6.0399267578125,0.008579107001423836,0.07942158728837967,0.0009366337326355278
1757863032995911700,6.04991162109375,0.013422331772744656,0.10025016963481903,0.0034258903469890356
1757863033005897700,6.059897705078125,0.016401076689362526,0.09421864151954651,-0.0008503473363816738
1757863033015882800,6.0698828125,0.011976235546171665,0.07734592258930206,-0.0032730249222368
1757863033025867800,6.07986767578125,0.002688993699848652,0.07494694739580154,-0.00469515286386013
1757863033035852500,6.0898525390625,-0.009875800460577011,0.0748864933848381,-0.0007422229973599315
1757863033045838600,6.099838623046875,-0.019294070079922676,0.06922248005867004,0.0017065536230802536
1757863033055823600,6.10982373046875,-0.016079101711511612,0.059477709233760834,0.0030722226947546005
1757863033065809000,6.119808837890625,-0.0033217607997357845,0.045891325920820236,0.0025931198615580797
1757863033075794700,6.129794677734375,0.010277937166392803,0.03868241608142853,0.0029617014806717634
1757863033085779700,6.13977978515625,0.010948521085083485,0.044076647609472275,0.006117547396570444
1757863033095764700,6.1497646484375,0.0043960800394415855,0.04442711919546127,0.007531153038144112
1757863033105749500,6.15974951171875,0.00387303507886827,0.040220923721790314,0.0017204020405188203
1757863033115735800,6.16973583984375,-0.001344363670796156,0.04110695794224739,0.0019800602458417416
1757863033125720800,6.179720947265625,-0.020802482962608337,0.05402887985110283,0.006221144460141659
1757863033135705600,6.18970556640625,-0.03026336431503296,0.07283798605203629,0.0013768542557954788
1757863033145691600,6.199691650390625,-0.03323625028133392,0.09996680915355682,-0.00920335203409195
1757863033155676700,6.2096767578125,-0.03220107778906822,0.10904233157634735,-0.021495969966053963
1757863033165661700,6.21966162109375,-0.02858930081129074,0.10345954447984695,-0.034750789403915405
1757863033175646500,6.229646484375,-0.01576271839439869,0.07602152973413467,-0.04020680859684944
1757863033185632800,6.2396328125,-0.009409747086465359,0.032338764518499374,-0.03349697217345238
1757863033195617800,6.24961767578125,-0.011754659935832024,-0.012674516066908836,-0.017975805327296257
1757863033205602600,6.2596025390625,-0.02696530520915985,-0.01558055728673935,-0.0018485001055523753
1757863033215587600,6.269587646484375,-0.049671150743961334,-0.004947886802256107,0.003810983384028077
1757863033225573600,6.27957373046875,-0.05552903935313225,0.013982661068439484,0.006609699688851833
1757863033235558700,6.28955859375,-0.04646363854408264,0.03238510340452194,0.000251402409048751
1757863033245543700,6.299543701171875,-0.026036128401756287,0.026265958324074745,0.0013584784464910626
1757863033255529700,6.30952978515625,-0.009279518388211727,0.018543589860200882,-0.0011342403013259172
1757863033265514500,6.319514404296875,0.002428004052489996,0.023393206298351288,0.0041095237247645855
1757863033275499500,6.32949951171875,-0.00044368262751959264,0.03479766100645065,0.007836351171135902
1757863033285484500,6.339484619140625,-0.009331982582807541,0.0247799139469862,0.012434032745659351
1757863033295470600,6.349470703125,-0.025707494467496872,0.013343501836061478,0.018200576305389404
1757863033305455600,6.35945556640625,-0.04117859527468681,0.012428173795342445,0.023358052596449852
1757863033315440600,6.369440673828125,-0.046970169991254807,0.01284309383481741,0.022524483501911163
1757863033325426700,6.3794267578125,-0.042095523327589035,0.015137674286961555,0.018730543553829193
1757863033335411500,6.389411376953125,-0.028437500819563866,0.02052258513867855,0.011158112436532974
1757863033345396700,6.399396728515625,-0.004249606281518936,0.023418506607413292,0.005092230159789324
1757863033355381800,6.4093818359375,0.02022484503686428,-0.0011893677292391658,0.006293848622590303
1757863033365367600,6.419367431640625,0.03626799210906029,-0.009795106016099453,0.007003314793109894
1757863033375352600,6.4293525390625,0.022177740931510925,-0.010666226036846638,0.010183394886553288
1757863033385337600,6.439337646484375,-0.0006013417732901871,-0.0011877698125317693,0.006506102625280619
1757863033395322600,6.449322509765625,-0.02039768360555172,0.0004194478678982705,-0.005419000051915646
1757863033405308700,6.45930859375,-0.02780926041305065,-0.011098990216851234,-0.018208298832178116
1757863033415293700,6.469293701171875,-0.016400810331106186,-0.014767227694392204,-0.025465944781899452
1757863033425278700,6.47927880859375,-0.011780226603150368,-0.019512981176376343,-0.020250409841537476
1757863033435264500,6.489264404296875,-0.005321794655174017,-0.003882356220856309,-0.012521117925643921
1757863033445250300,6.499250244140625,0.0049348375760018826,0.004905809182673693,-0.008903746493160725
1757863033455235300,6.5092353515625,0.020352143794298172,-0.006656571291387081,-0.006931142881512642
1757863033465220000,6.51922021484375,0.022411299869418144,-0.01107608713209629,-0.006609965581446886
1757863033475206100,6.5292060546875,0.014481204561889172,0.00007936220208648592,-0.011300591751933098
1757863033485191200,6.539191162109375,-0.0007954862085171044,0.013198093511164188,-0.011837484315037727
1757863033495176200,6.54917626953125,-0.007429953198879957,0.025125592947006226,-0.017675399780273438
1757863033505162200,6.559162353515625,-0.009976201690733433,0.03422961011528969,-0.020920461043715477
1757863033515147300,6.569147216796875,-0.00794447585940361,0.01571238413453102,-0.019630959257483482
1757863033525132300,6.57913232421875,0.011010573245584965,0.003534813644364476,-0.017584320157766342
1757863033535117000,6.589116943359375,0.014072941616177559,-0.008746620267629623,-0.015056713484227657
1757863033545103400,6.599103271484375,-0.0008423578692600131,-0.01985519751906395,-0.013829795643687248
1757863033555088400,6.60908837890625,-0.015976037830114365,0.002267149044200778,-0.008499745279550552
1757863033565073200,6.6190732421875,-0.024941835552453995,0.01576298475265503,-0.007162305526435375
1757863033575058200,6.62905810546875,-0.02003762312233448,0.036800626665353775,-0.011697135865688324
1757863033585044200,6.639044189453125,-0.012301673181355,0.04438583925366402,-0.014004765078425407
1757863033595029000,6.649029052734375,-0.012178901582956314,0.0473046638071537,-0.016158463433384895
1757863033605014000,6.659013916015625,-0.017853565514087677,0.04566442221403122,-0.01461968943476677
1757863033615000300,6.669000244140625,-0.012766927480697632,0.04403536766767502,-0.012367453426122665
1757863033624985300,6.6789853515625,-0.010084059089422226,0.039985500276088715,-0.01251126453280449
1757863033634970000,6.68897021484375,0.005898369010537863,0.029687056317925453,-0.013856693170964718
1757863033644955100,6.698955078125,0.024583639577031136,0.009808688424527645,-0.011137072928249836
1757863033654941200,6.708941162109375,0.02966202236711979,-0.003832288784906268,-0.00839508231729269
1757863033664926200,6.71892626953125,0.01896490342915058,0.0023875238839536905,-0.004803277086466551
1757863033674911200,6.7289111328125,0.006704241503030062,0.004523911513388157,-0.0027712853625416756
1757863033684897300,6.738897216796875,0.007923170924186707,0.024952754378318787,-0.004584898240864277
1757863033694882000,6.748882080078125,-0.002211222657933831,0.028056401759386063,-0.008900816552340984
1757863033704867000,6.7588671875,-0.012599148787558079,0.021285580471158028,-0.009674731642007828
1757863033714852000,6.76885205078125,-0.007897337898612022,0.01546471007168293,-0.0082115912809968
1757863033724838100,6.778838134765625,-0.00022503710351884365,0.013674266636371613,-0.006997988559305668
1757863033734823200,6.7888232421875,0.0016279903938993812,0.01152722630649805,-0.0025545042008161545
1757863033744808200,6.79880810546875,-0.0013603427214547992,0.014732606709003448,0.0039867521263659
1757863033754793200,6.808793212890625,0.004395014606416225,0.03110012784600258,0.011904329992830753
1757863033764779000,6.818779052734375,0.013434049673378468,0.05199289321899414,0.006974286399781704
1757863033774764300,6.828764404296875,0.01537895668298006,0.05480385944247246,-0.0024860608391463757
1757863033784749300,6.838749267578125,0.0203995481133461,0.03653910383582115,-0.00586774293333292
1757863033794735000,6.848735107421875,0.029090240597724915,0.01495391596108675,-0.0070129018276929855
1757863033804720000,6.85872021484375,0.027665182948112488,-0.0004037352045997977,-0.004756405483931303
1757863033814705200,6.868705078125,0.012835104949772358,-0.005048820748925209,-0.00006684534309897572
1757863033824690200,6.878690185546875,-0.005257346201688051,0.01606924831867218,-0.002359560690820217
1757863033834676200,6.88867626953125,-0.027403926476836205,0.04014528915286064,-0.006339122075587511
1757863033844661200,6.8986611328125,-0.04049496352672577,0.056890979409217834,-0.00430153775960207
1757863033854646300,6.908646240234375,-0.031079089269042015,0.05221287161111832,0.005764412228018045
1757863033864631300,6.91863134765625,0.003457582090049982,0.033493246883153915,0.015174158848822117
1757863033874617000,6.9286171875,0.03417395055294037,-0.004159857518970966,0.021464811637997627
1757863033884602400,6.938602294921875,0.05427762120962143,-0.004553738981485367,0.016741164028644562
1757863033894587400,6.94858740234375,0.05257772281765938,0.01031655352562666,0.013006612658500671
1757863033904573200,6.9585732421875,0.031692683696746826,0.01949753426015377,0.004623247776180506
1757863033914558200,6.96855810546875,-0.00013182646944187582,0.017016001045703888,0.0001358212175546214
1757863033924543200,6.978543212890625,-0.02901034615933895,0.032155271619558334,0.00637747161090374
1757863033934528000,6.988528076171875,-0.054547399282455444,0.045761894434690475,0.009033975191414356
1757863033944514300,6.998514404296875,-0.04799575358629227,0.05084560438990593,0.005314604379236698
1757863033954499300,7.008499267578125,-0.015839949250221252,0.05010044947266579,0.0005797701887786388
1757863033964484000,7.018484130859375,0.007820905186235905,0.039559394121170044,-0.001336107961833477
1757863033974470100,7.02847021484375,0.021083714440464973,0.03340935707092285,0.001534779672510922
1757863033984455200,7.038455078125,0.031501468271017075,0.02426113188266754,0.009441970847547054
1757863033994440200,7.048440185546875,0.03936365246772766,0.0037406759802252054,0.010465158149600029
1757863034004425200,7.05842529296875,0.03713991120457649,-0.013392237946391106,0.006932208314538002
1757863034014411300,7.068411376953125,0.021015536040067673,-0.03298671171069145,0.001019990653730929
1757863034024396300,7.078396240234375,0.003585680155083537,-0.03813806548714638,-0.00698041170835495
1757863034034381000,7.088381103515625,-0.0037771612405776978,-0.028267590329051018,-0.010133860632777214
1757863034044366000,7.098365966796875,0.0019022959750145674,-0.004286357667297125,-0.015470302663743496
1757863034054352400,7.108352294921875,-0.0024226775858551264,0.008862201124429703,-0.011455054394900799
1757863034064337200,7.118337158203125,-0.009327988140285015,0.023068834096193314,-0.004326038993895054
1757863034074322200,7.128322265625,-0.014375210739672184,0.033730532974004745,0.00017896443023346364
1757863034084308200,7.13830810546875,-0.021267471835017204,0.0391886830329895,-0.00022849922243040055
1757863034094293000,7.14829296875,-0.027845479547977448,0.030735274776816368,-0.009412409737706184
1757863034104278000,7.158278076171875,-0.026086993515491486,0.0244267787784338,-0.016588829457759857
1757863034114263300,7.16826318359375,-0.022902386263012886,0.018510833382606506,-0.02154630422592163
1757863034124249300,7.178249267578125,-0.01474672183394432,-0.004216050263494253,-0.021220600232481956
1757863034134234000,7.188234130859375,-0.004441886208951473,-0.020897025242447853,-0.01076982356607914
1757863034144219100,7.19821923828125,-0.0025150892324745655,-0.014473214745521545,-0.0005528722540475428
1757863034154205200,7.208205078125,-0.006552441511303186,0.007788680959492922,0.0017174725653603673
1757863034164190200,7.218190185546875,-0.014592524617910385,0.03496464341878891,-0.004874383565038443
1757863034174175200,7.22817529296875,-0.02286962978541851,0.04572807252407074,-0.01731986738741398
1757863034184160300,7.23816015625,-0.029525134712457657,0.0458654910326004,-0.025740250945091248
1757863034194146000,7.24814599609375,-0.03507090359926224,0.03453906998038292,-0.028170650824904442
1757863034204131000,7.258131103515625,-0.03611353039741516,0.03862489014863968,-0.02841299958527088
1757863034214116000,7.2681162109375,-0.06602083146572113,0.08147861063480377,-0.025363679975271225
1757863034224102100,7.27810205078125,-0.07818641513586044,0.09194030612707138,-0.015657523646950722
1757863034234087200,7.288087158203125,-0.0624745637178421,0.09300077706575394,-0.010071275755763054
1757863034244072200,7.298072265625,-0.025246234610676765,0.05005597695708275,-0.004342017695307732
1757863034254057200,7.30805712890625,0.018213357776403427,-0.0030037793330848217,-0.0032205607276409864
1757863034264043000,7.31804296875,0.04338236153125763,-0.042212966829538345,-0.0016706009628251195
1757863034274028300,7.3280283203125,0.052804891020059586,-0.055388957262039185,-0.00015632755821570754
1757863034284013300,7.338013427734375,0.03647012636065483,-0.029732596129179,0.004092745948582888
1757863034293998300,7.347998291015625,0.010321879759430885,-0.013830594718456268,-0.002603772561997175
1757863034303984000,7.357984130859375,-0.0033337450586259365,0.008087487891316414,-0.0062214103527367115
1757863034313969200,7.36796923828125,-0.006900250446051359,0.030361900106072426,0.00039760995423421264
1757863034323954200,7.3779541015625,-0.016271380707621574,0.03165566548705101,0.0059630838222801685
1757863034333940200,7.387940185546875,-0.008264055475592613,0.01050244178622961,0.0065263425931334496
1757863034343925200,7.39792529296875,0.002843989757820964,-0.01768924854695797,0.002251968951895833
1757863034353910300,7.40791015625,0.019298329949378967,-0.05186799168586731,-0.010760235600173473
1757863034363895300,7.417895263671875,0.03622724488377571,-0.06858145445585251,-0.018966499716043472
1757863034373881000,7.427881103515625,0.029377330094575882,-0.0653931200504303,-0.02177400514483452
1757863034383866400,7.437866455078125,0.0019856528379023075,-0.043434027582407,-0.024035029113292694
1757863034393851400,7.447851318359375,-0.028110196813941002,0.0004846953088417649,-0.022792397066950798
1757863034403836200,7.457836181640625,-0.03490498661994934,0.03008919209241867,-0.022581208497285843
1757863034413822200,7.467822265625,-0.03299523517489433,0.03418859839439392,-0.022584404796361923
1757863034423807200,7.47780712890625,-0.02509070560336113,0.022948192432522774,-0.01788073033094406
1757863034433792000,7.4877919921875,-0.013938185758888721,0.009325324557721615,-0.017316140234470367
1757863034443778300,7.4977783203125,0.0025454494170844555,-0.013334447517991066,-0.02003336325287819
1757863034453763300,7.507763427734375,0.000018109494703821838,-0.00657481187954545,-0.021763619035482407
1757863034463748000,7.517748046875,-0.010118413716554642,-0.0025936525780707598,-0.028064923360943794
1757863034473733000,7.527733154296875,-0.01864638924598694,0.008359662257134914,-0.034438133239746094
1757863034483719400,7.537719482421875,-0.03250734135508537,0.025738386437296867,-0.03400323912501335
1757863034493704200,7.5477041015625,-0.0374365895986557,0.04169125482439995,-0.02520788460969925
1757863034503689200,7.557689208984375,-0.04259779304265976,0.06710899621248245,-0.024094417691230774
1757863034513675300,7.56767529296875,-0.059112321585416794,0.08468452841043472,-0.025552764534950256
1757863034523660300,7.577660400390625,-0.0658879354596138,0.08391860127449036,-0.031259119510650635
1757863034533645300,7.587645263671875,-0.08156756311655045,0.0871380940079689,-0.03855351731181145
1757863034543630300,7.59763037109375,-0.08184906095266342,0.08961803466081619,-0.028862275183200836
1757863034553616400,7.607616455078125,-0.06862140446901321,0.10390136390924454,-0.013498231768608093
1757863034563601200,7.61760107421875,-0.06486048549413681,0.054481349885463715,-0.02195563167333603
1757863034573586200,7.627586181640625,-0.052193429321050644,0.05037422478199005,-0.022333534434437752
1757863034583572500,7.637572509765625,-0.043060384690761566,0.08599160611629486,-0.01702478900551796
1757863034593557200,7.64755712890625,-0.05359797924757004,0.1076124832034111,-0.014421815983951092
1757863034603542300,7.657542236328125,-0.05449972674250603,0.09381970018148422,-0.017361413687467575
1757863034613527300,7.66752734375,-0.06554998457431793,0.07451444864273071,-0.011362909339368343
1757863034623513300,7.677513427734375,-0.0626591220498085,0.01576378382742405,-0.002679672557860613
1757863034633498000,7.687498046875,-0.03693990781903267,-0.028114991262555122,0.0025917883031070232
1757863034643483100,7.697483154296875,0.0015925703337416053,-0.06947281956672668,0.00042557314736768603
1757863034653468400,7.707468505859375,0.022666962817311287,-0.08917222172021866,0.002326271263882518
1757863034663454200,7.7174541015625,0.02907373011112213,-0.07320576906204224,0.000642354425508529
1757863034673439200,7.727439208984375,0.018684737384319305,-0.04854835942387581,-0.0005494101205840707
1757863034683424300,7.73742431640625,0.013785853050649166,-0.03609568625688553,0.004884237423539162
