time,seconds_elapsed,z,y,x
1757768747738787600,25.07378759765625,1.691191792488098,1.3530479669570925,-0.1507089585065841
1757768747748744700,25.08374462890625,1.7751234769821167,1.3254845142364502,-0.1631203442811966
1757768747758701800,25.093701904296875,1.848555326461792,1.302595853805542,-0.1840214431285858
1757768747768658700,25.10365869140625,1.9081147909164429,1.2668567895889282,-0.2233877629041671
1757768747778615800,25.11361572265625,1.9478445053100584,1.254058003425598,-0.2835788130760193
1757768747788572700,25.12357275390625,1.9734705686569212,1.2550194263458252,-0.3599324524402618
1757768747798529500,25.133529541015623,1.98357355594635,1.296459078788757,-0.4364635944366455
1757768747808486700,25.143486572265623,1.98157012462616,1.3669010400772097,-0.5148385763168335
1757768747818443800,25.15344384765625,1.960318207740784,1.4732236862182615,-0.5895493030548096
1757768747828400600,25.163400634765622,1.931067943572998,1.5792726278305054,-0.6627126932144165
1757768747838357800,25.173357666015622,1.882005333900452,1.6421880722045898,-0.7293109893798828
1757768747848315000,25.18331494140625,1.8113399744033811,1.6912204027175903,-0.7754366397857666
1757768747858271500,25.193271484375,1.7195429801940918,1.7030645608901978,-0.811693012714386
1757768747868228600,25.203228515625,1.638011813163757,1.7007780075073242,-0.8256530165672302
1757768747878185700,25.213185791015626,1.5783309936523438,1.6166938543319702,-0.8252004981040955
1757768747888142600,25.223142578125,1.5243666172027588,1.5038034915924072,-0.816948652267456
1757768747898099700,25.233099609375,1.4628710746765137,1.371105670928955,-0.8075019717216492
1757768747908056300,25.243056396484373,1.403901219367981,1.1971133947372437,-0.8052198886871338
1757768747918013400,25.253013427734373,1.3524519205093384,0.9602080583572388,-0.8070877194404602
1757768747927970000,25.262969970703125,1.3120321035385132,0.6852182745933533,-0.8036077618598938
1757768747937927200,25.27292724609375,1.2685171365737915,0.3900741934776306,-0.7964158058166504
1757768747947884300,25.28288427734375,1.2061752080917358,0.1619129180908203,-0.7686979174613953
1757768747957841200,25.292841064453125,1.1032689809799194,-0.0626512095332145,-0.7345896363258362
1757768747967798300,25.30279833984375,0.9574589133262634,-0.1940521150827407,-0.6826667785644531
1757768747977755400,25.31275537109375,0.7809728980064392,-0.2350939661264419,-0.61712646484375
1757768747987712300,25.322712158203124,0.618556797504425,-0.2046737372875213,-0.5493455529212952
1757768747997669000,25.332669189453124,0.516339898109436,-0.1669072210788726,-0.4822956025600433
1757768748007626200,25.342626220703124,0.4512956738471985,-0.0378805249929428,-0.3966811001300812
1757768748017583000,25.3525830078125,0.3701593279838562,0.1248809322714805,-0.2980935573577881
1757768748027540200,25.362540283203124,0.2705880105495453,0.3031635880470276,-0.1939759403467178
1757768748037497300,25.372497314453124,0.1544125527143478,0.4509950578212738,-0.0975516512989997
1757768748047454500,25.382454345703124,0.007989558391273,0.5525976419448853,-0.0068947188556194
1757768748057411000,25.3924111328125,-0.1583648473024368,0.590770959854126,0.0689224153757095
1757768748067368200,25.4023681640625,-0.3215460479259491,0.6224024295806885,0.1355509757995605
1757768748077325300,25.4123251953125,-0.4657499194145202,0.6138075590133667,0.1985950171947479
1757768748087282200,25.4222822265625,-0.5967268347740173,0.5338272452354431,0.2508164048194885
1757768748097239300,25.4322392578125,-0.7263950705528259,0.3679808676242828,0.2927001714706421
1757768748107197200,25.442197265625,-0.8606429100036621,0.1267533302307129,0.3217219710350036
1757768748117153300,25.4521533203125,-0.9933053255081176,-0.1564922779798507,0.3473675847053528
1757768748127111200,25.46211108398437,-1.1173155307769775,-0.4513484239578247,0.3715336322784424
1757768748137068300,25.472068359375,-1.2224655151367188,-0.7395539879798889,0.3905292451381683
1757768748147025400,25.482025390625,-1.299914002418518,-1.0203758478164673,0.4092012047767639
1757768748156982300,25.49198217773437,-1.3603683710098269,-1.2844749689102173,0.4271025657653808
1757768748166939100,25.50193920898437,-1.4244613647460938,-1.5368616580963137,0.4443886280059814
1757768748176896300,25.51189624023437,-1.504767656326294,-1.772957444190979,0.4544140696525574
1757768748186853000,25.52185302734375,-1.6032122373580933,-1.982272028923035,0.4475111365318298
1757768748196810200,25.53181030273437,-1.7133747339248655,-2.158919334411621,0.4217544198036194
1757768748206767400,25.54176733398437,-1.8316102027893064,-2.283100843429565,0.3996776044368744
1757768748216724200,25.55172412109375,-1.9454904794692995,-2.3488874435424805,0.3871425688266754
1757768748226681300,25.56168139648437,-2.0525081157684326,-2.375149726867676,0.3879636228084564
1757768748236638200,25.57163818359375,-2.1443002223968506,-2.381436586380005,0.3936938047409057
1757768748246595000,25.58159497070313,-2.19692063331604,-2.379375696182251,0.3866961002349853
1757768748256552200,25.59155224609375,-2.205221652984619,-2.4086356163024902,0.3708198070526123
1757768748266509300,25.60150927734375,-2.1903395652771,-2.452061653137207,0.3461719751358032
1757768748276466200,25.61146606445313,-2.1595590114593506,-2.519087791442871,0.311286449432373
1757768748286423300,25.62142333984375,-2.131636381149292,-2.585244655609131,0.2735558748245239
1757768748296380200,25.631380126953125,-2.103134870529175,-2.6500864028930664,0.2492723912000656
1757768748306337300,25.641337158203125,-2.0652120113372803,-2.7226638793945312,0.2310350686311721
1757768748316294100,25.651294189453125,-2.026435852050781,-2.7584035396575928,0.2161483019590377
1757768748326251300,25.661251220703125,-1.9898303747177124,-2.724785804748535,0.1948941498994827
1757768748336208400,25.67120849609375,-1.963235020637512,-2.674952268600464,0.1583539992570877
1757768748346165200,25.681165283203125,-1.9490734338760376,-2.5939629077911377,0.1176169589161872
1757768748356122400,25.691122314453125,-1.941522240638733,-2.48244309425354,0.0789848193526268
1757768748366079200,25.701079345703125,-1.9487141370773315,-2.333564758300781,0.0319278240203857
1757768748376036000,25.7110361328125,-1.9781523942947388,-2.1630783081054688,-0.0145383607596158
1757768748385993200,25.7209931640625,-2.0173897743225098,-1.9795790910720823,-0.0529957376420497
1757768748395950300,25.730950439453125,-2.0441794395446777,-1.7820838689804075,-0.0823900029063224
1757768748405907200,25.7409072265625,-2.060154676437378,-1.5974831581115725,-0.1045491024851799
1757768748415864300,25.7508642578125,-2.058746576309204,-1.4069768190383911,-0.1163798123598098
1757768748425821200,25.7608212890625,-2.042177438735962,-1.2300291061401367,-0.1160288155078888
1757768748435778000,25.77077807617188,-2.012641668319702,-1.0598567724227903,-0.1131402626633644
1757768748445735200,25.78073510742188,-1.9683295488357544,-0.8889362812042236,-0.1065409481525421
1757768748455692300,25.7906923828125,-1.9043561220169067,-0.7342808842658997,-0.0950891152024269
1757768748465649200,25.80064916992188,-1.8194185495376587,-0.6025753021240234,-0.0806273519992828
1757768748475606300,25.81060620117188,-1.725751876831055,-0.4950791299343109,-0.0601236969232559
1757768748485563400,25.8205634765625,-1.617550015449524,-0.3718221783638,-0.0367339514195919
1757768748495520300,25.830520263671875,-1.5227868556976318,-0.2732295393943786,-0.0022558039054274
1757768748505477000,25.84047705078125,-1.432953119277954,-0.1734685748815536,0.0396189428865909
1757768748515434200,25.850434326171875,-1.346333146095276,-0.0965569391846656,0.0876590088009834
1757768748525391400,25.860391357421875,-1.2249878644943235,-0.0551423802971839,0.1266689896583557
1757768748535348200,25.87034814453125,-1.038810968399048,-0.0217924378812313,0.150939255952835
1757768748545305300,25.880305419921875,-0.8041350841522217,0.0089335171505808,0.1639213562011718
1757768748555262200,25.89026220703125,-0.5602827072143555,0.0643429532647132,0.157511681318283
1757768748565219000,25.900218994140623,-0.3079791069030761,0.1612655073404312,0.1385193467140197
1757768748575176200,25.91017626953125,-0.0470817908644676,0.2864440977573395,0.1226120367646217
1757768748585133300,25.92013330078125,0.2055632472038269,0.4029587209224701,0.1172747910022735
1757768748595090200,25.930090087890623,0.3932106494903564,0.549977719783783,0.1445377767086029
1757768748605047300,25.94004736328125,0.5157620906829834,0.7156747579574585,0.1727481186389923
1757768748615004400,25.95000439453125,0.6321242451667786,0.8856679797172546,0.1680037379264831
1757768748624961000,25.9599609375,0.7835422158241272,1.0672789812088013,0.1281985342502594
1757768748634918100,25.969918212890622,0.9375600814819336,1.3175479173660278,0.0931006669998169
1757768748644875300,25.979875244140626,1.082112193107605,1.618363380432129,0.0601690858602523
1757768748654832400,25.989832275390626,1.2640231847763062,1.8945506811141968,0.0252292528748512
1757768748664789200,25.999789306640626,1.5040816068649292,2.0927746295928955,-0.0015938383294269
1757768748674746400,26.009746337890626,1.7375187873840332,2.198319673538208,-0.000574113917537
1757768748684703200,26.019703125,1.8936647176742556,2.211139678955078,0.0350994616746902
1757768748694660000,26.02966015625,1.9420582056045528,2.1303529739379883,0.1079436093568801
1757768748704617200,26.0396171875,1.8836157321929927,1.9865598678588867,0.1940731704235077
1757768748714574300,26.04957421875,1.7556577920913696,1.8277150392532349,0.2600840628147125
1757768748724531200,26.05953125,1.6186178922653198,1.6771351099014282,0.2759788632392883
1757768748734488300,26.06948828125,1.5180001258850098,1.5440876483917236,0.2284046858549118
1757768748744445400,26.079445556640625,1.4503179788589478,1.4392374753952026,0.1266240030527115
1757768748754402000,26.089402099609377,1.4106950759887695,1.3412569761276243,-0.0032953759655356
1757768748764359200,26.099359130859376,1.392712950706482,1.2606418132781982,-0.1310874223709106
1757768748774316300,26.10931640625,1.4015109539031982,1.211894392967224,-0.2230933010578155
1757768748784273200,26.119273193359376,1.4431543350219729,1.1593185663223269,-0.2764106094837188
1757768748794230300,26.129230224609376,1.5123096704483032,1.1280063390731812,-0.2999885976314544
1757768748804187400,26.1391875,1.6001657247543335,1.1077899932861328,-0.3051660656929016
1757768748814144300,26.149144287109376,1.6936402320861816,1.1122182607650757,-0.3154730200767517
1757768748824101000,26.15910107421875,1.782381296157837,1.1264318227767944,-0.3333156704902649
1757768748834058200,26.169058349609376,1.850947618484497,1.1397768259048462,-0.3708187937736511
1757768748844015400,26.179015380859376,1.8995920419692995,1.141417145729065,-0.4259728789329529
1757768748853972200,26.18897216796875,1.9348706007003784,1.135340690612793,-0.4992183744907379
1757768748863929300,26.198929443359376,1.959204196929932,1.1185991764068604,-0.5762404799461365
1757768748873886500,26.208886474609372,1.977869987487793,1.1329948902130127,-0.652117133140564
1757768748883842300,26.21884228515625,1.987210273742676,1.1705948114395142,-0.7193542122840881
1757768748893799400,26.22879931640625,1.9850126504898071,1.2247745990753174,-0.7676208019256592
1757768748903756000,26.238756103515627,1.9781304597854612,1.2947725057601929,-0.8013609051704407
1757768748913713200,26.248713134765627,1.9685148000717163,1.388749361038208,-0.8177629113197327
1757768748923670300,26.258670166015627,1.9563764333724976,1.5032689571380615,-0.8154875040054321
1757768748933627100,26.268627197265623,1.931270718574524,1.5998852252960205,-0.8055629730224609
1757768748943584300,26.278584228515623,1.9049943685531616,1.6810303926467896,-0.798827052116394
1757768748953541400,26.288541259765623,1.876242518424988,1.7424485683441162,-0.7920382618904114
1757768748963498200,26.298498291015623,1.837597370147705,1.7621474266052246,-0.7780057787895203
1757768748973455000,26.308455078125,1.7774758338928225,1.712994933128357,-0.7626194953918457
1757768748983412200,26.318412109375,1.7123039960861206,1.6230535507202148,-0.7509029507637024
1757768748993369000,26.328369140625,1.651486873626709,1.49980628490448,-0.7413554787635803
1757768749003326200,26.338326171875,1.5816481113433838,1.3773847818374634,-0.7193084955215454
1757768749013283300,26.348283447265626,1.5132941007614136,1.270196557044983,-0.6841416954994202
1757768749023240200,26.358240234375,1.4519606828689575,1.1833080053329468,-0.6422552466392517
1757768749033197000,26.368197021484374,1.389581561088562,1.1318544149398804,-0.590003490447998
1757768749043154200,26.378154296875,1.3174426555633545,1.0730565786361694,-0.5239328145980835
1757768749053111300,26.388111328125,1.234726071357727,1.0131361484527588,-0.4445500075817108
1757768749063068200,26.398068115234373,1.1380205154418943,0.9267951250076294,-0.3495784997940063
1757768749073025300,26.408025390625,1.007442593574524,0.7922124266624451,-0.2448772639036178
1757768749082982400,26.417982421875,0.8291951417922974,0.620147705078125,-0.1443469375371933
1757768749092939300,26.427939208984377,0.5950260758399963,0.441320925951004,-0.0549033395946025
1757768749102896000,26.437896240234377,0.3295422196388244,0.271004855632782,0.0204103197902441
1757768749112853200,26.447853271484377,0.0858521535992622,0.1661839932203292,0.084471046924591
1757768749122810000,26.45781005859375,-0.0913338065147399,0.16562020778656,0.1499770730733871
1757768749132767200,26.467767333984376,-0.1776796281337738,0.2636379897594452,0.2190946638584137
1757768749142724400,26.477724365234376,-0.2023061513900756,0.4395632147789001,0.2826485931873321
1757768749152681200,26.48768115234375,-0.1952948272228241,0.6365430951118469,0.3385497629642486
1757768749162638000,26.49763818359375,-0.1671382933855056,0.7686052918434143,0.3827864825725555
1757768749172595200,26.50759521484375,-0.1540717929601669,0.762528121471405,0.4054963886737823
1757768749182552000,26.517552001953124,-0.201214000582695,0.624083936214447,0.4076146781444549
1757768749192509200,26.52750927734375,-0.3083915710449219,0.3411399722099304,0.3978347182273865
1757768749202466300,26.53746630859375,-0.4552630484104156,-0.0821875855326652,0.3908380568027496
1757768749212423200,26.547423095703124,-0.644599974155426,-0.6132417321205139,0.390896201133728
1757768749222380300,26.55738037109375,-0.8781927824020386,-1.1965773105621338,0.3960060179233551
1757768749232337200,26.567337158203124,-1.1417906284332275,-1.7809906005859375,0.4114270210266113
1757768749242294300,26.577294189453124,-1.4153082370758057,-2.330554723739624,0.4398456215858459
1757768749252251100,26.587251220703124,-1.6600573062896729,-2.807689905166626,0.4671855866909027
1757768749262208300,26.597208251953123,-1.8589088916778564,-3.185142993927002,0.4783762097358703
1757768749272165400,26.607165283203123,-2.01116681098938,-3.441652297973633,0.4631742238998413
1757768749282122200,26.617122314453123,-2.121143579483032,-3.5554966926574707,0.4345287382602691
1757768749292078300,26.627078369140627,-2.207146406173706,-3.534782886505127,0.407553106546402
1757768749302035200,26.63703515625,-2.2837018966674805,-3.4312307834625244,0.3861444890499115
1757768749311992000,26.64699194335937,-2.347022771835327,-3.2594473361968994,0.3747674226760864
1757768749321949200,26.65694921875,-2.389190673828125,-3.084322690963745,0.3596601188182831
1757768749331906300,26.66690625,-2.4117143154144287,-2.9171102046966557,0.3260345458984375
1757768749341863200,26.67686328125,-2.3905951976776123,-2.7897093296051025,0.263644129037857
1757768749351820300,26.6868203125,-2.3427674770355225,-2.7204811573028564,0.182536780834198
1757768749361777400,26.69677734375,-2.2964162826538086,-2.636105298995972,0.1157015487551689
1757768749371734000,26.70673413085937,-2.243228912353516,-2.5129287242889404,0.0594766624271869
1757768749381691100,26.71669116210937,-2.1959502696990967,-2.402709722518921,0.009754647500813
1757768749391648300,26.72664819335937,-2.153197288513184,-2.253777980804444,-0.0121821342036128
1757768749401605000,26.736605224609374,-2.1159746646881104,-2.097235918045044,-0.0139848282560706
1757768749411562200,26.746562255859374,-2.0793497562408447,-1.9255300760269165,-0.0165036227554082
1757768749421519400,26.756519287109374,-2.047276020050049,-1.7671101093292236,-0.0195108633488416
1757768749431476200,26.766476318359373,-2.0107808113098145,-1.618208408355713,-0.0314804762601852
1757768749441433000,26.77643310546875,-1.979733943939209,-1.4896844625473022,-0.0568284429609775
1757768749451390200,26.78639013671875,-1.9640904664993288,-1.357829213142395,-0.0834313482046127
1757768749461347000,26.79634716796875,-1.974966526031494,-1.2521363496780396,-0.1118009388446807
1757768749471304200,26.80630419921875,-2.004158735275269,-1.1689399480819702,-0.1445441246032714
1757768749481261300,26.81626123046875,-2.0327024459838867,-1.1223626136779783,-0.1778014153242111
1757768749491218200,26.82621826171875,-2.043874263763428,-1.0686302185058594,-0.2001261711120605
1757768749501175000,26.836175048828125,-2.0291173458099365,-0.9892732501029968,-0.2026575058698654
1757768749511132200,26.846132080078124,-1.98770010471344,-0.8812318444252014,-0.1858211010694503
1757768749521089300,26.85608935546875,-1.9282886981964111,-0.7589842081069946,-0.1503371447324752
1757768749531046100,26.866046142578124,-1.8584638833999636,-0.6395466327667236,-0.1151708662509918
1757768749541003300,26.876003173828124,-1.7864423990249634,-0.546119213104248,-0.0795414969325065
1757768749550960400,26.88596044921875,-1.7012581825256348,-0.4757319092750549,-0.0433344841003418
1757768749560917200,26.895917236328124,-1.6054195165634155,-0.4217006266117096,-0.0016506866086274
1757768749570873300,26.905873291015624,-1.4876354932785034,-0.3638765215873718,0.0377787537872791
1757768749580830200,26.915830322265624,-1.361688256263733,-0.3278087973594665,0.0641813352704048
1757768749590787000,26.925787109375,-1.2399948835372925,-0.3391445279121399,0.0696639865636825
1757768749600744200,26.935744140625,-1.1162023544311523,-0.3884444534778595,0.0566304735839366
1757768749610701000,26.945701171875,-0.9644508361816406,-0.4446016252040863,0.0228002592921257
1757768749620658200,26.955658203125,-0.7646732330322266,-0.4497175514698028,-0.0055594756267964
1757768749630615300,26.965615234375,-0.5139704942703247,-0.3573578000068664,-0.0092174801975488
1757768749640572400,26.975572509765627,-0.2188427299261093,-0.1670078337192535,-0.0154990777373313
1757768749650529000,26.98552905273437,0.1007601916790008,0.0721650570631027,-0.0300166644155979
1757768749660486100,26.99548608398437,0.4078128039836883,0.3187940120697021,-0.034236442297697
1757768749670443300,27.005443359375,0.637100100517273,0.5649709105491638,-0.0076341540552675
1757768749680400100,27.01540014648437,0.7553125023841858,0.8316094875335693,0.0447992272675037
1757768749690357200,27.02535717773437,0.8008280992507935,1.1016448736190796,0.082586646080017
1757768749700314400,27.035314453125,0.8610115051269531,1.3798681497573853,0.0862378403544426
1757768749710271200,27.04527124023437,0.960131287574768,1.6786051988601685,0.0718582049012184
1757768749720228000,27.05522802734375,1.0814201831817627,2.010716199874878,0.0467251539230346
1757768749730185200,27.06518530273437,1.2381627559661863,2.343865156173706,0.0128310900181531
1757768749740142000,27.07514208984375,1.4827378988265991,2.62709903717041,-0.0140820173546671
1757768749750099200,27.08509912109375,1.7898797988891602,2.805232524871826,-0.019942382350564
1757768749760056300,27.09505639648437,2.0577173233032227,2.849370241165161,0.02245301194489
1757768749770013200,27.10501318359375,2.23072361946106,2.774080991744995,0.1258941292762756
1757768749779970000,27.114969970703125,2.2871253490448,2.612192153930664,0.2715416252613067
1757768749789927200,27.12492724609375,2.2286605834960938,2.369947910308838,0.4226690828800201
1757768749799883000,27.134883056640625,2.092635154724121,2.0943002700805664,0.5538026094436646
1757768749809840000,27.144840087890625,1.9182363748550413,1.8515167236328125,0.6357369422912598
1757768749819797200,27.15479736328125,1.730013132095337,1.6532182693481443,0.6431146860122681
1757768749829754000,27.164754150390625,1.542771816253662,1.4908748865127563,0.5515852570533752
1757768749839711200,27.174711181640625,1.357862949371338,1.3384575843811035,0.37923264503479
1757768749849668400,27.18466845703125,1.202383279800415,1.189754605293274,0.1873293220996856
1757768749859625200,27.194625244140624,1.1132360696792605,1.06056010723114,0.021901998668909
1757768749869582000,27.20458203125,1.1100698709487915,0.9514926671981812,-0.0794528722763061
1757768749879539200,27.214539306640624,1.1724767684936523,0.889789342880249,-0.1222322955727577
1757768749889496000,27.22449609375,1.2830722332000732,0.8966831564903259,-0.1286885291337967
1757768749899453200,27.234453125,1.4040412902832031,0.9488813877105712,-0.1277801245450973
1757768749909411000,27.2444111328125,1.502690076828003,1.0315080881118774,-0.146796315908432
1757768749919368000,27.25436791992188,1.5713940858840942,1.1282508373260498,-0.1892481744289398
1757768749929324800,27.26432470703125,1.619043469429016,1.2260475158691406,-0.2652589380741119
1757768749939282000,27.27428198242188,1.6522715091705322,1.3417876958847046,-0.3767876029014587
1757768749949239000,27.28423901367188,1.667378067970276,1.459491491317749,-0.518478274345398
1757768749959196000,27.29419580078125,1.6707922220230105,1.5481781959533691,-0.6785722970962524
1757768749969153000,27.304153076171875,1.6719824075698853,1.6575804948806765,-0.8375740051269531
1757768749979110000,27.31410986328125,1.6753818988800049,1.760905385017395,-0.9795181155204772
1757768749989066000,27.32406591796875,1.6783329248428345,1.8134275674819944,-1.100826621055603
1757768749999022800,27.33402294921875,1.6832621097564695,1.8549891710281368,-1.200936198234558
1757768750008980000,27.34397998046875,1.6876975297927856,1.88361132144928,-1.2689448595046997
1757768750018936800,27.353936767578126,1.683774471282959,1.8851256370544436,-1.308982014656067
1757768750028894000,27.36389404296875,1.6659454107284546,1.8687502145767207,-1.3185174465179443
1757768750038851000,27.37385107421875,1.652775526046753,1.792409896850586,-1.3193496465682983
1757768750048808000,27.38380786132813,1.6376254558563232,1.656572699546814,-1.308068871498108
1757768750058765000,27.39376513671875,1.6013751029968262,1.4922324419021606,-1.285205602645874
1757768750068722000,27.40372192382813,1.5373622179031372,1.319041132926941,-1.245039939880371
1757768750078678800,27.4136787109375,1.4750969409942627,1.1407326459884644,-1.1991245746612549
1757768750088636000,27.42363598632813,1.4094451665878296,0.9917287230491638,-1.140048861503601
1757768750098593000,27.43359301757813,1.327921748161316,0.8815697431564331,-1.0664937496185305
1757768750108550100,27.44355004882813,1.2393349409103394,0.8022134900093079,-0.9836441278457642
1757768750118507000,27.45350708007813,1.143872857093811,0.754673421382904,-0.8958205580711365
1757768750128464000,27.4634638671875,1.0449950695037842,0.7040261030197144,-0.8118947148323059
1757768750138421000,27.4734208984375,0.9397701621055604,0.6245829463005066,-0.7250043153762817
1757768750148377900,27.4833779296875,0.8338940739631653,0.5416434407234192,-0.6309042572975159
1757768750158335000,27.4933349609375,0.7213925719261169,0.4210923016071319,-0.5213186144828796
1757768750168290800,27.503290771484377,0.569918692111969,0.3270704746246338,-0.3741765916347503
1757768750178248000,27.513248046875,0.3777858018875122,0.2600384652614593,-0.2007065117359161
1757768750188205000,27.523205078125,0.1721928268671035,0.2273972928524017,-0.0303400307893753
1757768750198162000,27.533161865234376,-0.0238376762717962,0.2521907985210418,0.126258373260498
1757768750208119000,27.543119140625,-0.1653310507535934,0.3335146009922027,0.2776138484477997
1757768750218076000,27.553075927734376,-0.2494976073503494,0.4627492725849151,0.4202027022838592
1757768750228033000,27.563032958984376,-0.2967560887336731,0.6013361811637878,0.5426486134529114
1757768750237990000,27.572989990234376,-0.3133071064949035,0.7013980746269226,0.6163859963417053
1757768750247947000,27.582947021484376,-0.2965778112411499,0.7238656878471375,0.6478333473205566
1757768750257904000,27.592904052734376,-0.2784041464328766,0.6822766661643982,0.656758189201355
1757768750267861000,27.602861083984376,-0.3062224090099334,0.5877698659896851,0.6625084280967712
1757768750277817900,27.61281787109375,-0.3747934699058532,0.4122710525989532,0.6754295229911804
1757768750287775000,27.62277490234375,-0.4694388210773468,0.1195177659392356,0.6967523097991943
1757768750297731800,27.63273193359375,-0.5919322371482849,-0.2857562303543091,0.7153260111808777
1757768750307689000,27.64268896484375,-0.7376716732978821,-0.766609787940979,0.7341253161430359
1757768750317646000,27.65264599609375,-0.9066518545150756,-1.2843724489212036,0.7484406232833862
1757768750327602000,27.662601806640627,-1.0944279432296753,-1.8003212213516235,0.767735481262207
1757768750337559000,27.67255908203125,-1.2862913608551023,-2.2907252311706543,0.7891283631324768
1757768750347516200,27.68251611328125,-1.4585120677947998,-2.7394814491271973,0.7847200632095337
1757768750357473000,27.69247314453125,-1.5966553688049316,-3.1011502742767334,0.7506313323974609
1757768750367430000,27.702429931640623,-1.6964281797409058,-3.344922542572021,0.6933709979057312
1757768750377387000,27.712386962890623,-1.7730286121368408,-3.478357076644897,0.6275032758712769
1757768750387344000,27.72234375,-1.8373727798461916,-3.5119991302490234,0.5729904174804688
1757768750397301000,27.732301025390623,-1.9026676416397093,-3.445577621459961,0.5388156771659851
1757768750407258000,27.742258056640622,-1.956549048423767,-3.313321828842163,0.5168196558952332
1757768750417215000,27.752215087890622,-2.008336544036865,-3.157799482345581,0.4907925426959991
1757768750427171800,27.762171875,-2.0440566539764404,-2.999882459640503,0.4553746879100799
1757768750437129000,27.77212890625,-2.0757951736450195,-2.871309518814087,0.409571498632431
1757768750447085800,27.7820859375,-2.0822720527648926,-2.799379348754883,0.3568727374076843
1757768750457043000,27.79204296875,-2.0887346267700195,-2.7252445220947266,0.3142403066158294
1757768750467000000,27.802,-2.090720891952514,-2.6262872219085693,0.2657778263092041
1757768750476956000,27.811955810546877,-2.090420961380005,-2.5354232788085938,0.2317093461751938
1757768750486913000,27.8219130859375,-2.0837228298187256,-2.4138383865356445,0.2185061573982238
1757768750496870100,27.8318701171875,-2.070016384124756,-2.261962652206421,0.201984703540802
1757768750506826800,27.84182666015625,-2.0454838275909424,-2.1170265674591064,0.1802879720926284
1757768750516783900,27.85178393554688,-2.0217766761779785,-2.0038816928863525,0.1406244486570358
1757768750526741000,27.86174096679688,-2.001816987991333,-1.8711363077163696,0.0721275955438613
1757768750536697900,27.87169775390625,-1.9746809005737305,-1.7377433776855469,-0.0160038620233535
1757768750546655000,27.88165502929688,-1.9437379837036133,-1.591973900794983,-0.1018167659640312
1757768750556612000,27.89161206054688,-1.9129412174224851,-1.454166293144226,-0.1800841242074966
1757768750566569000,27.90156884765625,-1.892797827720642,-1.322352647781372,-0.235954612493515
1757768750576525800,27.91152587890625,-1.885386824607849,-1.17381751537323,-0.2762213349342346
1757768750586483000,27.92148291015625,-1.8706927299499512,-1.0558083057403564,-0.3048822581768036
1757768750596439800,27.931439697265624,-1.8351725339889529,-0.920696496963501,-0.3191125988960266
1757768750606397000,27.94139697265625,-1.7736823558807373,-0.7699551582336426,-0.3183717131614685
1757768750616353000,27.95135302734375,-1.6884098052978516,-0.6047313213348389,-0.3082916438579559
1757768750626310000,27.961309814453124,-1.5927811861038208,-0.435452401638031,-0.286651611328125
1757768750636267000,27.97126708984375,-1.491896629333496,-0.2762728929519653,-0.2651218175888061
1757768750646224100,27.98122412109375,-1.3836745023727417,-0.1458162069320678,-0.2396849244832992
1757768750656180700,27.9911806640625,-1.2655489444732666,-0.0387909524142742,-0.2043016254901886
1757768750666137900,28.001137939453123,-1.139942646026611,0.054464217275381,-0.1647116243839264
1757768750676095000,28.011094970703127,-1.0127553939819336,0.0946316123008728,-0.1240968182682991
1757768750686051800,28.0210517578125,-0.8918530344963074,0.0600444041192531,-0.0818478167057037
1757768750696009000,28.031009033203127,-0.7805179953575134,-0.0270588062703609,-0.0479308702051639
1757768750705966000,28.040966064453126,-0.653360903263092,-0.1201242431998252,-0.0392126217484474
1757768750715923000,28.0509228515625,-0.4853548109531402,-0.1460881978273391,-0.036761712282896
1757768750725879800,28.0608798828125,-0.2720487415790558,-0.0756461098790168,-0.0326465778052806
1757768750735837000,28.0708369140625,-0.0037360785063356,0.0727737247943878,-0.0133309373632073
1757768750745794000,28.0807939453125,0.2820112109184265,0.2750821411609649,0.0230846721678972
1757768750755750000,28.09075,0.5384107828140259,0.5110188126564026,0.0748605206608772
1757768750765707000,28.10070703125,0.7375445365905762,0.7751062512397766,0.1329392939805984
1757768750775663900,28.11066381835937,0.8963876962661743,1.0523535013198853,0.1718510091304779
1757768750785621000,28.12062109375,1.045647382736206,1.3247085809707642,0.1807000786066055
1757768750795578000,28.130578125,1.20176899433136,1.592220425605774,0.1686282455921173
1757768750805534700,28.14053466796875,1.356601595878601,1.82047975063324,0.1525267511606216
1757768750815491800,28.150491943359373,1.5102941989898682,1.974526047706604,0.1316065639257431
1757768750825449000,28.160448974609373,1.674682378768921,2.022839069366455,0.1087758541107177
1757768750835406000,28.170406005859373,1.8246796131134035,1.9785032272338867,0.1025845408439636
1757768750845363000,28.180363037109377,1.9224739074707031,1.854167342185974,0.1358604282140731
1757768750855320000,28.190320068359377,1.9371272325515747,1.664195895195007,0.2120507955551147
1757768750865277000,28.20027685546875,1.8554918766021729,1.4677934646606443,0.2982765436172485
1757768750875233800,28.21023388671875,1.687076449394226,1.3164005279541016,0.3723747134208679
1757768750885190000,28.22018994140625,1.4557089805603027,1.2238625288009644,0.4075159430503845
1757768750895146800,28.230146728515624,1.202828049659729,1.1693085432052612,0.3960171937942505
1757768750905104000,28.240103759765624,0.9703500866889954,1.1121846437454224,0.3439798653125763
1757768750915060500,28.250060546875,0.8106879591941833,1.0822062492370603,0.2550843358039856
1757768750925017300,28.260017333984376,0.7697344422340393,1.070024013519287,0.1341693550348281
1757768750934974500,28.269974365234376,0.8552040457725525,1.075801134109497,0.0013966485857963
1757768750944931600,28.279931640625,1.021897554397583,1.099409580230713,-0.1069333329796791
1757768750954888400,28.289888427734372,1.215721607208252,1.1520378589630127,-0.1685886979103088
1757768750964845300,28.29984521484375,1.3877406120300293,1.221526861190796,-0.1942479312419891
1757768750974802400,28.30980249023437,1.517330765724182,1.3356521129608154,-0.2020411342382431
1757768750984759600,28.31975952148437,1.6166757345199585,1.4834738969802856,-0.2143899798393249
1757768750994716400,28.32971630859375,1.6907148361206057,1.6295205354690552,-0.2430940568447113
1757768751004673500,28.33967358398437,1.736985445022583,1.759052038192749,-0.2983128726482391
1757768751014629400,28.34962939453125,1.7587605714797974,1.8111733198165891,-0.3884877562522888
1757768751024586500,28.35958642578125,1.761527180671692,1.8107292652130127,-0.494947612285614
1757768751034543600,28.369543701171875,1.755008578300476,1.7816967964172363,-0.6263730525970459
1757768751044500200,28.379500244140623,1.747796893119812,1.746350646018982,-0.7645002603530884
1757768751054457300,28.389457275390622,1.7456490993499756,1.6707477569580078,-0.9041247367858888
1757768751064414500,28.39941455078125,1.7537518739700315,1.6020867824554443,-1.0231987237930298
1757768751074371300,28.409371337890622,1.7521542310714722,1.5195271968841553,-1.1145163774490356
1757768751084328400,28.419328369140626,1.7318425178527832,1.4890559911727903,-1.1692997217178345
1757768751094285600,28.42928564453125,1.700941801071167,1.465461492538452,-1.202897071838379
1757768751104242700,28.43924267578125,1.652606964111328,1.457343578338623,-1.220181584358215
1757768751114199300,28.44919921875,1.5986881256103516,1.4515637159347534,-1.2237975597381592
1757768751124156400,28.459156494140625,1.5626354217529297,1.4534413814544678,-1.2064683437347412
1757768751134112300,28.4691123046875,1.521827220916748,1.4327088594436646,-1.1775227785110474
1757768751144069400,28.4790693359375,1.4882802963256836,1.3663042783737185,-1.1632239818572998
1757768751154026500,28.489026611328125,1.4598851203918457,1.3119922876358032,-1.1424661874771118
1757768751163983400,28.4989833984375,1.4066627025604248,1.2510828971862793,-1.1138944625854492
1757768751173940500,28.5089404296875,1.345900535583496,1.2074254751205444,-1.0736459493637085
1757768751183897600,28.518897705078125,1.281383395195007,1.1629819869995115,-1.0317381620407104
1757768751193854500,28.5288544921875,1.215296506881714,1.127927541732788,-0.975354790687561
1757768751203811300,28.53881127929688,1.1476041078567505,1.1051136255264282,-0.8993279337882996
1757768751213768400,28.5487685546875,1.080685257911682,1.0728659629821775,-0.8141658902168274
1757768751223725600,28.5587255859375,1.0094081163406372,1.0140613317489624,-0.7199251055717468
1757768751233682400,28.56868237304688,0.9329075217247008,0.907471776008606,-0.6250023245811462
1757768751243639600,28.5786396484375,0.8419008851051331,0.7572070956230164,-0.5213222503662109
1757768751253595400,28.588595458984376,0.718097984790802,0.5776373744010925,-0.4153285026550293
1757768751263552500,28.598552490234376,0.551236629486084,0.3975053429603576,-0.2998689711093902
1757768751273509400,28.60850927734375,0.3491967022418976,0.2373950481414795,-0.1714652180671692
1757768751283466200,28.61846630859375,0.1541012823581695,0.0772035717964172,-0.0418116599321365
1757768751293423400,28.62842333984375,-0.0189320184290409,-0.0187613051384687,0.093170665204525
1757768751303380500,28.63838037109375,-0.1496524810791015,-0.0724535584449768,0.2258866280317306
1757768751313337600,28.64833764648437,-0.2230143100023269,-0.0585926100611686,0.3649212121963501
1757768751323294500,28.65829443359375,-0.2624256610870361,0.0237741023302078,0.4961027204990387
1757768751333251600,28.66825146484375,-0.2900202572345733,0.1539643257856369,0.5897881984710693
1757768751343208400,28.67820849609375,-0.2978603839874267,0.2825067043304443,0.6417011618614197
1757768751353165300,28.688165283203126,-0.2737720906734466,0.3611562252044678,0.67029869556427
1757768751363121400,28.698121337890623,-0.2529603540897369,0.3725832104682922,0.682999312877655
1757768751373078300,28.708078369140622,-0.2866828739643097,0.3220188319683075,0.6949198842048645
1757768751383035400,28.718035400390622,-0.3789985477924347,0.174267441034317,0.7157682180404663
1757768751392992500,28.727992431640622,-0.5073938369750977,-0.0956588461995124,0.7360231876373291
1757768751402949600,28.73794970703125,-0.6531025171279907,-0.4819918274879455,0.7480595707893372
1757768751412906500,28.747906494140626,-0.7971060276031494,-0.9328653216362,0.7482760548591614
1757768751422863400,28.75786328125,-0.927215814590454,-1.3966717720031738,0.74820876121521
1757768751432820500,28.767820556640626,-1.050666332244873,-1.8339101076126096,0.7568701505661011
1757768751442777300,28.77777734375,-1.1827046871185305,-2.24537992477417,0.7676401734352112
1757768751452734500,28.787734375,-1.3249890804290771,-2.6234443187713623,0.7603939771652222
1757768751462691600,28.797691650390625,-1.4728996753692627,-2.972633123397827,0.7286655306816101
1757768751472647400,28.8076474609375,-1.60993230342865,-3.271411180496216,0.6673902273178101
1757768751482604500,28.8176044921875,-1.7240313291549685,-3.5228734016418457,0.5803590416908264
1757768751492561400,28.8275615234375,-1.829652547836304,-3.694587230682373,0.4967674612998962
1757768751502518500,28.8375185546875,-1.9233274459838867,-3.775796890258789,0.4242114126682281
1757768751512475400,28.84747534179688,-2.0046191215515137,-3.7927262783050537,0.3458130061626434
1757768751522432500,28.8574326171875,-2.0642871856689453,-3.750824451446533,0.27556973695755
1757768751532389400,28.86738940429688,-2.1083743572235107,-3.673622131347656,0.2147415429353714
1757768751542346500,28.87734643554688,-2.130900382995605,-3.546229124069214,0.1625415086746215
1757768751552303600,28.8873037109375,-2.14912223815918,-3.3981544971466064,0.1294410824775695
1757768751562260500,28.89726049804688,-2.1529436111450195,-3.2409093379974365,0.0923043116927146
1757768751572217300,28.90721728515625,-2.145174503326416,-3.1008896827697754,0.0677691474556922
1757768751582173400,28.91717333984375,-2.1446752548217773,-2.9258389472961426,0.0518477484583854
1757768751592130300,28.92713037109375,-2.1331348419189453,-2.6941041946411133,0.0341888591647148
1757768751602087400,28.93708740234375,-2.0883755683898926,-2.469404697418213,0.0095284525305032
1757768751612044300,28.947044189453123,-2.0452654361724854,-2.265385389328003,-0.0189404729753732
1757768751622001400,28.95700146484375,-2.032919645309448,-1.982413411140442,-0.0516765266656875
1757768751631958500,28.96695849609375,-2.023024559020996,-1.6917985677719116,-0.0910883769392967
1757768751641915600,28.97691552734375,-2.016328811645508,-1.441662073135376,-0.1342654377222061
1757768751651872500,28.98687255859375,-2.01383113861084,-1.2343535423278809,-0.1696402132511139
1757768751661829400,28.996829345703127,-2.022031307220459,-1.0469324588775637,-0.1967205852270126
1757768751671786500,29.006786376953126,-2.023207187652588,-0.886027455329895,-0.2141858637332916
1757768751681742300,29.016742431640623,-1.9992114305496216,-0.7581984400749207,-0.216831162571907
1757768751691699500,29.026699462890623,-1.9415481090545652,-0.6203771829605103,-0.2149027734994888
1757768751701656300,29.03665625,-1.8516918420791624,-0.4799898564815521,-0.1960884034633636
1757768751711613400,29.046613525390622,-1.743493676185608,-0.3367677330970764,-0.1667291820049286
1757768751721570600,29.056570556640622,-1.6271487474441528,-0.1944104731082916,-0.1245345696806907
1757768751731527700,29.066527587890626,-1.5115516185760498,-0.0577245205640792,-0.0811929479241371
1757768751741484300,29.076484375,-1.3989375829696655,0.0559190176427364,-0.0459007509052753
1757768751751441400,29.08644140625,-1.2939122915267944,0.1293530315160751,-0.0154280606657266
1757768751761398500,29.0963984375,-1.2043378353118896,0.1707947552204132,0.0092419013381004
1757768751771355400,29.10635546875,-1.1266478300094604,0.1807986497879028,0.0183387268334627
1757768751781311500,29.1163115234375,-1.0474456548690796,0.1652998626232147,0.0182306040078401
1757768751791268400,29.12626831054688,-0.9472959637641908,0.138869047164917,0.0266472566872835
1757768751801225500,29.1362255859375,-0.8107700347900391,0.1167893931269645,0.0365855917334556
1757768751811182600,29.1461826171875,-0.6233983039855957,0.121017687022686,0.0408794060349464
1757768751821139500,29.15613940429688,-0.4032394587993622,0.1940463036298751,0.0287883952260017
1757768751831096300,29.16609643554688,-0.1549116671085357,0.3410746157169342,0.0100730322301387
1757768751841053400,29.17605346679688,0.1302174478769302,0.53898024559021,-0.006252980325371
1757768751851010600,29.18601049804688,0.410739928483963,0.754016101360321,-0.0123273842036724
1757768751860967400,29.19596752929688,0.6371184587478638,0.9619896411895752,0.0047291195951402
1757768751870924500,29.20592456054688,0.7798265814781189,1.175167679786682,0.0347442775964736
1757768751880880400,29.21588037109375,0.8634977340698242,1.3829751014709473,0.0471011623740196
1757768751890837500,29.22583740234375,0.9596948623657228,1.549984335899353,0.0297709070146083
1757768751900794600,29.235794677734376,1.0853630304336548,1.699568271636963,0.0047567849978804
1757768751910751200,29.245751220703124,1.1854017972946167,1.865734338760376,0.0103329112753272
1757768751920708400,29.255708251953124,1.2731263637542725,2.036582469940185,0.0176371186971664
1757768751930665200,29.265665283203123,1.4172658920288086,2.1725776195526123,-0.0020859856158494
1757768751940622300,29.275622314453123,1.6367133855819702,2.24478816986084,-0.0343860499560833
1757768751950579500,29.285579345703123,1.848413109779358,2.2389464378356934,-0.0309332609176635
1757768751960536600,29.29553662109375,1.9651261568069456,2.1641316413879395,0.0291404351592063
1757768751970493400,29.305493408203127,1.9588488340377808,2.042543888092041,0.116847388446331
1757768751980449500,29.315449462890623,1.8435271978378296,1.8968329429626465,0.2037122696638107
1757768751990406400,29.325406494140623,1.6663779020309448,1.7614614963531494,0.2491308748722076
1757768752000363300,29.33536328125,1.4841619729995728,1.6324750185012815,0.2352784425020218
1757768752010320400,29.3453203125,1.3346688747406006,1.520129919052124,0.1466231495141983
1757768752020277200,29.35527734375,1.2255282402038574,1.408361792564392,0.0036252485588192
1757768752030234400,29.365234375,1.159203052520752,1.3159596920013428,-0.1636907756328582
1757768752040191500,29.37519140625,1.1456173658370972,1.238848090171814,-0.315318763256073
1757768752050148600,29.385148681640626,1.1919673681259155,1.1959391832351685,-0.4219155311584472
1757768752060105200,29.39510522460937,1.3007270097732544,1.191011667251587,-0.477705717086792
1757768752070061600,29.4050615234375,1.435399293899536,1.2046416997909546,-0.4927094578742981
1757768752080018200,29.41501806640625,1.5735095739364624,1.2727240324020386,-0.4844333231449127
1757768752089975300,29.424975341796877,1.689470291137695,1.379629611968994,-0.49124675989151
1757768752099932400,29.434932373046877,1.7597545385360718,1.4720041751861572,-0.5287678241729736
1757768752109889300,29.44488916015625,1.792316436767578,1.5462216138839722,-0.5973895192146301
1757768752119846400,29.45484643554688,1.7927030324935913,1.5700576305389404,-0.696694552898407
1757768752129803500,29.46480346679688,1.7738829851150513,1.5359153747558594,-0.8154661655426025
1757768752139760000,29.474760009765625,1.741219401359558,1.491808533668518,-0.9360232949256896
1757768752149717200,29.48471728515625,1.7037303447723389,1.4334213733673096,-1.038063406944275
1757768752159674400,29.49467431640625,1.6734602451324463,1.3953180313110352,-1.124058485031128
1757768752169630200,29.504630126953124,1.6575592756271362,1.373690843582153,-1.1847865581512451
1757768752179587300,29.51458740234375,1.641864538192749,1.356747269630432,-1.213291883468628
1757768752189544400,29.52454443359375,1.6211906671524048,1.361650466918945,-1.2106878757476809
1757768752199501300,29.534501220703124,1.5895254611968994,1.3451762199401855,-1.1891013383865356
1757768752209458400,29.54445849609375,1.5341050624847412,1.3450218439102173,-1.1522938013076782
1757768752219415600,29.55441552734375,1.459099531173706,1.3451272249221802,-1.111111760139465
1757768752229372200,29.5643720703125,1.3729606866836548,1.3323479890823364,-1.0564343929290771
1757768752239329300,29.574329345703124,1.293967366218567,1.290450930595398,-1.005263328552246
1757768752249286400,29.584286376953123,1.221748113632202,1.2421199083328247,-0.964860737323761
1757768752259242200,29.5942421875,1.1522146463394165,1.2203893661499023,-0.9406371712684632
1757768752269199400,29.604199462890627,1.0780128240585327,1.2243342399597168,-0.9146681427955629
1757768752279156500,29.614156494140627,1.0000344514846802,1.2685117721557615,-0.8655859231948853
1757768752289113300,29.62411328125,0.9114252924919128,1.3315770626068115,-0.8046522736549377
1757768752299070500,29.634070556640623,0.8207199573516846,1.406664490699768,-0.7321948409080505
1757768752309027300,29.64402734375,0.7150545120239258,1.4970707893371582,-0.6495058536529541
1757768752318984200,29.65398413085937,0.5891876816749573,1.5607380867004397,-0.5732957124710083
1757768752328941300,29.66394140625,0.4463883936405182,1.603713035583496,-0.5059994459152222
1757768752338898400,29.6738984375,0.2883670926094055,1.6163769960403442,-0.4350884854793548
1757768752348854300,29.683854248046877,0.1229927763342857,1.5776386260986328,-0.3559041917324066
1757768752358811400,29.693811279296877,-0.0417619980871677,1.474009990692139,-0.2718346416950226
1757768752368768500,29.7037685546875,-0.1754494756460189,1.3306770324707031,-0.1820690631866455
1757768752378725400,29.713725341796877,-0.2442020028829574,1.1585482358932495,-0.0886435434222221
1757768752388682200,29.72368212890625,-0.2386762052774429,0.9918527007102966,0.0112170055508613
1757768752398639400,29.733639404296877,-0.1911184936761856,0.8654934763908386,0.114227570593357
1757768752408596200,29.74359619140625,-0.1485776901245117,0.7696718573570251,0.2058901190757751
1757768752418553300,29.75355322265625,-0.1512094736099243,0.6772975921630859,0.2781257331371307
1757768752428510500,29.76351049804688,-0.1942429840564727,0.5509122610092163,0.3239270150661468
1757768752438466300,29.77346630859375,-0.2468062192201614,0.3774577975273132,0.3427067399024963
1757768752448423400,29.78342333984375,-0.3042002618312835,0.1767811328172683,0.3431874513626098
1757768752458380500,29.793380615234376,-0.3765074908733368,-0.0291919726878404,0.3541672229766845
1757768752468337400,29.80333740234375,-0.4672821462154388,-0.2540889978408813,0.3851637542247772
1757768752478294300,29.813294189453124,-0.5798646211624146,-0.5247315764427185,0.4273266196250915
1757768752488251400,29.82325146484375,-0.7027532458305359,-0.825285792350769,0.4620654284954071
1757768752498208300,29.833208251953124,-0.8261142373085022,-1.1367905139923096,0.4907585978507995
1757768752508165400,29.843165283203124,-0.9514710903167723,-1.4412639141082764,0.5150386095046997
1757768752518121500,29.85312158203125,-1.0690919160842896,-1.7195996046066284,0.5355966687202454
1757768752528078300,29.863078369140624,-1.1561943292617798,-1.962733507156372,0.5508645176887512
1757768752538035500,29.873035400390624,-1.206100583076477,-2.1698131561279297,0.5502674579620361
1757768752547992600,29.88299267578125,-1.2233983278274536,-2.3354897499084477,0.5352339148521423
1757768752557949200,29.89294921875,-1.2241331338882446,-2.459712505340576,0.5176340937614441
1757768752567906300,29.90290625,-1.2303659915924072,-2.528827667236328,0.5183424949645996
1757768752577863400,29.912863525390627,-1.2518497705459597,-2.5389180183410645,0.5346370339393616
1757768752587820300,29.9228203125,-1.284016489982605,-2.504747152328491,0.5638636350631714
1757768752597777400,29.93277734375,-1.3180595636367798,-2.450043201446533,0.595851480960846
1757768752607733500,29.9427333984375,-1.3461716175079346,-2.392766237258911,0.6238231658935547
1757768752617690400,29.9526904296875,-1.3687238693237305,-2.350481986999512,0.6428013443946838
1757768752627647500,29.9626474609375,-1.3856642246246338,-2.31966233253479,0.6549253463745117
1757768752637604400,29.972604248046878,-1.396855115890503,-2.2969446182250977,0.6554434299468994
1757768752647561200,29.982561279296878,-1.401430368423462,-2.287433862686157,0.6412229537963867
1757768752657518300,29.992518310546878,-1.400046944618225,-2.2781307697296143,0.6117368936538696
1757768752667475500,30.002475341796877,-1.3947840929031372,-2.2580487728118896,0.5699058175086975
1757768752677432300,30.012432373046877,-1.3858087062835691,-2.225701808929444,0.522209644317627
1757768752687388400,30.022388427734374,-1.3752259016036987,-2.191859483718872,0.4661077857017517
1757768752697345300,30.03234521484375,-1.364418864250183,-2.1534669399261475,0.4024848937988281
1757768752707302400,30.042302490234373,-1.3707764148712158,-2.111189603805542,0.3384196162223816
1757768752717259500,30.052259521484373,-1.3871607780456543,-2.0288290977478027,0.2830844223499298
1757768752727216400,30.06221630859375,-1.4172254800796509,-1.9300520420074463,0.2358700484037399
