time,seconds_elapsed,z,y,x
1758804812659801900,0.0548017578125,0.00866006687283516,0.022760706022381783,0.009179383516311646
1758804812669758200,0.06475830078125,0.012776249088346958,0.023578563705086708,0.013171995058655739
1758804812679714000,0.074714111328125,0.01299542747437954,0.02786571905016899,0.011325092054903507
1758804812689670100,0.084670166015625,0.006913566030561924,0.028737638145685196,0.007056844420731068
1758804812699625000,0.094625,0.003954527899622917,0.01818219944834709,-0.0014618091518059373
1758804812709580800,0.104580810546875,0.0011579424608498812,-0.0018748653819784522,-0.006445382256060839
1758804812719537000,0.114536865234375,-0.0023467775899916887,-0.02178439125418663,-0.01076769270002842
1758804812729493000,0.124492919921875,-0.0024383901618421078,-0.037632863968610764,-0.01341940276324749
1758804812739449000,0.134448974609375,-0.0012743226252496243,-0.04935077205300331,-0.012973855249583721
1758804812749405000,0.144405029296875,-0.0005627259379252791,-0.05554475262761116,-0.009661415591835976
1758804812759360500,0.154360595703125,0.0035414716694504023,-0.04851480573415756,-0.005285309627652168
1758804812769316400,0.16431640625,0.00410552928224206,-0.030014358460903168,-0.002843989757820964
1758804812779271400,0.174271484375,0.003029079409316182,-0.013825268484652042,0.002457298804074526
1758804812789227500,0.1842275390625,0.0009121326729655266,-0.0019385149935260415,0.005064799915999174
1758804812799183400,0.194183349609375,-0.003050118451938033,0.0007182545377872884,0.00549330236390233
1758804812809139500,0.204139404296875,0.0025624935515224934,0.0009973538108170033,0.0015853798249736428
1758804812819095300,0.21409521484375,0.003469299990683794,-0.003572896821424365,0.000642620783764869
1758804812829051400,0.224051513671875,0.005146292503923178,-0.011984757147729397,-0.0038093857001513243
1758804812839007500,0.234007568359375,0.008244614116847515,-0.019533753395080566,-0.005795038305222988
1758804812848963600,0.243963623046875,0.008590558543801308,-0.029878802597522736,-0.009250489994883537
1758804812858918400,0.25391845703125,0.008387626148760319,-0.032158467918634415,-0.00526720006018877
1758804812868874500,0.26387451171875,0.0054458980448544025,-0.020018182694911957,0.0026879284996539354
1758804812878830300,0.273830322265625,0.007591607049107552,0.007907457649707794,0.007488809060305357
1758804812888786400,0.283786376953125,0.009241967462003231,0.042933616787195206,0.007268299348652363
1758804812898742500,0.293742431640625,0.004914863966405392,0.0800761952996254,0.010613761842250824
1758804812908698600,0.30369873046875,0.00926114246249199,0.10767586529254913,0.010941597633063793
1758804812918654500,0.313654541015625,0.015137939713895321,0.11438995599746704,0.005545500200241804
1758804812928609300,0.323609375,0.019828565418720245,0.09198638051748276,-0.002210956299677491
1758804812938565400,0.3335654296875,0.02213805913925171,0.05139155313372612,-0.00878097489476204
1758804812948521500,0.343521484375,0.016325177624821663,0.012294217012822628,-0.013874003663659096
1758804812958477600,0.3534775390625,0.006897054612636566,-0.025904834270477295,-0.02550456114113331
1758804812968433400,0.363433349609375,-0.0035483958199620247,-0.053156960755586624,-0.029834061861038208
1758804812978389500,0.373389404296875,0.0030684941448271275,-0.05372155085206032,-0.02581055834889412
1758804812988345300,0.383345458984375,0.017315873876214027,-0.003935352899134159,-0.016213323920965195
1758804812998301400,0.393301513671875,0.021952437236905098,0.07631740719079971,-0.009002016857266426
1758804813008256500,0.403256591796875,0.017479125410318375,0.12175440043210983,-0.00529676117002964
1758804813018212600,0.413212646484375,0.010438792407512665,0.10525664687156677,-0.005564408842474222
1758804813028168400,0.42316845703125,0.011138138361275196,0.03677985072135925,-0.01330169104039669
1758804813038124500,0.43312451171875,0.018066085875034332,-0.07218391448259354,-0.027298465371131897
1758804813048080400,0.443080322265625,0.029886793345212936,-0.1975034922361374,-0.04543645679950714
1758804813058036500,0.453036376953125,0.03545333072543144,-0.2874442934989929,-0.056823067367076874
1758804813067992600,0.46299267578125,0.026510968804359436,-0.3210192918777466,-0.054125551134347916
1758804813077947400,0.472947509765625,0.01968022808432579,-0.28920304775238037,-0.044312071055173874
1758804813087903500,0.482903564453125,0.011460913345217705,-0.21356900036334991,-0.027056118473410606
1758804813097859300,0.492859375,0.007798002101480961,-0.12433260679244995,-0.014668957330286503
1758804813107815400,0.5028154296875,0.008076834492385387,-0.04332510381937027,-0.0034115093294531107
1758804813117771300,0.512771240234375,0.014402109198272228,0.015625830739736557,0.011990083381533623
1758804813127727600,0.5227275390625,0.02521773800253868,0.04944877699017525,0.026089390739798546
1758804813137683500,0.532683349609375,0.030717965215444565,0.0762588158249855,0.03767680376768112
1758804813147638500,0.542638427734375,0.03537769615650177,0.09252513945102692,0.04321564733982086
1758804813157594400,0.552594482421875,0.028745893388986588,0.10513573884963989,0.04755020886659622
1758804813167550500,0.562550537109375,0.016163257881999016,0.11256862431764603,0.04971269518136978
1758804813177506600,0.572506591796875,0.0080323601141572,0.12215307354927063,0.05554155632853508
1758804813187462700,0.582462646484375,0.0008860336965881288,0.12677259743213654,0.05992378666996956
1758804813197418500,0.59241845703125,0.0011747203534469008,0.13638846576213837,0.06569299101829529
1758804813207374600,0.60237451171875,0.008463526144623756,0.14397607743740082,0.07877524197101593
1758804813217330400,0.612330322265625,0.028746692463755608,0.03521764278411865,0.10244088619947433
1758804813227285500,0.622285400390625,0.035167042165994644,-0.04637974873185158,0.07124461978673935
1758804813237241600,0.63224169921875,0.023564182221889496,-0.09531613439321518,0.031061779707670212
1758804813247197400,0.642197509765625,0.00563897704705596,-0.1521216183900833,0.007131146267056465
1758804813257153500,0.652153564453125,-0.010191917419433594,-0.14368712902069092,0.00007723167072981596
1758804813267109400,0.662109375,-0.018443455919623375,-0.096722811460495,0.0049465554766356945
1758804813277065500,0.6720654296875,-0.013283581472933292,-0.06173820048570633,0.021929800510406494
1758804813287021300,0.682021240234375,-0.003947869874536991,-0.052259743213653564,0.025561818853020668
1758804813296976600,0.6919765625,0.007248059380799532,-0.07844047993421555,0.015537414699792862
1758804813306932500,0.701932373046875,0.018395252525806427,-0.1191793903708458,-0.001416269107721746
1758804813316888600,0.711888671875,0.026488332077860832,-0.14486850798130035,-0.011868909932672977
1758804813326844400,0.721844482421875,0.034745462238788605,-0.1270303875207901,-0.012224442325532436
1758804813336800500,0.731800537109375,0.03635800629854202,-0.08956930041313171,-0.0010892328573390841
1758804813346756400,0.74175634765625,0.0313616506755352,-0.0680307149887085,0.01022893562912941
1758804813356712700,0.751712646484375,0.024871261790394783,-0.05068501457571983,0.014976552687585354
1758804813366667500,0.76166748046875,0.02107066474854946,-0.034696195274591446,0.016877783462405205
1758804813376623400,0.771623291015625,0.020313527435064316,-0.018191520124673843,0.019705794751644135
1758804813386579500,0.781579345703125,0.020296482369303703,-0.020985709503293037,0.02485901117324829
1758804813396535300,0.791535400390625,0.017661817371845245,-0.03994289040565491,0.020016584545373917
1758804813406491400,0.801491455078125,0.013853764161467552,-0.06594572961330414,0.013522200286388397
1758804813416447500,0.811447509765625,0.009080846793949604,-0.07147178798913956,0.007229683455079794
1758804813426403600,0.821403564453125,0.007667240686714649,-0.0638708546757698,0.004512459971010685
1758804813436358400,0.8313583984375,0.004474643152207136,-0.049616821110248566,0.007990015670657158
1758804813446314500,0.841314453125,0.0028607675340026617,-0.03298431634902954,0.012384497560560703
1758804813456270300,0.851270263671875,0.004233094397932291,-0.016859140247106552,0.01637151651084423
1758804813466226700,0.861226806640625,0.009209743700921535,-0.0078046596609056,0.02203552797436714
1758804813476182500,0.8711826171875,0.011128551326692104,-0.01170139666646719,0.023696009069681168
1758804813486138600,0.881138671875,0.01327026542276144,-0.01683969981968403,0.02575543150305748
1758804813496094500,0.891094482421875,0.014698784798383713,-0.02490987628698349,0.028672924265265465
1758804813506049300,0.90104931640625,0.014406103640794754,-0.029375199228525162,0.026316825300455093
1758804813516005600,0.911005615234375,0.01510092243552208,-0.02936907485127449,0.020854681730270386
1758804813525961500,0.92096142578125,0.018134262412786484,-0.021587850525975227,0.01623702608048916
1758804813535917600,0.93091748046875,0.02244538813829422,-0.014643923379480839,0.014991465955972672
1758804813545873400,0.940873291015625,0.02365552820265293,-0.0034320156555622816,0.015384016558527946
1758804813555829500,0.95082958984375,0.024709340184926987,0.0049401638098061085,0.01642158441245556
1758804813565785300,0.960785400390625,0.024441160261631012,0.004315652418881655,0.012868660502135754
1758804813575740700,0.97074072265625,0.024357536807656288,-0.005922603886574507,0.008577508851885796
1758804813585696500,0.980696533203125,0.028370387852191925,-0.010958375409245491,0.0027806065045297146
1758804813595652600,0.990652587890625,0.02586408704519272,-0.01549107488244772,-0.0005257080192677677
1758804813605608400,1.0006083984375,0.026686737313866615,-0.02785693109035492,-0.0005747101386077702
1758804813615564500,1.010564453125,0.03032488189637661,-0.03652392327785492,-0.00748987402766943
1758804813625520400,1.020520263671875,0.034509506076574326,-0.034141458570957184,-0.01290381420403719
1758804813635476200,1.030476318359375,0.03260747715830803,-0.02755386382341385,-0.013401825912296772
1758804813645431600,1.040431640625,0.029396770521998405,-0.018072742968797684,-0.010994061827659607
1758804813655387400,1.050387451171875,0.0181124247610569,0.0012796488590538502,-0.002290318487212062
1758804813665343500,1.060343505859375,0.01341540738940239,0.014028999954462051,0.00481259822845459
1758804813675299300,1.07029931640625,0.015269500203430653,0.021708223968744278,0.005505552981048822
1758804813685255400,1.08025537109375,0.02191142365336418,0.01955958642065525,0.00811811350286007
1758804813695211500,1.09021142578125,0.024459270760416985,0.014372813515365124,0.009951434098184109
1758804813705167600,1.100167724609375,0.02575729414820671,0.013796239160001278,0.011453723534941673
1758804813715122400,1.110122314453125,0.02593306265771389,0.02677488885819912,0.011982627213001251
1758804813725078500,1.12007861328125,0.025187645107507706,0.012661732733249664,0.011064901947975159
1758804813735034400,1.130034423828125,0.024095216765999794,-0.021456023678183556,0.007084008306264877
1758804813744990500,1.139990478515625,0.02612108364701271,-0.037156954407691956,0.004346278961747885
1758804813754946600,1.149946533203125,0.025124261155724525,-0.03743339329957962,0.0034296188969165087
1758804813764903200,1.159903076171875,0.022608906030654907,-0.027667580172419548,0.007453921716660261
1758804813774858000,1.16985791015625,0.0204597357660532,-0.0123631926253438,0.013658820651471615
1758804813784813800,1.179813720703125,0.019223229959607124,0.0013723268639296293,0.023146331310272217
1758804813794770000,1.18977001953125,0.018614962697029114,0.01979314535856247,0.03581392392516136
1758804813804725800,1.199725830078125,0.01961418054997921,0.04035807400941849,0.05061550810933113
1758804813814682000,1.20968212890625,0.019708989188075066,0.06478938460350037,0.06166336312890053
1758804813824638000,1.219637939453125,0.022418223321437836,0.08912934362888336,0.07217912375926971
1758804813834594000,1.229593994140625,0.021340975537896156,0.10368112474679947,0.07860639691352844
1758804813844548900,1.239548828125,0.021167336031794548,0.10402520000934601,0.08638069778680801
1758804813854505000,1.2495048828125,0.01894972287118435,0.09445193409919739,0.08794370293617249
1758804813864461000,1.2594609375,0.01852388307452202,0.09754866361618042,0.0908697172999382
1758804813874417200,1.269417236328125,0.02111434005200863,0.10746520757675171,0.09761497378349304
1758804813884373000,1.279373046875,0.021091969683766365,0.1267978996038437,0.10391388088464737
1758804813894329000,1.2893291015625,0.01745435781776905,0.15399089455604553,0.11605310440063477
1758804813904285000,1.299284912109375,0.01618855632841587,0.1862311214208603,0.12693770229816437
1758804813914240000,1.309239990234375,0.012803412973880768,0.21748970448970795,0.13953553140163422
1758804813924196000,1.319196044921875,0.008735435083508492,0.24696318805217743,0.14925312995910645
1758804813934152000,1.32915185546875,-0.0009494169498793781,0.27726754546165466,0.1625146120786667
1758804813944108000,1.33910791015625,-0.0171480942517519,0.2990327775478363,0.17875510454177856
1758804813954064000,1.34906396484375,-0.047502804547548294,0.30007460713386536,0.20635662972927094
1758804813964020000,1.35902001953125,-0.0572691485285759,0.324758380651474,0.2327839732170105
1758804813973975800,1.368975830078125,-0.04962827265262604,0.37499916553497314,0.26519066095352173
1758804813983931100,1.37893115234375,-0.023304257541894913,0.44624993205070496,0.29769614338874817
1758804813993887000,1.388886962890625,0.002724680118262768,0.5195584893226624,0.3252257704734802
1758804814003843000,1.398843017578125,0.020967865362763405,0.5767821073532104,0.3468514382839203
1758804814013799000,1.408798828125,0.03863341361284256,0.6252031326293945,0.36573269963264465
1758804814023755000,1.418755126953125,0.055142614990472794,0.6499308943748474,0.3793151080608368
1758804814033710800,1.4287109375,0.06257283687591553,0.6664904356002808,0.3899688124656677
1758804814043666000,1.438666015625,0.07167764753103256,0.7080045938491821,0.40595149993896484
1758804814053622000,1.4486220703125,0.08493167161941528,0.7430935502052307,0.41556844115257263
1758804814063577900,1.458577880859375,0.08425948768854141,0.7413002252578735,0.4073243737220764
1758804814073534000,1.468533935546875,0.06639207154512405,0.7200812101364136,0.4036063253879547
1758804814083489800,1.47848974609375,0.029950175434350967,0.7240583896636963,0.41403311491012573
1758804814093446100,1.488446044921875,-0.019390475004911423,0.7300592660903931,0.419685959815979
1758804814103402000,1.498402099609375,-0.06420375406742096,0.7018819451332092,0.41672852635383606
1758804814113357000,1.508357177734375,-0.11010972410440445,0.6432833671569824,0.40625429153442383
1758804814123313000,1.51831298828125,-0.149567648768425,0.5975244045257568,0.3868443965911865
1758804814133269000,1.52826904296875,-0.1691378951072693,0.5725489854812622,0.3553064465522766
1758804814143224800,1.538224853515625,-0.18382441997528076,0.5626137852668762,0.32838428020477295
1758804814153181200,1.54818115234375,-0.20706236362457275,0.5559308528900146,0.31187427043914795
1758804814163137000,1.558136962890625,-0.23572596907615662,0.5631570816040039,0.29343506693840027
1758804814173093000,1.568093017578125,-0.24860209226608276,0.550442099571228,0.2655523121356964
1758804814183048000,1.5780478515625,-0.22779828310012817,0.4897984564304352,0.24994565546512604
1758804814193003800,1.588003662109375,-0.2507041096687317,0.38450878858566284,0.2929253578186035
1758804814202960100,1.597960205078125,-0.3011324107646942,0.34396031498908997,0.33053797483444214
1758804814212916000,1.607916015625,-0.32321879267692566,0.35708969831466675,0.3426593542098999
1758804814222872000,1.6178720703125,-0.32413893938064575,0.41019073128700256,0.3314487636089325
1758804814232828000,1.627827880859375,-0.2642329931259155,0.4737156331539154,0.3006516993045807
1758804814242783000,1.637782958984375,-0.16880951821804047,0.5001158118247986,0.2639522850513458
1758804814252739000,1.647739013671875,-0.061582669615745544,0.45682135224342346,0.2350335568189621
1758804814262695200,1.657695068359375,0.042264364659786224,0.38068822026252747,0.2098006308078766
1758804814272651000,1.667651123046875,0.11926354467868805,0.33153530955314636,0.19489625096321106
1758804814282607000,1.677607177734375,0.17990638315677643,0.3206179738044739,0.1838609129190445
1758804814292563000,1.68756298828125,0.22258087992668152,0.2700338661670685,0.1738644689321518
1758804814302519000,1.69751904296875,0.24369388818740845,0.2240045964717865,0.14478088915348053
1758804814312474000,1.70747412109375,0.24871793389320374,0.18243291974067688,0.11603818833827972
1758804814322430000,1.717429931640625,0.24054230749607086,0.18069495260715485,0.09042949974536896
1758804814332386000,1.727385986328125,0.2205054759979248,0.2004401534795761,0.07073169201612473
1758804814342342000,1.737341796875,0.18832942843437195,0.2067398577928543,0.05770564079284668
1758804814352298000,1.747298095703125,0.1527075171470642,0.20960941910743713,0.05036729946732521
1758804814362253800,1.75725390625,0.11917193233966827,0.21657145023345947,0.04265105724334717
1758804814372210000,1.7672099609375,0.0953558161854744,0.23234829306602478,0.03175633028149605
1758804814382165000,1.7771650390625,0.08193507790565491,0.2540506422519684,0.016351809725165367
1758804814392121000,1.78712109375,0.0795198604464531,0.27279236912727356,-0.0013310478534549475
1758804814402077000,1.797076904296875,0.07880160212516785,0.29827165603637695,-0.01918940618634224
1758804814412033000,1.807032958984375,0.08331752568483353,0.2999798059463501,-0.017793910577893257
1758804814421988900,1.81698876953125,0.08471435308456421,0.2715415060520172,-0.007474428042769432
1758804814431945000,1.826945068359375,0.0962357223033905,0.2550030052661896,-0.009924003854393959
1758804814441900000,1.836900146484375,0.10457301139831543,0.2356167882680893,-0.025847043842077255
1758804814451856000,1.84685595703125,0.11848616600036621,0.23937636613845825,-0.03724377602338791
1758804814461812000,1.85681201171875,0.12788499891757965,0.2789120674133301,-0.03888534754514694
1758804814471767800,1.866767822265625,0.12871935963630676,0.3228704631328583,-0.03936977684497833
1758804814481724000,1.876723876953125,0.12637019157409668,0.3507140874862671,-0.035888493061065674
1758804814491680000,1.886679931640625,0.12951697409152985,0.3551357388496399,-0.03341494873166084
1758804814501636000,1.896635986328125,0.13232554495334625,0.3462471663951874,-0.03718811646103859
1758804814511591000,1.9065908203125,0.13961142301559448,0.3336924910545349,-0.046184539794921875
1758804814521547000,1.916547119140625,0.13768595457077026,0.3250183165073395,-0.049798980355262756
1758804814531502800,1.9265029296875,0.13036119937896729,0.3270726501941681,-0.04682715982198715
1758804814541459200,1.936459228515625,0.12213922291994095,0.32526278495788574,-0.04531528428196907
1758804814551415000,1.9464150390625,0.10776215046644211,0.31509271264076233,-0.046776026487350464
1758804814561371000,1.956370849609375,0.10332159698009491,0.3195313811302185,-0.044433243572711945
1758804814571327000,1.966326904296875,0.10186751186847687,0.3193630874156952,-0.0387955978512764
1758804814581281800,1.97628173828125,0.10975871980190277,0.3135688304901123,-0.03587091714143753
1758804814591238100,1.986238037109375,0.1227637380361557,0.31355926394462585,-0.03394544869661331
1758804814601194000,1.996194091796875,0.13192927837371826,0.3060707151889801,-0.026686204597353935
1758804814611150000,2.006150146484375,0.13750885426998138,0.2888121008872986,-0.018425878137350082
1758804814621106000,2.01610595703125,0.14156405627727509,0.2597804367542267,-0.020798223093152046
1758804814631062000,2.02606201171875,0.14055578410625458,0.2370421141386032,-0.027210049331188202
1758804814641017000,2.03601708984375,0.13645264506340027,0.2288944274187088,-0.02851339988410473
1758804814650973200,2.04597314453125,0.1269291788339615,0.22768215835094452,-0.031000792980194092
1758804814660929000,2.055928955078125,0.12144866585731506,0.23402687907218933,-0.028427911922335625
1758804814670885000,2.065885009765625,0.12219754606485367,0.2198101282119751,-0.015568306669592857
1758804814680841000,2.075841064453125,0.12262525409460068,0.19195932149887085,-0.006483998149633408
1758804814690796800,2.085796875,0.13127067685127258,0.15140096843242645,-0.007493069861084223
1758804814700753000,2.0957529296875,0.14425811171531677,0.11023276299238205,-0.0137815922498703
1758804814710708000,2.1057080078125,0.15508918464183807,0.0941464751958847,-0.01823839172720909
1758804814720664000,2.1156640625,0.16156280040740967,0.09650310128927231,-0.02516048029065132
1758804814730620000,2.125619873046875,0.15251177549362183,0.10201158374547958,-0.030474020168185234
1758804814740576000,2.135575927734375,0.13592800498008728,0.08837087452411652,-0.02239159122109413
1758804814750531800,2.14553173828125,0.11339393258094788,0.0940798968076706,-0.013292369432747364
1758804814760488000,2.155488037109375,0.09235869348049164,0.09638086706399918,-0.0008056062506511807
1758804814770443000,2.165443115234375,0.08477853983640671,0.0942268967628479,0.009824134409427643
1758804814780399000,2.175399169921875,0.08092600852251053,0.07052503526210785,0.019151857122778893
1758804814790355000,2.18535498046875,0.08173081278800964,0.054854728281497955,0.02900635078549385
1758804814800310800,2.195310791015625,0.08229966461658478,0.06162900850176811,0.036369457840919495
1758804814810267000,2.205266845703125,0.07241001725196838,0.09229903668165207,0.03750982508063316
1758804814820223000,2.215222900390625,0.05300676077604294,0.14588290452957153,0.03651992604136467
1758804814830179000,2.225178955078125,0.04379408434033394,0.2017349898815155,0.029694246128201485
1758804814840134000,2.2351337890625,0.03806908801198006,0.19362059235572815,0.014285994693636894
1758804814850090000,2.245090087890625,0.03491830453276634,0.14717240631580353,-0.0002767024270724505
1758804814860045800,2.2550458984375,0.032941438257694244,0.11314093321561813,-0.021517276763916016
1758804814870002000,2.265001953125,0.021085044369101524,0.10647957026958466,-0.06890156865119934
1758804814879958000,2.2749580078125,0.006695985794067383,0.10247950255870819,-0.12684103846549988
1758804814889914000,2.2849140625,0.0026972496416419744,0.059591956436634064,-0.16499614715576172
1758804814899869000,2.294868896484375,0.017852766439318657,0.008222510106861591,-0.17897693812847137
1758804814909825000,2.304824951171875,0.03452042490243912,-0.013859623111784458,-0.17926296591758728
1758804814919780900,2.31478076171875,0.043597012758255005,-0.008779376745223999,-0.16956932842731476
1758804814929737000,2.324737060546875,0.05817382410168648,0.013714213855564594,-0.1519423872232437
1758804814939693000,2.334693115234375,0.06704375147819519,0.03542936220765114,-0.14550234377384186
1758804814949649000,2.34464892578125,0.06408125162124634,0.0902811586856842,-0.16103948652744293
1758804814959605000,2.35460498046875,0.05128422752022743,0.16382941603660583,-0.1824563592672348
1758804814969559800,2.364559814453125,0.05109647288918495,0.14648877084255219,-0.17268335819244385
1758804814979516000,2.374515869140625,0.08347784727811813,0.026030534878373146,-0.12688417732715607
1758804814989472000,2.384471923828125,0.14074993133544922,-0.1338435560464859,-0.08704302459955215
1758804814999428000,2.394427978515625,0.18370990455150604,-0.28927308320999146,-0.06284527480602264
1758804815009384000,2.404384033203125,0.20032936334609985,-0.43426570296287537,-0.05284350737929344
1758804815019340000,2.414340087890625,0.19685953855514526,-0.5674887299537659,-0.04935023933649063
1758804815029294800,2.424294921875,0.16797089576721191,-0.6698244214057922,-0.03868481144309044
1758804815039251000,2.4342509765625,0.12074266374111176,-0.7092431783676147,-0.011998339556157589
1758804815049207000,2.44420703125,0.06347671151161194,-0.6879027485847473,0.03142929449677467
1758804815059163000,2.454162841796875,0.01865757443010807,-0.6129558086395264,0.07774672657251358
1758804815069119000,2.464118896484375,-0.04723888635635376,-0.354087233543396,0.16232526302337646
1758804815079074800,2.47407470703125,-0.0753813087940216,-0.344443678855896,0.2239185869693756
1758804815089031000,2.484031005859375,-0.13911820948123932,-0.117558054625988,0.30789443850517273
1758804815098986000,2.493986083984375,-0.10527102649211884,-0.16918210685253143,0.26111680269241333
1758804815108942000,2.503942138671875,-0.04887459799647331,-0.23283404111862183,0.17955830693244934
1758804815118898000,2.51389794921875,-0.03990427404642105,-0.24047784507274628,0.13493119180202484
1758804815128854000,2.52385400390625,-0.021312212571501732,-0.23759764432907104,0.12249954789876938
1758804815138809900,2.533809814453125,0.007779359817504883,-0.2436656504869461,0.126554474234581
1758804815148766000,2.543765869140625,0.035765718668699265,-0.27623450756073,0.11762116849422455
1758804815158722000,2.55372216796875,0.06297124177217484,-0.31061458587646484,0.09631561487913132
1758804815168676900,2.5636767578125,0.08267037570476532,-0.3699074685573578,0.09182446449995041
1758804815178633000,2.573633056640625,0.10365156084299088,-0.40503376722335815,0.11652794480323792
1758804815188588800,2.5835888671875,0.13548912107944489,-0.4364745318889618,0.14987151324748993
1758804815198545000,2.593544921875,0.15862107276916504,-0.48938754200935364,0.17163008451461792
1758804815208500700,2.603500732421875,0.18183770775794983,-0.5315755009651184,0.19168901443481445
1758804815218457000,2.61345703125,0.1964978724718094,-0.5510671734809875,0.22557027637958527
1758804815228412000,2.623411865234375,0.211953803896904,-0.5341816544532776,0.26669400930404663
1758804815238368000,2.633367919921875,0.2158883512020111,-0.48829856514930725,0.30447813868522644
1758804815248323800,2.64332373046875,0.21295754611492157,-0.4293026328086853,0.3406582474708557
1758804815258280000,2.653280029296875,0.20434381067752838,-0.3514552414417267,0.37149524688720703
1758804815268236000,2.663236083984375,0.1911582350730896,-0.28631165623664856,0.39794549345970154
1758804815278192000,2.673192138671875,0.16869448125362396,-0.22455693781375885,0.41573116183280945
1758804815288148000,2.68314794921875,0.14934608340263367,-0.17272064089775085,0.43358364701271057
1758804815298102800,2.693102783203125,0.14235422015190125,-0.13422943651676178,0.45092031359672546
1758804815308059000,2.703058837890625,0.14414438605308533,-0.11636362969875336,0.47013527154922485
1758804815318015000,2.713014892578125,0.1411062628030777,-0.10526490211486816,0.4788464903831482
1758804815327971000,2.72297119140625,0.13248613476753235,-0.08388291299343109,0.471915602684021
1758804815337927000,2.732927001953125,0.1204925924539566,-0.05512530356645584,0.4571113586425781
1758804815347883000,2.742883056640625,0.1118178740143776,-0.05907770246267319,0.4344893991947174
1758804815357837800,2.752837890625,0.10771634429693222,-0.10500790923833847,0.40542471408843994
1758804815367794000,2.7627939453125,0.10646678507328033,-0.15896275639533997,0.37826260924339294
1758804815377750000,2.77275,0.10986658185720444,-0.2162364274263382,0.35230985283851624
1758804815387706000,2.7827060546875,0.11915568262338638,-0.27810564637184143,0.3373330235481262
1758804815397662000,2.792661865234375,0.12371448427438736,-0.296550989151001,0.33811360597610474
1758804815407618000,2.8026181640625,0.12117675691843033,-0.276309072971344,0.36030200123786926
1758804815417574000,2.812573974609375,0.11660091578960419,-0.22311563789844513,0.3947316110134125
1758804815427529000,2.822529052734375,0.11006765067577362,-0.16490186750888824,0.42998120188713074
1758804815437485000,2.832485107421875,0.10908254235982895,-0.13310877978801727,0.45710575580596924
1758804815447441000,2.84244091796875,0.11541926860809326,-0.13856400549411774,0.47275182604789734
1758804815457397000,2.85239697265625,0.11593858897686005,-0.14124473929405212,0.4802475571632385
1758804815467352800,2.862352783203125,0.10891582816839218,-0.11478383839130402,0.47797855734825134
1758804815477309000,2.872308837890625,0.09362529218196869,-0.09081778675317764,0.46855229139328003
1758804815487264800,2.8822646484375,0.08936716616153717,-0.10616958141326904,0.4471045434474945
1758804815497220000,2.89222021484375,0.10340815037488937,-0.15366998314857483,0.4198790490627289
1758804815507176000,2.902176025390625,0.12148328870534897,-0.23067103326320648,0.3762876093387604
1758804815517132000,2.912132080078125,0.13890941441059113,-0.31080713868141174,0.32635414600372314
1758804815527087900,2.922087890625,0.14654016494750977,-0.3727070093154907,0.266437292098999
1758804815537044000,2.9320439453125,0.13379162549972534,-0.41091617941856384,0.21793605387210846
1758804815546999800,2.941999755859375,0.10482894629240036,-0.4354119300842285,0.17291425168514252
1758804815556955000,2.951954833984375,0.06625492125749588,-0.44178885221481323,0.13572107255458832
1758804815566911000,2.961910888671875,0.02984844334423542,-0.42791298031806946,0.11438249796628952
1758804815576866800,2.97186669921875,-0.005255748517811298,-0.38214975595474243,0.1296490728855133
1758804815586823000,2.981822998046875,-0.03370949253439903,-0.3147057294845581,0.1794312745332718
1758804815596778800,2.99177880859375,-0.054254449903964996,-0.24622762203216553,0.24092473089694977
1758804815606735000,3.001735107421875,-0.06549379229545593,-0.16379691660404205,0.30242884159088135
1758804815616691000,3.01169091796875,-0.06890583038330078,-0.05272233486175537,0.3666062355041504
1758804815626646000,3.02164599609375,-0.056041963398456573,0.06216244027018547,0.42730793356895447
1758804815636601900,3.031601806640625,-0.025553030893206596,0.15441779792308807,0.4735662341117859
1758804815646558000,3.041557861328125,0.007571367081254721,0.21074791252613068,0.4980374872684479
1758804815656514000,3.05151416015625,0.033895913511514664,0.22099655866622925,0.5096943974494934
1758804815666470100,3.06147021484375,0.054191067814826965,0.1831783503293991,0.5094286203384399
1758804815676426000,3.071426025390625,0.059541888535022736,0.13750459253787994,0.4958358407020569
1758804815686382000,3.081382080078125,0.05847049877047539,0.09789034724235535,0.4768672287464142
1758804815696337000,3.0913369140625,0.055209990590810776,0.05688485503196716,0.461637943983078
1758804815706293000,3.10129296875,0.05551572144031525,0.04508572071790695,0.4580061733722687
1758804815716249000,3.1112490234375,0.06367059051990509,0.037146035581827164,0.45873376727104187
1758804815726205000,3.121204833984375,0.09239944070577621,0.004497013986110687,0.4600376486778259
1758804815736161000,3.1311611328125,0.12714596092700958,-0.03526824340224266,0.4670222997665405
1758804815746116900,3.141116943359375,0.1461489498615265,-0.048227183520793915,0.4821075201034546
1758804815756072000,3.151072021484375,0.15843917429447174,-0.03749703988432884,0.5026266574859619
1758804815766027800,3.16102783203125,0.1698438972234726,-0.01528494618833065,0.5095274448394775
1758804815775983900,3.17098388671875,0.18207019567489624,-0.01077035628259182,0.49787449836730957
1758804815785939700,3.180939697265625,0.1897779256105423,-0.01702319271862507,0.4705829620361328
1758804815795895800,3.190895751953125,0.18313999474048615,-0.009181780740618706,0.44348394870758057
1758804815805851600,3.2008515625,0.1559922695159912,0.013802630826830864,0.4180379807949066
1758804815815807700,3.210807861328125,0.12158075720071793,0.03527703136205673,0.40126994252204895
1758804815825762800,3.2207626953125,0.09960009157657623,0.0346360057592392,0.38141152262687683
1758804815835719000,3.230718994140625,0.08928859978914261,0.011751198209822178,0.3601456582546234
1758804815845674800,3.2406748046875,0.08240166306495667,-0.007754858583211899,0.3378906846046448
1758804815855630800,3.250630859375,0.07422948628664017,-0.023127689957618713,0.3132393956184387
1758804815865586700,3.260586669921875,0.05956852063536644,-0.030188795179128647,0.28344929218292236
1758804815875542800,3.270542724609375,0.04236263781785965,-0.02779541164636612,0.2491230070590973
1758804815885499000,3.280498779296875,0.023191338405013084,-0.031204259023070335,0.2105439156293869
1758804815895453700,3.29045361328125,0.0025334651581943035,-0.031190942972898483,0.16474021971225739
1758804815905409800,3.300409912109375,-0.02599831111729145,-0.029774939641356468,0.12209155410528183
1758804815915365600,3.31036572265625,-0.046482279896736145,-0.03695908188819885,0.0800948366522789
1758804815925321700,3.32032177734375,-0.06619073450565338,-0.05272606015205383,0.03551378473639488
1758804815935277800,3.33027783203125,-0.08934452384710312,-0.061819158494472504,-0.012309130281209946
1758804815945234000,3.34023388671875,-0.1035037562251091,-0.06980437785387039,-0.05416416749358177
1758804815955189800,3.350189697265625,-0.11726750433444977,-0.06967921555042267,-0.07291655242443085
1758804815965144800,3.360144775390625,-0.12505458295345306,-0.07227765768766403,-0.07587825506925583
1758804815975100700,3.3701005859375,-0.13226190209388733,-0.0669606551527977,-0.06332571059465408
1758804815985056800,3.380056884765625,-0.13417617976665497,-0.06100769340991974,-0.055082693696022034
1758804815995012900,3.390012939453125,-0.13629525899887085,-0.054134875535964966,-0.061050835996866226
1758804816004968700,3.39996875,-0.1399563103914261,-0.04779015854001045,-0.07779359817504883
1758804816014924800,3.4099248046875,-0.135798841714859,-0.04803170636296272,-0.09367136657238007
1758804816024879600,3.419879638671875,-0.1262788474559784,-0.06537634134292603,-0.10056495666503906
1758804816034835700,3.429835693359375,-0.1123017743229866,-0.08178061991930008,-0.09853855520486832
1758804816044791800,3.439791748046875,-0.0999191403388977,-0.09713879972696304,-0.09364313632249832
1758804816054748000,3.449747802734375,-0.08917488157749176,-0.11564777046442032,-0.09411637485027313
1758804816064703700,3.459703857421875,-0.0843132808804512,-0.14046309888362885,-0.10579061508178711
1758804816074659800,3.469659912109375,-0.0836658701300621,-0.16654956340789795,-0.13033057749271393
1758804816084615700,3.47961572265625,-0.08918340504169464,-0.19010043144226074,-0.1546982377767563
1758804816094570800,3.48957080078125,-0.080629862844944,-0.2203102707862854,-0.1720162332057953
1758804816104526800,3.49952685546875,-0.056043561547994614,-0.24919864535331726,-0.17405009269714355
1758804816114482700,3.509482666015625,-0.022543391212821007,-0.24813763797283173,-0.16132737696170807
1758804816124438800,3.519438720703125,0.017102288082242012,-0.21798506379127502,-0.1244061067700386
1758804816134394600,3.52939453125,0.056062471121549606,-0.19661132991313934,-0.08166982978582382
1758804816144350700,3.539350830078125,0.09013362228870392,-0.1769193857908249,-0.03994874656200409
1758804816154306600,3.549306640625,0.11340485513210297,-0.1686878204345703,-0.02051539532840252
1758804816164262000,3.559261962890625,0.12944108247756958,-0.19701212644577026,-0.020606741309165955
1758804816174217700,3.5692177734375,0.12829911708831787,-0.23922643065452576,-0.04150936007499695
1758804816184173800,3.579173828125,0.10832061618566513,-0.2567202150821686,-0.055640626698732376
1758804816194129700,3.589129638671875,0.07852783054113388,-0.2643381655216217,-0.04886767268180847
1758804816204085800,3.599085693359375,0.0449373796582222,-0.2761407792568207,-0.03719157725572586
1758804816214041600,3.60904150390625,0.015230085700750351,-0.2590848207473755,-0.02383449301123619
1758804816223998000,3.618998046875,-0.012819658033549786,-0.23481117188930511,-0.004875182639807463
1758804816233952800,3.628952880859375,-0.044546160846948624,-0.20414941012859344,0.003318032482638955
1758804816243908600,3.63890869140625,-0.06799263507127762,-0.1466379165649414,0.01107661984860897
1758804816253864700,3.64886474609375,-0.08208394795656204,-0.09324126690626144,0.008248874917626381
1758804816263820500,3.658820556640625,-0.08603528141975403,-0.0583256259560585,-0.0062757390551269054
1758804816273777000,3.66877685546875,-0.0798863098025322,-0.033600304275751114,-0.03129693493247032
1758804816283732700,3.678732666015625,-0.05710563063621521,-0.026584472507238388,-0.05968250334262848
1758804816293688800,3.688688720703125,-0.03158322721719742,-0.03909973055124283,-0.09431158751249313
1758804816303643600,3.6986435546875,-0.009400958195328712,-0.07698719203472137,-0.13325606286525726
1758804816313599700,3.708599853515625,0.00044661210267804563,-0.1032334417104721,-0.17214486002922058
1758804816323555600,3.7185556640625,-0.015719573944807053,-0.07147684693336487,-0.1978158801794052
1758804816333512000,3.728511962890625,-0.04988580197095871,0.023917850106954575,-0.2010553479194641
1758804816343467800,3.7384677734375,-0.09702561795711517,0.15553845465183258,-0.17873433232307434
1758804816353424000,3.748423828125,-0.14065352082252502,0.2915783226490021,-0.13644146919250488
1758804816363379700,3.758379638671875,-0.17283861339092255,0.3964458703994751,-0.08653728663921356
1758804816373334500,3.76833447265625,-0.18865007162094116,0.45015543699264526,-0.04667589068412781
1758804816383291000,3.778290771484375,-0.17952822148799896,0.4507511854171753,-0.02346990630030632
1758804816393246700,3.788246826171875,-0.14842303097248077,0.4054422974586487,-0.01780562847852707
1758804816403202800,3.798202880859375,-0.10453946143388748,0.32554346323013306,-0.015914252027869225
1758804816413158700,3.80815869140625,-0.04964371770620346,0.23473607003688812,-0.011708054691553116
1758804816423114800,3.81811474609375,-0.0009169263648800552,0.1588306576013565,-0.005859753116965294
1758804816433070600,3.828070556640625,0.039861395955085754,0.10460124164819717,-0.0003861583536490798
1758804816443026000,3.83802587890625,0.08414816856384277,0.03206605836749077,-0.011770905926823616
1758804816452981800,3.847981689453125,0.12292485684156418,-0.021921543404459953,-0.037267476320266724
1758804816462937900,3.857937744140625,0.142280712723732,-0.04493924602866173,-0.0586734339594841
1758804816472893700,3.867893798828125,0.14478887617588043,-0.04561462253332138,-0.07836351543664932
1758804816482849800,3.877849853515625,0.14501364529132843,-0.05956106632947922,-0.10403905063867569
1758804816492805600,3.8878056640625,0.143625870347023,-0.07941360026597977,-0.1325386017560959
1758804816502761700,3.89776171875,0.1411091834306717,-0.08636631071567535,-0.15780001878738403
1758804816512716800,3.907716796875,0.13432744145393372,-0.0883391797542572,-0.18087764084339142
1758804816522672600,3.917672607421875,0.12468733638525009,-0.09701736271381378,-0.20179890096187592
1758804816533252600,3.928252685546875,0.12369078397750854,-0.12921391427516937,-0.22584564983844757
1758804816543209000,3.938208984375,0.12398479878902435,-0.16038674116134644,-0.25593963265419006
1758804816553163800,3.948163818359375,0.11461179703474045,-0.16265176236629486,-0.2900696396827698
1758804816563119600,3.95811962890625,0.10158334672451019,-0.13990864157676697,-0.3242422640323639
1758804816573075700,3.96807568359375,0.08146876096725464,-0.0946149230003357,-0.360103040933609
1758804816583031600,3.978031494140625,0.05546592175960541,-0.05084799975156784,-0.39391639828681946
1758804816592987600,3.987987548828125,0.026271019130945206,0.008200405165553093,-0.41433992981910706
1758804816602943700,3.99794384765625,-0.0002639192680362612,0.07242439687252045,-0.421178936958313
1758804816612899800,4.00789990234375,-0.01709509640932083,0.10696666687726974,-0.4112812876701355
1758804816622854700,4.017854736328125,-0.026789003983139992,0.11066685616970062,-0.3876641094684601
1758804816632810800,4.027810791015625,-0.03021569363772869,0.1225900948047638,-0.36429646611213684
1758804816642766600,4.0377666015625,-0.0294289942830801,0.12244229018688202,-0.3482019305229187
1758804816652723000,4.047722900390625,-0.023790284991264343,0.10051275789737701,-0.33124396204948425
1758804816662678800,4.0576787109375,-0.016170714050531387,0.07338899374008179,-0.3047012984752655
1758804816672635000,4.067634765625,-0.006193980108946562,0.02828356996178627,-0.28332677483558655
1758804816682589700,4.077589599609375,0.01338744442909956,-0.050344131886959076,-0.2765916585922241
1758804816692545500,4.087545654296875,0.032593097537755966,-0.15856941044330597,-0.2752925455570221
1758804816702502000,4.097501953125,0.04102493077516556,-0.25781530141830444,-0.2883162200450897
1758804816712457700,4.107457763671875,0.025363679975271225,-0.3182820975780487,-0.294914186000824
1758804816722413800,4.117413818359375,-0.0006564692012034357,-0.341571182012558,-0.27802574634552
1758804816732369700,4.12736962890625,-0.020507140085101128,-0.3523543179035187,-0.2384762167930603
1758804816742325800,4.13732568359375,-0.015810655429959297,-0.40422630310058594,-0.20804721117019653
1758804816752281600,4.147281494140625,-0.007727161981165409,-0.4614379405975342,-0.18622340261936188
1758804816762237000,4.15723681640625,0.004145210143178701,-0.49049142003059387,-0.16752640902996063
1758804816772193000,4.167193115234375,0.01390090212225914,-0.5142334699630737,-0.15148992836475372
1758804816782148900,4.17714892578125,0.020367322489619255,-0.5223037004470825,-0.13485954701900482
1758804816792105000,4.18710498046875,0.01306147314608097,-0.5312007665634155,-0.12722931802272797
1758804816802060800,4.197060791015625,-0.00012410330236889422,-0.5775946378707886,-0.12764504551887512
1758804816812017000,4.207016845703125,-0.02840474247932434,-0.6240425705909729,-0.1278008371591568
1758804816821972700,4.21697265625,-0.0736747533082962,-0.615379810333252,-0.10824710875749588
1758804816831927800,4.226927734375,-0.11550795286893845,-0.5834285616874695,-0.06904857605695724
1758804816841884000,4.2368837890625,-0.1409672349691391,-0.5240238308906555,-0.027215110138058662
1758804816851839700,4.24683984375,-0.14737214148044586,-0.4428804814815521,0.01852628029882908
1758804816861795800,4.2567958984375,-0.1417137235403061,-0.3667348623275757,0.06849303841590881
1758804816871751700,4.266751708984375,-0.1184435561299324,-0.3079085648059845,0.11397077888250351
1758804816881708000,4.2767080078125,-0.07178257405757904,-0.2745399475097656,0.12687459588050842
1758804816891664000,4.286663818359375,-0.013374661095440388,-0.2798617482185364,0.10200972110033035
1758804816901619000,4.296618896484375,0.03640194982290268,-0.2923825979232788,0.05589548870921135
1758804816911574800,4.30657470703125,0.06500669568777084,-0.2977840304374695,0.00830773077905178
1758804816921531000,4.31653076171875,0.0742393434047699,-0.30197983980178833,-0.025922143831849098
1758804816931486700,4.32648681640625,0.06274087727069855,-0.3251309394836426,-0.044621795415878296
1758804816941443000,4.336443115234375,0.0459083691239357,-0.3551620841026306,-0.05391143634915352
1758804816951399000,4.34639892578125,0.018026670441031456,-0.3418566584587097,-0.06255552172660828
1758804816961355000,4.35635498046875,-0.023558322340250015,-0.27130046486854553,-0.06503226608037949
1758804816971309800,4.366309814453125,-0.05914188176393509,-0.1828630268573761,-0.060803163796663284
1758804816981265700,4.376265625,-0.09159223735332489,-0.09240343421697617,-0.03358512371778488
1758804816991222000,4.386221923828125,-0.11667255312204361,0.004699414130300283,0.013485714793205261
1758804817001177900,4.396177734375,-0.12962722778320312,0.09998039156198502,0.07719172537326813
1758804817011134000,4.406134033203125,-0.12136691063642502,0.17728184163570404,0.14446130394935608
1758804817021089800,4.41608984375,-0.09428495913743973,0.21966764330863953,0.19902043044567108
1758804817031046000,4.4260458984375,-0.051354002207517624,0.25323280692100525,0.2423844039440155
1758804817041001700,4.436001708984375,0.01034638099372387,0.27858102321624756,0.27194976806640625
1758804817050957000,4.44595703125,0.06680726259946823,0.27131378650665283,0.2826812267303467
1758804817060913000,4.455912841796875,0.10568941384553909,0.24958772957324982,0.2878224551677704
1758804817070869000,4.465868896484375,0.11791491508483887,0.21737758815288544,0.2902861535549164
1758804817080824800,4.475824951171875,0.10367552936077118,0.17416781187057495,0.28551724553108215
1758804817090781000,4.485781005859375,0.07525001466274261,0.13978585600852966,0.2794340252876282
1758804817100736800,4.49573681640625,0.04015354439616203,0.12573662400245667,0.2724035680294037
1758804817110692900,4.50569287109375,0.006363356951624155,0.11986382305622101,0.2734898626804352
1758804817120649000,4.51564892578125,-0.02251409739255905,0.11678653955459595,0.27616366744041443
1758804817130603800,4.525603759765625,-0.03706907108426094,0.09804321080446243,0.2738989293575287
1758804817140560000,4.535559814453125,-0.043411124497652054,0.06915456801652908,0.27497270703315735
1758804817150515700,4.545515625,-0.04091041535139084,0.050888482481241226,0.2784896790981293
1758804817160471800,4.555471923828125,-0.03129081055521965,0.009942378848791122,0.27973151206970215
1758804817170428000,4.565427978515625,-0.01437893882393837,-0.06863845139741898,0.2674998939037323
1758804817180384000,4.575384033203125,-0.004989964887499809,-0.14998337626457214,0.24330532550811768
1758804817190339800,4.58533984375,-0.010860104113817215,-0.19554392993450165,0.22349913418293
1758804817200296000,4.5952958984375,-0.02267388626933098,-0.2167528122663498,0.2110736221075058
1758804817210250800,4.605250732421875,-0.029697975143790245,-0.24807238578796387,0.20282875001430511
1758804817220206800,4.615206787109375,-0.036367062479257584,-0.26801973581314087,0.19564779102802277
1758804817230163000,4.625162841796875,-0.04291391000151634,-0.2668820321559906,0.17776253819465637
1758804817240119000,4.635119140625,-0.044193558394908905,-0.2750435471534729,0.14786376059055328
1758804817250075000,4.645074951171875,-0.04826579988002777,-0.27612611651420593,0.10821595042943954
1758804817260031000,4.655031005859375,-0.05425764620304108,-0.2667461931705475,0.0712110623717308
1758804817269986800,4.66498681640625,-0.063547283411026,-0.2635834515094757,0.03212011978030205
1758804817279943000,4.67494287109375,-0.0755394995212555,-0.2590488791465759,-0.012359730899333954
1758804817289898000,4.68489794921875,-0.08675220608711243,-0.23421569168567657,-0.06115203723311424
1758804817299853800,4.694853759765625,-0.09063828736543655,-0.22536468505859375,-0.11501234024763107
1758804817309810000,4.704809814453125,-0.08314894884824753,-0.217407688498497,-0.1788770705461502
1758804817319765800,4.714765869140625,-0.08000748604536057,-0.21253995597362518,-0.24521268904209137
1758804817329721900,4.724721923828125,-0.07922717928886414,-0.2079971432685852,-0.30281686782836914
1758804817339677700,4.734677734375,-0.08503632992506027,-0.16239796578884125,-0.3418438732624054
1758804817349634000,4.744634033203125,-0.10820716619491577,-0.06566396355628967,-0.33095288276672363
1758804817359590000,4.75458984375,-0.13064536452293396,0.054790545254945755,-0.2617304027080536
1758804817369546000,4.7645458984375,-0.14902916550636292,0.16639962792396545,-0.14903607964515686
1758804817379500800,4.774500732421875,-0.14993064105510712,0.2513904273509979,-0.026546921581029892
1758804817389457000,4.784456787109375,-0.1292828917503357,0.311423659324646,0.060815148055553436
1758804817399413000,4.7944130859375,-0.0921538919210434,0.35602283477783203,0.09778940677642822
1758804817409369000,4.804369140625,-0.04531048983335495,0.37981629371643066,0.11674392968416214
1758804817419325000,4.814324951171875,-0.0006881608278490603,0.35557276010513306,0.13077612221240997
1758804817429281000,4.824281005859375,0.03587890416383743,0.2852727472782135,0.1459851711988449
1758804817439236900,4.83423681640625,0.037820082157850266,0.22157153487205505,0.14570607244968414
1758804817449193000,4.84419287109375,0.012123242020606995,0.19641318917274475,0.12515924870967865
1758804817459148800,4.854148681640625,-0.022609705105423927,0.20036877691745758,0.09792176634073257
1758804817469103900,4.864103759765625,-0.044388771057128906,0.2010881006717682,0.0748971477150917
1758804817479060000,4.87406005859375,-0.05136944726109505,0.20014001429080963,0.029648972675204277
1758804817489015800,4.884015869140625,-0.04096980392932892,0.19961191713809967,-0.03368952125310898
1758804817498972000,4.893971923828125,-0.016877783462405205,0.1916024535894394,-0.09250357002019882
1758804817508927700,4.903927734375,0.006970025133341551,0.19391994178295135,-0.12138395011425018
1758804817518883800,4.9138837890625,0.01685701124370098,0.23161911964416504,-0.1127379983663559
1758804817528840000,4.92383984375,0.006660033017396927,0.3043726682662964,-0.07237033545970917
1758804817538796000,4.933796142578125,-0.0007097324123606086,0.3726491928100586,-0.017176324501633644
1758804817548752000,4.943751953125,0.01010935939848423,0.41547495126724243,0.03840331360697746
1758804817558707000,4.95370703125,0.04313149303197861,0.44075047969818115,0.09100660681724548
1758804817568662800,4.963662841796875,0.09631109237670898,0.45230862498283386,0.13490454852581024
1758804817578619000,4.973618896484375,0.15824928879737854,0.4595625400543213,0.1695253849029541
1758804817588575000,4.983574951171875,0.21541883051395416,0.4612767994403839,0.19641637802124023
1758804817598530800,4.99353076171875,0.2630752921104431,0.44959938526153564,0.21027706563472748
1758804817608487000,5.00348681640625,0.29826605319976807,0.42575129866600037,0.20724879205226898
1758804817618442800,5.01344287109375,0.3149086833000183,0.40495336055755615,0.19497747719287872
1758804817628398800,5.02339892578125,0.3150109350681305,0.38248398900032043,0.1743459701538086
1758804817638354700,5.033354736328125,0.30225226283073425,0.3631044328212738,0.15043237805366516
1758804817648310800,5.043310791015625,0.280561625957489,0.359020471572876,0.12881310284137726
1758804817658265900,5.053265869140625,0.256802499294281,0.36260563135147095,0.11397583782672882
1758804817668222000,5.063221923828125,0.24631842970848083,0.36230549216270447,0.1034395694732666
1758804817678177800,5.073177734375,0.24449975788593292,0.35248056054115295,0.09201487898826599
1758804817688134000,5.0831337890625,0.24844762682914734,0.3222411572933197,0.0849284753203392
1758804817698089700,5.09308984375,0.25151026248931885,0.2619844675064087,0.08185864984989166
1758804817708046000,5.103046142578125,0.2558687925338745,0.1983831226825714,0.08177688717842102
1758804817718002000,5.113001953125,0.25230681896209717,0.1598128378391266,0.08221524208784103
1758804817727958000,5.1229580078125,0.2412794679403305,0.13397803902626038,0.09009580314159393
1758804817737913900,5.132913818359375,0.227214515209198,0.0887857973575592,0.09383008629083633
1758804817747870000,5.142869873046875,0.20142419636249542,0.06884404271841049,0.08774103969335556
1758804817757825000,5.152824951171875,0.1698119342327118,0.09959503263235092,0.07358314096927643
1758804817767780400,5.1627802734375,0.13032418489456177,0.13734693825244904,0.05932830274105072
1758804817777736400,5.172736328125,0.08486109226942062,0.1718926727771759,0.058336012065410614
1758804817787692300,5.1826923828125,0.04092000424861908,0.21413493156433105,0.06692390888929367
1758804817797648400,5.1926484375,0.00015579492901451886,0.24499110877513885,0.06913672387599945
1758804817807604200,5.202604248046875,-0.03328658267855644,0.25733113288879395,0.04767404496669769
1758804817817560300,5.212560302734375,-0.05319264903664589,0.2859979271888733,0.021268004551529884
1758804817827516400,5.222516357421875,-0.06318003684282303,0.311349093914032,-0.017943046987056732
1758804817837472500,5.232472412109375,-0.06387245655059814,0.2961919903755188,-0.05380411073565483
1758804817847428400,5.242428466796875,-0.06877613812685013,0.2538386583328247,-0.07588864117860794
1758804817857384400,5.252384521484375,-0.0852736160159111,0.22457905113697052,-0.0891362652182579
1758804817867339300,5.26233935546875,-0.10123927146196365,0.17783470451831818,-0.10780396312475204
1758804817877295600,5.272295654296875,-0.10741274058818817,0.0878201350569725,-0.13378575444221497
1758804817887251500,5.28225146484375,-0.11740013211965561,-0.02425500564277172,-0.15818829834461212
1758804817897207600,5.29220751953125,-0.1348198652267456,-0.11712183058261871,-0.17487195134162903
1758804817907163400,5.302163330078125,-0.16275349259376526,-0.19044451415538788,-0.16967745125293732
1758804817917119500,5.312119384765625,-0.18914808332920074,-0.26342764496803284,-0.1443779468536377
1758804817927075300,5.322075439453125,-0.20469774305820465,-0.36841344833374023,-0.12069019675254822
1758804817937031200,5.33203125,-0.21253836154937744,-0.488057017326355,-0.11092571914196014
1758804817946987300,5.3419873046875,-0.21865910291671753,-0.581604540348053,-0.08415216207504272
1758804817956943400,5.351943359375,-0.2127612680196762,-0.6225807666778564,-0.03299896419048309
1758804817966899500,5.3618994140625,-0.1708548367023468,-0.6585595011711121,0.01618003472685814
1758804817976854300,5.371854248046875,-0.09553398191928864,-0.7187528014183044,0.03930399566888809
1758804817986810400,5.381810302734375,-0.004800347611308098,-0.7882895469665527,0.0443594753742218
1758804817996766200,5.39176611328125,0.07910973578691483,-0.844674289226532,0.0390470027923584
1758804818006722600,5.40172265625,0.1390894502401352,-0.8834296464920044,0.018619224429130554
1758804818016678400,5.411678466796875,0.16587285697460175,-0.9084154367446899,-0.02412983775138855
1758804818026634500,5.421634521484375,0.16642360389232635,-0.9077983498573303,-0.07884527742862701
1758804818036590300,5.43159033203125,0.14565786719322205,-0.9129622578620911,-0.13016092777252197
1758804818046546400,5.44154638671875,0.11767150461673737,-0.9085416793823242,-0.16480599343776703
1758804818056502300,5.451502197265625,0.07202093303203583,-0.8823939561843872,-0.17869757115840912
1758804818066458400,5.461458251953125,0.01284842099994421,-0.8155949711799622,-0.1733992099761963
1758804818076414500,5.47141455078125,-0.043122969567775726,-0.7208881378173828,-0.15137380361557007
1758804818086370600,5.48137060546875,-0.09080766886472702,-0.6137638092041016,-0.11611701548099518
1758804818096325400,5.491325439453125,-0.1184917613863945,-0.5150817036628723,-0.06145590543746948
1758804818106281200,5.50128125,-0.13294686377048492,-0.43442946672439575,0.006647782865911722
1758804818116237300,5.5112373046875,-0.1367165744304657,-0.3528784215450287,0.08055396378040314
1758804818126193400,5.521193359375,-0.14023274183273315,-0.2675025463104248,0.15068991482257843
1758804818136149500,5.5311494140625,-0.1290607750415802,-0.201119527220726,0.21577464044094086
1758804818146105300,5.541105224609375,-0.10161291062831879,-0.14723792672157288,0.2712426781654358
1758804818156061400,5.5510615234375,-0.07044700533151627,-0.10860397666692734,0.31154483556747437
1758804818166017300,5.561017333984375,-0.04162334278225899,-0.09665463864803314,0.33162400126457214
1758804818175973400,5.570973388671875,-0.024205470457673073,-0.11339553445577621,0.33805713057518005
1758804818185929200,5.58092919921875,-0.0190754234790802,-0.1411595195531845,0.3365447223186493
1758804818195885300,5.59088525390625,-0.022658441215753555,-0.18540288507938385,0.3242127001285553
1758804818205841400,5.60084130859375,-0.03664003685116768,-0.2225143015384674,0.3090888559818268
1758804818215796500,5.61079638671875,-0.06511322408914566,-0.24214871227741241,0.2893678843975067
1758804818225752300,5.62075244140625,-0.09766504168510437,-0.2487746626138687,0.26210644841194153
1758804818235708400,5.63070849609375,-0.1280927211046219,-0.24640418589115143,0.22610902786254883
1758804818245664300,5.640664306640625,-0.14990854263305664,-0.2504391372203827,0.18109308183193207
1758804818255620400,5.650620361328125,-0.16126692295074463,-0.28315314650535583,0.1387813240289688
1758804818265576400,5.660576416015625,-0.16380837559700012,-0.3351987600326538,0.10556211322546005
1758804818275532500,5.670532470703125,-0.15799443423748016,-0.38176652789115906,0.08914745599031448
1758804818285488400,5.68048828125,-0.152589812874794,-0.40558505058288574,0.08490689843893051
1758804818295444500,5.690444580078125,-0.1467316597700119,-0.410981684923172,0.08153294026851654
1758804818305400300,5.700400390625,-0.1443590372800827,-0.4103321433067322,0.08105889707803726
1758804818315356400,5.7103564453125,-0.14454573392868042,-0.41507068276405334,0.07259830087423325
1758804818325312300,5.720312255859375,-0.1525551825761795,-0.42787089943885803,0.06048757955431938
1758804818335268600,5.7302685546875,-0.15954731404781342,-0.4444323182106018,0.058999404311180115
1758804818345224400,5.740224365234375,-0.16871072351932526,-0.47004765272140503,0.06745227426290512
1758804818355179300,5.75017919921875,-0.17888399958610535,-0.49554476141929626,0.07747109234333038
1758804818365135400,5.76013525390625,-0.19721080362796783,-0.49969184398651123,0.09097784012556076
1758804818375091200,5.77009130859375,-0.21753577888011932,-0.5001301765441895,0.10432161390781403
1758804818385047600,5.780047607421875,-0.24519138038158417,-0.4911974370479584,0.11228712648153305
1758804818395003400,5.79000341796875,-0.26984691619873047,-0.4674904942512512,0.11252202093601227
1758804818404959500,5.79995947265625,-0.29229843616485596,-0.427346795797348,0.11166287958621979
1758804818414915300,5.809915283203125,-0.3149765729904175,-0.3731807768344879,0.10262571275234222
1758804818424871400,5.819871337890625,-0.341086745262146,-0.3152037560939789,0.08921349793672562
1758804818434827300,5.8298271484375,-0.3568342924118042,-0.2486281841993332,0.07318046689033508
1758804818444783400,5.839783447265625,-0.3479505181312561,-0.1834864765405655,0.06040368974208832
1758804818454739500,5.849739501953125,-0.3217791020870209,-0.11109615862369537,0.04785194620490074
1758804818464695600,5.859695556640625,-0.28350308537483215,-0.03502349928021431,0.03774631395936012
1758804818474651400,5.8696513671875,-0.23291607201099396,0.035710860043764114,0.025422003120183945
1758804818484607500,5.879607421875,-0.1713120937347412,0.10399111360311508,0.006854976527392864
1758804818494562300,5.889562255859375,-0.11412044614553452,0.171403169631958,-0.014708904549479485
1758804818504518100,5.89951806640625,-0.06612709164619446,0.23988209664821625,-0.023255255073308945
1758804818514474500,5.909474609375,-0.025411883369088173,0.28984513878822327,0.008158859796822071
1758804818524430300,5.919430419921875,0.013134710490703583,0.3247394561767578,0.07585295289754868
1758804818534386400,5.929386474609375,0.0511942133307457,0.35924604535102844,0.15107713639736176
1758804818544342300,5.93934228515625,0.08969606459140778,0.3826834559440613,0.18543830513954163
1758804818554298400,5.94929833984375,0.13045334815979004,0.39131343364715576,0.17403890192508698
1758804818564254200,5.959254150390625,0.1679874062538147,0.3656029999256134,0.1411145180463791
1758804818574210300,5.969210205078125,0.2069835364818573,0.3041071593761444,0.11951121687889099
1758804818584166400,5.97916650390625,0.23417335748672485,0.23115891218185425,0.09689752012491226
1758804818594122500,5.98912255859375,0.2391100525856018,0.16896452009677887,0.06658834964036942
1758804818604078300,5.999078369140625,0.22268792986869812,0.14086976647377014,0.020594224333763123
1758804818614034400,6.009034423828125,0.19463393092155457,0.13535675406455994,-0.04536508396267891
1758804818623990300,6.018990234375,0.17367751896381378,0.15006007254123688,-0.12077728658914566
1758804818633945300,6.0289453125,0.1566186398267746,0.1751534342765808,-0.18890707194805145
1758804818643901400,6.0389013671875,0.13412931561470032,0.22269725799560547,-0.2424350082874298
1758804818653857500,6.048857421875,0.0983382910490036,0.2962646782398224,-0.2770691514015198
1758804818663813400,6.0588134765625,0.05595221370458603,0.3676352798938751,-0.29563483595848083
1758804818673769500,6.06876953125,0.00845766719430685,0.45505034923553467,-0.29401376843452454
1758804818683725300,6.078725341796875,-0.030779484659433365,0.5450729131698608,-0.27455538511276245
1758804818693681400,6.088681396484375,-0.05425577983260155,0.6173348426818848,-0.2383025884628296
1758804818703637200,6.09863720703125,-0.06233527883887291,0.6933742165565491,-0.18337488174438477
1758804818713593600,6.108593505859375,-0.0456596314907074,0.765403151512146,-0.11319419741630554
1758804818723549400,6.118549560546875,-0.004118045791983604,0.8087809681892395,-0.03975646570324898
1758804818733505500,6.128505615234375,0.048225853592157364,0.8385231494903564,0.030172815546393394
1758804818743461400,6.13846142578125,0.1022198423743248,0.8593575954437256,0.09116719663143158
1758804818753417500,6.14841748046875,0.14949068427085876,0.8557016253471375,0.13303154706954956
1758804818763373300,6.158373291015625,0.1888868361711502,0.8216765522956848,0.1616211235523224
1758804818773330700,6.16833056640625,0.22109615802764893,0.7605252861976624,0.1739502251148224
1758804818783286800,6.178286865234375,0.2485078126192093,0.6895424723625183,0.1751459836959839
1758804818793241900,6.188241943359375,0.26727059483528137,0.620830237865448,0.16826331615447998
1758804818803198000,6.198197998046875,0.2770558297634125,0.5578568577766418,0.15344761312007904
1758804818813153800,6.20815380859375,0.2816876173019409,0.5048136115074158,0.12777021527290344
1758804818823110000,6.21810986328125,0.27796369791030884,0.45139941573143005,0.0970945879817009
1758804818833065700,6.228065673828125,0.2725819945335388,0.3962743580341339,0.06121622025966644
1758804818843021800,6.238021728515625,0.26492565870285034,0.3381021320819855,0.02130741998553276
1758804818852977700,6.247977783203125,0.2568983733654022,0.28921955823898315,-0.02448670007288456
1758804818862933800,6.257933837890625,0.24483612179756165,0.2443556785583496,-0.06997668743133545
1758804818872889900,6.267889892578125,0.2257644236087799,0.2117905467748642,-0.11021359264850616
1758804818882846000,6.277845947265625,0.2010553479194641,0.19547894597053528,-0.14230947196483612
1758804818892801800,6.2878017578125,0.17648129165172577,0.17687250673770905,-0.1742013543844223
1758804818902757600,6.297757568359375,0.15079723298549652,0.144241064786911,-0.20604504644870758
1758804818912713700,6.307713623046875,0.1234859824180603,0.13660764694213867,-0.23327825963497162
1758804818922669600,6.317669677734375,0.09904269129037857,0.15743303298950195,-0.24933978915214539
1758804818932625700,6.327625732421875,0.078658327460289,0.1729411482810974,-0.2506740391254425
1758804818942581800,6.337581787109375,0.06334381550550461,0.18885406851768494,-0.23575474321842194
1758804818952537900,6.347537841796875,0.04543672502040863,0.21215194463729858,-0.22001998126506805
1758804818962492700,6.35749267578125,0.02930302731692791,0.24111434817314148,-0.20061352849006653
1758804818972448800,6.36744873046875,0.017707090824842453,0.25339818000793457,-0.18204064667224884
1758804818982404600,6.377404541015625,0.01703277975320816,0.23928821086883545,-0.1709882616996765
1758804818992360700,6.387360595703125,0.009187373332679272,0.2162976861000061,-0.17138133943080902
1758804819002316800,6.39731689453125,-0.014948856085538864,0.18320125341415405,-0.1886277049779892
1758804819012273000,6.40727294921875,-0.04043078050017357,0.126723051071167,-0.21220333874225616
1758804819022228700,6.417228759765625,-0.07034873217344284,0.05896691232919693,-0.23472222685813904
1758804819032184800,6.427184814453125,-0.10550165921449661,-0.01576458103954792,-0.2519369125366211
1758804819042140700,6.437140625,-0.14228923618793488,-0.08443072438240051,-0.2603445053100586
1758804819052096800,6.4470966796875,-0.17338483035564423,-0.1451987326145172,-0.2579372823238373
1758804819062052600,6.457052490234375,-0.19965985417366028,-0.17711326479911804,-0.24218520522117615
1758804819072009000,6.467009033203125,-0.2200484722852707,-0.18840347230434418,-0.20633558928966522
1758804819081964800,6.47696484375,-0.23123934864997864,-0.20480135083198547,-0.14638757705688477
1758804819091921000,6.4869208984375,-0.23041057586669922,-0.25683391094207764,-0.08186663687229156
1758804819101876700,6.496876708984375,-0.21353864669799805,-0.324721097946167,-0.02563026174902916
1758804819111832800,6.506832763671875,-0.19620519876480103,-0.36533138155937195,0.030104106292128563
1758804819121788700,6.51678857421875,-0.16768433153629303,-0.37049657106399536,0.08700014650821686
1758804819131744800,6.526744873046875,-0.12445857375860214,-0.37988847494125366,0.12533767521381378
1758804819141699800,6.536699951171875,-0.06923286616802216,-0.41878047585487366,0.13948732614517212
1758804819151655700,6.54665576171875,-0.002058357233181596,-0.47059521079063416,0.14181625843048096
1758804819161611800,6.55661181640625,0.06149798259139061,-0.5150367021560669,0.1404077112674713
1758804819171567600,6.566567626953125,0.1166997179389,-0.5555378198623657,0.12418000400066376
1758804819181523700,6.576523681640625,0.1453087329864502,-0.596538782119751,0.0840778574347496
1758804819191479800,6.586479736328125,0.1510036289691925,-0.6233240365982056,0.026279540732502937
1758804819201436000,6.596435791015625,0.13642069697380066,-0.6112865209579468,-0.01782000996172428
1758804819211391700,6.606391845703125,0.10368165373802185,-0.556793749332428,-0.034807249903678894
1758804819221347800,6.616347900390625,0.053876280784606934,-0.46570858359336853,-0.02328508161008358
1758804819231303700,6.6263037109375,-0.004820321686565876,-0.36979803442955017,-0.00012090751260984689
1758804819241259800,6.636259765625,-0.05627072975039482,-0.2772257328033447,0.03845391422510147
1758804819251215600,6.646215576171875,-0.09237653762102127,-0.18428435921669006,0.08317238092422485
1758804819261171700,6.656171630859375,-0.11020107567310333,-0.1249520555138588,0.13470721244812012
1758804819271127800,6.6661279296875,-0.11193399131298065,-0.10538501292467117,0.18829800188541412
1758804819281084000,6.676083984375,-0.1050150990486145,-0.09625755995512009,0.24358975887298584
1758804819291039700,6.686039794921875,-0.09354566037654877,-0.08744435757398605,0.2960210144519806
1758804819300995800,6.695995849609375,-0.07544948160648346,-0.09984830021858215,0.3345681428909302
1758804819310951700,6.70595166015625,-0.054609447717666626,-0.14136937260627747,0.35619086027145386
1758804819320907800,6.71590771484375,-0.03653350844979286,-0.19174359738826752,0.35985538363456726
1758804819330863600,6.725863525390625,-0.02738874778151512,-0.25432148575782776,0.34574782848358154
1758804819340818700,6.735818603515625,-0.036368660628795624,-0.31021326780319214,0.3232017457485199
1758804819350774800,6.74577490234375,-0.053411293774843216,-0.3622865676879883,0.29780131578445435
1758804819360730600,6.755730712890625,-0.07343000918626785,-0.40247899293899536,0.2725297808647156
1758804819370686700,6.765686767578125,-0.09675290435552597,-0.4090269207954407,0.24519963562488556
1758804819380642600,6.775642578125,-0.11382962763309479,-0.40123265981674194,0.2176806628704071
1758804819390598700,6.7855986328125,-0.11848323792219162,-0.40288805961608887,0.19379183650016785
1758804819400554800,6.7955546875,-0.11150655150413513,-0.40546414256095886,0.1786581575870514
1758804819410510800,6.8055107421875,-0.0956524908542633,-0.398165762424469,0.16984416544437408
1758804819420466700,6.815466796875,-0.08561503887176514,-0.38432422280311584,0.1618722528219223
1758804819430422800,6.8254228515625,-0.07449793815612793,-0.3771885633468628,0.15824076533317566
1758804819440378600,6.835378662109375,-0.07162172347307205,-0.3791571855545044,0.15176449716091156
1758804819450334700,6.845334716796875,-0.0767456442117691,-0.3821508288383484,0.14615507423877716
1758804819460290600,6.85529052734375,-0.08350474387407303,-0.3981923758983612,0.13092473149299622
1758804819470247000,6.865246826171875,-0.09742375463247299,-0.42352384328842163,0.1091318130493164
1758804819480824800,6.875824951171875,-0.12023453414440155,-0.4506334960460663,0.08199845999479294
1758804819490781000,6.885781005859375,-0.144952654838562,-0.4835440218448639,0.054980162531137466
1758804819500736800,6.89573681640625,-0.17407938838005066,-0.5132297277450562,0.0251008253544569
1758804819510692900,6.90569287109375,-0.20697075128555298,-0.5305091142654419,-0.005105812568217516
1758804819520648700,6.915648681640625,-0.23576219379901886,-0.5417418479919434,-0.032812539488077164
1758804819530604800,6.925604736328125,-0.2606731355190277,-0.5440680980682373,-0.05125466361641884
1758804819540560600,6.935560546875,-0.2711004614830017,-0.5092278122901917,-0.05447655916213989
1758804819550516700,6.945516845703125,-0.27425259351730347,-0.4491349160671234,-0.04084143787622452
1758804819560472800,6.955472900390625,-0.25988298654556274,-0.3748228847980499,-0.015402392484247684
1758804819570429000,6.965428955078125,-0.2407875806093216,-0.2831597924232483,0.016894826665520668
1758804819580384800,6.975384765625,-0.21426542103290558,-0.1910937875509262,0.04843437671661377
1758804819590340900,6.9853408203125,-0.18769985437393188,-0.12756994366645813,0.08209620416164398
1758804819600296700,6.995296630859375,-0.17045296728610992,-0.0841420441865921,0.10591551661491394
1758804819610252800,7.005252685546875,-0.16150234639644623,-0.026641463860869408,0.11881719529628754
1758804819620208600,7.015208740234375,-0.1443191021680832,0.023933295160531998,0.1184571385383606
1758804819630164700,7.025164794921875,-0.12802506983280182,0.06863605231046677,0.10658875852823257
1758804819640120800,7.035120849609375,-0.09436538070440292,0.11567600071430206,0.09408095479011536
1758804819650077000,7.045076904296875,-0.03621606156229973,0.15157514810562134,0.0825800970196724
1758804819660032800,7.05503271484375,0.01811535470187664,0.15139564871788025,0.05669736862182617
1758804819669987600,7.064987548828125,0.05185014754533768,0.1260162591934204,0.01258103922009468
1758804819679943700,7.074943603515625,0.05976799130439758,0.10155458748340607,-0.01125025749206543
1758804819689899800,7.084899658203125,0.044616736471652985,0.10286246240139008,-0.0031076427549123764
1758804819699856000,7.09485595703125,0.02760899066925049,0.11925102770328522,0.03502562642097473
1758804819709811700,7.104811767578125,0.022247781977057457,0.14695748686790466,0.08008737862110138
1758804819719767800,7.114767822265625,0.04295678809285164,0.16691628098487854,0.11362989246845245
1758804819729723600,7.1247236328125,0.0835108757019043,0.16070951521396637,0.13730140030384064
1758804819739679700,7.1346796875,0.14737214148044586,0.1281217485666275,0.1534223109483719
1758804819749635600,7.144635498046875,0.2165221869945526,0.09087877720594406,0.1784842610359192
1758804819759592000,7.154592041015625,0.26756298542022705,0.0908912867307663,0.2075105756521225
1758804819769547000,7.164547119140625,0.29502180218696594,0.12802854180335999,0.223011776804924
1758804819779503000,7.174503173828125,0.31300851702690125,0.17140477895736694,0.2081689089536667
1758804819789459000,7.184458984375,0.3099845051765442,0.2043643295764923,0.16815757751464844
1758804819799415000,7.1944150390625,0.29998165369033813,0.22744381427764893,0.1096511259675026
1758804819809371000,7.204370849609375,0.28119784593582153,0.2590020000934601,0.03586851805448532
1758804819819327200,7.2143271484375,0.24257083237171173,0.27685290575027466,-0.049746252596378326
1758804819829283000,7.224282958984375,0.18496878445148468,0.2929988503456116,-0.1424868404865265
1758804819839239200,7.2342392578125,0.09596115350723267,0.32751208543777466,-0.2282608598470688
1758804819849195000,7.244195068359375,-0.015857793390750885,0.39347031712532043,-0.2840231955051422
1758804819859151000,7.254151123046875,-0.10839039087295532,0.46980130672454834,-0.2760915160179138
1758804819869107000,7.26410693359375,-0.14878948032855988,0.5274438261985779,-0.20909090340137482
1758804819879063000,7.27406298828125,-0.14971625804901123,0.5879186391830444,-0.08852081000804901
1758804819889019100,7.28401904296875,-0.11492525041103363,0.6634719967842102,0.048537176102399826
1758804819898974000,7.293973876953125,-0.04760906472802162,0.7121681571006775,0.15685433149337769
1758804819908930000,7.303929931640625,0.05486085265874863,0.705414891242981,0.2214261293411255
1758804819918886000,7.313885986328125,0.16805025935173035,0.6412215232849121,0.2429170459508896
1758804819928842000,7.323842041015625,0.2729335427284241,0.5525489449501038,0.23831883072853088
1758804819938797800,7.3337978515625,0.3476567566394806,0.471468985080719,0.22624298930168152
1758804819948754200,7.343754150390625,0.38739752769470215,0.41833412647247314,0.21015696227550507
1758804819958710000,7.3537099609375,0.3980967700481415,0.39416301250457764,0.19151030480861664
1758804819968666000,7.363666015625,0.3901709318161011,0.3815223276615143,0.16846570372581482
1758804819978622000,7.3736220703125,0.3642890155315399,0.37190619111061096,0.1439659595489502
1758804819988578000,7.383578125,0.32919466495513916,0.3527226448059082,0.12210593372583389
1758804819998534000,7.393533935546875,0.29406705498695374,0.3414098024368286,0.10020649433135986
1758804820008490000,7.403489990234375,0.25845205783843994,0.33792585134506226,0.0829758420586586
1758804820018446000,7.413446044921875,0.2285519540309906,0.3260582685470581,0.06520776450634003
1758804820028402200,7.423402099609375,0.2043323665857315,0.31599685549736023,0.04525509476661682
1758804820038358000,7.43335791015625,0.18110907077789307,0.29833129048347473,0.023076556622982025
1758804820048314000,7.443314208984375,0.15799443423748016,0.2869020700454712,0.002040514023974538
1758804820058270000,7.45327001953125,0.1266556829214096,0.29156607389450073,-0.011412710882723331
1758804820068226000,7.46322607421875,0.08697617799043655,0.30661025643348694,-0.023937290534377098
1758804820078182000,7.473181884765625,0.05032335966825485,0.3138013482093811,-0.03554627671837807
1758804820088138000,7.483137939453125,0.020300744101405144,0.3076278567314148,-0.04766472429037094
1758804820098094000,7.493093994140625,-0.0057156761176884174,0.3007720708847046,-0.05553915724158287
1758804820108050200,7.50305029296875,-0.025780197232961655,0.2991129457950592,-0.06360773742198944
1758804820118006000,7.513006103515625,-0.03837002441287041,0.2952151298522949,-0.07467370480298996
1758804820127962000,7.522962158203125,-0.03850371763110161,0.27215030789375305,-0.08799190819263458
1758804820137917000,7.5329169921875,-0.035838425159454346,0.23532544076442719,-0.10873926430940628
1758804820147873000,7.542873046875,-0.03837268799543381,0.18542632460594177,-0.13738608360290527
1758804820157829000,7.5528291015625,-0.043583162128925323,0.11932586133480072,-0.1686055213212967
1758804820167785000,7.562784912109375,-0.0623970665037632,0.06060422584414482,-0.1884697824716568
1758804820177741000,7.572740966796875,-0.08816900849342346,0.006909305229783058,-0.1904088258743286
1758804820187697000,7.58269677734375,-0.11873623728752136,-0.03476064279675484,-0.18335624039173126
1758804820197653000,7.592653076171875,-0.1295100599527359,-0.08489678055047989,-0.17411081492900848
1758804820207608800,7.60260888671875,-0.13147281110286713,-0.13991129398345947,-0.16723985970020294
1758804820217565200,7.612565185546875,-0.12666286528110504,-0.1790003776550293,-0.14184847474098206
1758804820227521000,7.62252099609375,-0.11483896523714066,-0.20406657457351685,-0.09640243649482727
1758804820237477000,7.63247705078125,-0.09298000484704971,-0.2466782182455063,-0.05700283125042915
1758804820247433000,7.642432861328125,-0.07289444655179977,-0.30217716097831726,-0.03557796776294708
1758804820257389000,7.65238916015625,-0.051956407725811005,-0.3377913534641266,-0.013309946283698082
1758804820267345000,7.662344970703125,-0.024575117975473404,-0.3547370433807373,0.020427776500582695
1758804820277301000,7.672301025390625,0.021804364398121834,-0.400188148021698,0.03881504014134407
1758804820287256800,7.6822568359375,0.09660323709249496,-0.478712260723114,0.023085078224539757
1758804820297213200,7.692213134765625,0.18860773742198944,-0.5659395456314087,-0.021462414413690567
1758804820307169000,7.7021689453125,0.28249746561050415,-0.6870060563087463,-0.06703629344701767
1758804820317125000,7.712125,0.3439030349254608,-0.8005595207214355,-0.0962865874171257
1758804820327081000,7.7220810546875,0.3416611850261688,-0.8611152768135071,-0.11585389822721481
1758804820337037000,7.732037109375,0.3000394403934479,-0.849316418170929,-0.13738475739955902
1758804820346992000,7.7419921875,0.2336668223142624,-0.788637638092041,-0.1504795253276825
1758804820356948000,7.751947998046875,0.1491767019033432,-0.7017738223075867,-0.14903156459331512
1758804820366904000,7.761904052734375,0.058818843215703964,-0.5949656367301941,-0.12949220836162567
1758804820376860000,7.77185986328125,-0.019757725298404694,-0.47458356618881226,-0.09254457801580429
1758804820386816000,7.78181591796875,-0.0632210448384285,-0.3939523696899414,-0.05084666982293129
1758804820396771800,7.791771728515625,-0.0704730972647667,-0.3511292636394501,-0.005176652688533068
1758804820406728000,7.80172802734375,-0.06220718100667,-0.3166101574897766,0.04318768531084061
1758804820416684000,7.81168408203125,-0.051482632756233215,-0.26853424310684204,0.10431628674268723
1758804820426640100,7.82164013671875,-0.04516987502574921,-0.24545396864414215,0.16434846818447113
1758804820436596000,7.831595947265625,-0.031677503138780594,-0.2379438579082489,0.21215513348579407
1758804820446552000,7.841552001953125,-0.012731507420539856,-0.23071816563606262,0.24753868579864502
1758804820456508000,7.8515078125,0.0125424237921834,-0.2321930229663849,0.2719990313053131
1758804820466464000,7.861464111328125,0.03373665735125542,-0.2512117326259613,0.28419655561447144
1758804820476419800,7.871419921875,0.03647198900580406,-0.2723095417022705,0.28061196208000183
1758804820486376000,7.8813759765625,0.0140196792781353,-0.2719963490962982,0.2707390785217285
1758804820496332000,7.89133203125,-0.029162945225834846,-0.25218749046325684,0.25867682695388794
1758804820506288000,7.9012880859375,-0.07673046737909317,-0.23487137258052826,0.2422294169664383
1758804820516244000,7.911243896484375,-0.11603499203920364,-0.22226129472255707,0.2319331020116806
1758804820526200000,7.921199951171875,-0.14112116396427155,-0.21164993941783905,0.22157339751720428
1758804820536777000,7.93177685546875,-0.1597507894039154,-0.20570309460163116,0.21118760108947754
1758804820546732800,7.94173291015625,-0.16948330402374268,-0.18666228652000427,0.20386257767677307
1758804820556689000,7.95168896484375,-0.16957251727581024,-0.16982951760292053,0.20098210871219635
1758804820566645000,7.96164501953125,-0.16194389760494232,-0.1676473170518875,0.1992073804140091
1758804820576601000,7.97160107421875,-0.15038737654685974,-0.17523892223834991,0.1941114217042923
1758804820586557000,7.981556884765625,-0.14105725288391113,-0.20199570059776306,0.1783130168914795
1758804820596513000,7.991512939453125,-0.138358935713768,-0.23066623508930206,0.15245158970355988
1758804820606468900,8.00146875,-0.14479607343673706,-0.271860808134079,0.11669492721557617
1758804820616425000,8.011425048828125,-0.15774382650852203,-0.3187564015388489,0.07880426943302155
1758804820626380800,8.021380859375,-0.17475822567939758,-0.36056244373321533,0.0400688573718071
1758804820636337200,8.031337158203126,-0.19930937886238098,-0.3912942707538605,0.003209908027201891
1758804820646293000,8.04129296875,-0.22232787311077118,-0.4178800582885742,-0.028483306989073753
1758804820656249000,8.0512490234375,-0.24476979672908783,-0.4134778678417206,-0.05115319788455963
1758804820666205000,8.061204833984375,-0.26409661769866943,-0.39342451095581055,-0.06973566859960556
1758804820676161000,8.0711611328125,-0.27128928899765015,-0.3734281659126282,-0.08138806372880936
1758804820686116900,8.081116943359374,-0.27108901739120483,-0.3565085828304291,-0.08767685294151306
1758804820696073000,8.091072998046876,-0.25687652826309204,-0.3375844359397888,-0.09414487332105637
1758804820706029000,8.101029052734376,-0.2415873259305954,-0.3053250312805176,-0.11372390389442444
1758804820715985200,8.110985107421875,-0.21810543537139893,-0.26743197441101074,-0.14385676383972168
1758804820725940000,8.12093994140625,-0.1922631859779358,-0.24487605690956116,-0.18258072435855865
1758804820735896000,8.13089599609375,-0.16456763446331024,-0.23941364884376526,-0.22234278917312622
1758804820745852000,8.140851806640624,-0.14019039273262024,-0.23034745454788208,-0.26453205943107605
1758804820755808000,8.15080810546875,-0.12417174875736237,-0.20070381462574005,-0.3075719475746155
1758804820765764000,8.16076416015625,-0.11241921782493591,-0.13049302995204926,-0.3502994179725647
1758804820775719700,8.1707197265625,-0.10482627898454666,-0.033610690385103226,-0.3800988793373108
1758804820785675800,8.18067578125,-0.09927918016910553,0.08988088369369507,-0.3738657236099243
1758804820795631600,8.190631591796874,-0.09888769686222076,0.23059193789958954,-0.3187665343284607
1758804820805587700,8.200587646484376,-0.0972093716263771,0.3585781157016754,-0.22813169658184052
1758804820815543600,8.21054345703125,-0.07553736865520477,0.44946569204330444,-0.10668729990720749
1758804820825499600,8.220499755859375,-0.03338059410452843,0.5127514600753784,0.006138053722679615
1758804820835455700,8.230455810546875,0.022818762809038162,0.5560645461082458,0.08009590208530426
1758804820845411800,8.240411865234375,0.09404553472995758,0.5529590845108032,0.10672084987163544
1758804820855367700,8.25036767578125,0.16278359293937683,0.48668256402015686,0.10013805329799652
1758804820865323800,8.26032373046875,0.2196149080991745,0.39499393105506897,0.08471115678548813
1758804820875279600,8.270279541015626,0.26080575585365295,0.3193303346633911,0.07628171890974045
1758804820885235700,8.280235595703125,0.2880517542362213,0.2666623294353485,0.05626673623919487
1758804820895191600,8.290191650390625,0.30765795707702637,0.23172803223133087,0.01878300867974758
1758804820905147000,8.30014697265625,0.330846905708313,0.2304675579071045,-0.032892435789108276
1758804820915102700,8.310102783203124,0.35828545689582825,0.2548735737800598,-0.08679614961147308
1758804820925058600,8.32005859375,0.38407203555107117,0.2991400957107544,-0.12823545932769775
1758804820935014700,8.3300146484375,0.3894478976726532,0.3414763808250427,-0.15980111062526703
1758804820944970500,8.339970458984375,0.38818609714508057,0.41681480407714844,-0.18506360054016113
1758804820954926800,8.3499267578125,0.36472710967063904,0.47929441928863525,-0.20494168996810913
1758804820964882700,8.359882568359374,0.3338208496570587,0.5209880471229553,-0.22478170692920685
1758804820974838800,8.3698388671875,0.28786852955818176,0.5453136563301086,-0.24225391447544098
1758804820984794600,8.379794677734376,0.20716729760169983,0.576291561126709,-0.23308305442333221
1758804820994750700,8.389750732421875,0.102147676050663,0.6348273158073425,-0.19548800587654114
1758804821004706600,8.39970654296875,0.03822115436196327,0.7125335335731506,-0.14345675706863403
1758804821014662700,8.40966259765625,0.009267001412808895,0.7528623342514038,-0.08952855318784714
1758804821024618800,8.41961865234375,0.009643039666116238,0.7948883175849915,-0.05247492715716362
1758804821034574800,8.429574951171874,0.024807877838611603,0.8434337377548218,-0.02917519584298134
1758804821044530700,8.43953076171875,0.057012420147657394,0.8832914233207703,-0.010125071741640568
1758804821054486800,8.44948681640625,0.0943552628159523,0.9208553433418274,0.009309612214565277
1758804821064442600,8.459442626953125,0.13992168009281158,0.9389131665229797,0.022775087505578995
1758804821074398700,8.469398681640625,0.1829138845205307,0.948469340801239,0.033196836709976196
1758804821084354600,8.4793544921875,0.20625196397304535,0.9588364958763123,0.04308302327990532
1758804821094310000,8.489309814453126,0.23008379340171814,0.9603462815284729,0.05002082139253616
1758804821104265700,8.499265625,0.2406243234872818,0.9586107134819031,0.057981543242931366
1758804821114221800,8.509221923828125,0.23684370517730713,0.9440426826477051,0.0680653378367424
1758804821124177700,8.519177734375,0.22021040320396423,0.9141294956207275,0.07058655470609665
1758804821134133800,8.5291337890625,0.1964653879404068,0.8822842240333557,0.06579738855361938
1758804821144089600,8.539089599609374,0.16825957596302032,0.8469089269638062,0.04877925664186478
1758804821154045700,8.549045654296876,0.14458701014518738,0.7888381481170654,0.02569098211824894
1758804821164001800,8.559001708984376,0.11878737062215805,0.7105156779289246,-0.011972772888839245
1758804821173958000,8.5689580078125,0.0985710471868515,0.6230350732803345,-0.06381812691688538
1758804821183913700,8.578913818359375,0.08739429712295532,0.5266206860542297,-0.11037897318601608
1758804821193869800,8.588869873046875,0.08976051211357117,0.4359341561794281,-0.14249403774738312
1758804821203825700,8.59882568359375,0.11079495400190353,0.3354584276676178,-0.17127294838428497
1758804821213781800,8.60878173828125,0.14221332967281342,0.2056463658809662,-0.20263992249965668
1758804821223737600,8.618737548828125,0.16120433807373047,0.09366603940725327,-0.251570463180542
1758804821233693700,8.628693603515625,0.16226480901241302,0.025399100035429,-0.3195907771587372
1758804821243649800,8.63864990234375,0.1551017016172409,-0.019583821296691895,-0.37392139434814453
1758804821253605600,8.648605712890625,0.1419086754322052,-0.027102457359433174,-0.39898228645324707
1758804821263561700,8.658561767578124,0.10797813534736633,-0.013173325918614864,-0.3889418840408325
1758804821273517600,8.668517578125,0.0658852756023407,0.0058094197884202,-0.35424357652664185
1758804821283473700,8.6784736328125,0.02533704787492752,0.01495151873677969,-0.3029031455516815
1758804821293429500,8.688429443359375,0.004800347611308098,-0.021097561344504356,-0.2501656413078308
1758804821303385900,8.6983857421875,0.0039012646302580833,-0.09869914501905441,-0.2105063647031784
1758804821313340700,8.708340576171874,0.014172278344631195,-0.18395811319351196,-0.18822316825389862
1758804821323296800,8.718296875,0.020724719390273094,-0.2362479567527771,-0.16728299856185913
1758804821333252600,8.728252685546876,0.016979249194264412,-0.2522522211074829,-0.1376422792673111
1758804821343208700,8.738208740234375,0.0002812298189383,-0.24019582569599152,-0.09539869427680969
1758804821353164800,8.748164794921875,-0.028180506080389023,-0.19791680574417114,-0.04920669272542
1758804821363121000,8.758120849609375,-0.05909581109881401,-0.1651487499475479,0.011445201002061367
1758804821373076700,8.76807666015625,-0.0811861976981163,-0.17173314094543457,0.060683052986860275
1758804821383032800,8.77803271484375,-0.09975908696651459,-0.23812974989414215,0.08245546370744705
1758804821392988700,8.78798876953125,-0.10627291351556778,-0.32493308186531067,0.1005559042096138
1758804821402944800,8.79794482421875,-0.09335817396640778,-0.46991023421287537,0.12650388479232788
1758804821412900600,8.807900634765625,-0.04037032648921013,-0.7304829955101013,0.12915025651454926
1758804821422856700,8.817856689453125,0.02352556586265564,-1.0286818742752075,0.09825120121240616
1758804821432812800,8.827812744140624,0.06334275007247925,-1.189150094985962,0.05630747973918915
1758804821442769000,8.837768798828124,0.06395341455936432,-1.1752103567123413,0.02618260122835636
1758804821452724700,8.847724853515626,0.050566237419843674,-1.1222385168075562,0.003638144349679351
1758804821462680800,8.857680908203125,0.045341648161411285,-1.0885330438613892,-0.024633174762129784
1758804821472636700,8.86763671875,0.020417124032974243,-1.0510202646255493,-0.0609765350818634
1758804821482592800,8.8775927734375,-0.025131985545158386,-0.9832190871238708,-0.08941429853439331
1758804821492548600,8.887548583984374,-0.07880879193544388,-0.8868643045425415,-0.10373598337173462
1758804821502504700,8.897504638671874,-0.12522876262664795,-0.8018019199371338,-0.10066855698823929
1758804821512460800,8.907460693359376,-0.17169931530952454,-0.7125918865203857,-0.07484041899442673
1758804821522417000,8.9174169921875,-0.20723120868206024,-0.59654700756073,-0.027415646240115166
1758804821532372700,8.927372802734375,-0.22482086718082428,-0.4811304211616516,0.033975012600421906
1758804821542328800,8.937328857421875,-0.22339341044425964,-0.37442392110824585,0.098290354013443
1758804821552284700,8.94728466796875,-0.1954784244298935,-0.27226293087005615,0.16279131174087524
1758804821562240500,8.957240478515626,-0.16524222493171692,-0.2076123207807541,0.2161322981119156
1758804821572195800,8.96719580078125,-0.12473314255475998,-0.16224749386310577,0.26421621441841125
1758804821582151700,8.977151611328125,-0.08990192413330078,-0.12408173084259033,0.3069301247596741
1758804821592107800,8.987107666015625,-0.06071368232369423,-0.07995075732469559,0.34390944242477417
1758804821602063600,8.997063720703125,-0.0345931313931942,-0.055752210319042206,0.36612287163734436
1758804821612019700,9.007019775390624,-0.00869335699826479,-0.07318846136331558,0.3625907003879547
1758804821621975600,9.0169755859375,0.005043760873377323,-0.14328552782535553,0.33801478147506714
1758804821631932000,9.026931884765625,0.0016298545524477959,-0.22766751050949097,0.29687508940696716
1758804821641887700,9.0368876953125,-0.005273858085274696,-0.32129228115081787,0.25872182846069336
1758804821651843800,9.04684375,-0.02117426134645939,-0.3844882845878601,0.22035767138004303
1758804821661799700,9.056799560546875,-0.022289060056209564,-0.4172033667564392,0.18813475966453552
1758804821671755800,9.066755859375,-0.003961718175560236,-0.4229848086833954,0.1639644354581833
1758804821681711600,9.076711669921876,0.017665812745690346,-0.40884795784950256,0.14694923162460327
1758804821691667700,9.086667724609375,0.03826776146888733,-0.37538135051727295,0.13658128678798676
1758804821701623600,9.09662353515625,0.04782504588365555,-0.3465084135532379,0.12948955595493317
1758804821711580000,9.106579833984375,0.04301990568637848,-0.3467124104499817,0.116062693297863
1758804821721535700,9.11653564453125,0.030131004750728607,-0.3808509409427643,0.08892986923456192
1758804821731491800,9.126491943359374,-0.005666141398251057,-0.43338632583618164,0.050333477556705475
1758804821741447700,9.13644775390625,-0.06484557688236237,-0.4646611511707306,0.003835750976577401
1758804821751403800,9.14640380859375,-0.12801948189735413,-0.4448549449443817,-0.03621206805109978
1758804821761359600,9.156359619140625,-0.17166709899902344,-0.4204854369163513,-0.06575131416320801
1758804821771315500,9.1663154296875,-0.1949031800031662,-0.41472741961479187,-0.08361659944057465
1758804821781271600,9.176271484375,-0.20691563189029694,-0.4044997990131378,-0.09407563507556915
1758804821791227400,9.186227294921874,-0.2195129096508026,-0.3694518208503723,-0.09925627708435059
1758804821801183500,9.19618359375,-0.23181724548339844,-0.3217918872833252,-0.09643492847681046
1758804821811139300,9.206139404296875,-0.24611496925354004,-0.262709379196167,-0.09787915647029877
1758804821821095200,9.21609521484375,-0.2574882507324219,-0.2172284573316574,-0.10023925453424454
1758804821831051300,9.22605126953125,-0.26803332567214966,-0.18797603249549866,-0.10075031220912933
1758804821841007400,9.23600732421875,-0.274954617023468,-0.1676875352859497,-0.10855257511138916
1758804821850963500,9.24596337890625,-0.2617591619491577,-0.15768124163150787,-0.123199962079525
1758804821860919300,9.255919189453126,-0.23153814673423767,-0.13851873576641083,-0.14011768996715546
1758804821870874400,9.265874267578125,-0.2057049572467804,-0.11078882962465286,-0.16257134079933167
1758804821880830200,9.275830322265625,-0.16872510313987732,-0.06580165028572083,-0.18456585705280304
1758804821890786300,9.285786376953125,-0.13487233221530914,-0.00436039362102747,-0.208612859249115
1758804821900742400,9.295742431640624,-0.09667221456766129,0.08281712234020233,-0.22024528682231903
1758804821910698500,9.305698486328126,-0.08236757665872574,0.1775020807981491,-0.207807257771492
1758804821920654300,9.315654296875,-0.06996097415685654,0.28155097365379333,-0.14834792912006378
1758804821930610400,9.3256103515625,-0.0634056031703949,0.3609270453453064,-0.05601426586508751
1758804821940566300,9.335566162109375,-0.05601133778691292,0.4137798547744751,0.04884530231356621
1758804821950522400,9.3455224609375,-0.04288914427161217,0.4624536633491516,0.13003362715244293
1758804821960478200,9.355478271484374,-0.026851853355765343,0.5162758827209473,0.18210428953170776
1758804821970434300,9.365434326171876,-0.01641998626291752,0.5479653477668762,0.2165277749300003
1758804821980390400,9.375390380859375,0.008129299618303776,0.5401660203933716,0.24174737930297852
1758804821990346500,9.385346435546875,0.023927703499794006,0.5107482075691223,0.25664857029914856
1758804822000302300,9.39530224609375,0.03280854597687721,0.4814622402191162,0.25608396530151367
1758804822010258400,9.405258544921875,0.041673678904771805,0.44122934341430664,0.2447250634431839
1758804822020214300,9.41521435546875,0.049861032515764236,0.384499728679657,0.21608595550060272
1758804822030170400,9.42517041015625,0.061942197382450104,0.3163473308086395,0.1570250391960144
1758804822040126200,9.435126220703125,0.07194875925779343,0.2673347592353821,0.07085446268320084
1758804822050082600,9.44508251953125,0.08583208173513412,0.25307008624076843,-0.015221030451357365
1758804822060038400,9.455038330078125,0.0934780165553093,0.25411295890808105,-0.09264657646417618
1758804822069994500,9.464994384765625,0.0963936448097229,0.2614121735095978,-0.1545453667640686
1758804822079950300,9.474950439453124,0.08267410844564438,0.26868951320648193,-0.19558919966220856
1758804822089906400,9.484906494140626,0.06192781776189804,0.30885183811187744,-0.20714892446994781
1758804822099862300,9.4948623046875,0.020780112594366074,0.36197444796562195,-0.1893582046031952
1758804822109818400,9.504818359375,-0.02877066098153591,0.4178134799003601,-0.1410956084728241
1758804822119774500,9.5147744140625,-0.06476355344057083,0.47855618596076965,-0.07738693058490753
1758804822129730300,9.524730224609375,-0.07602472603321075,0.5078358054161072,-0.007809720002114773
1758804822139686400,9.534686279296874,-0.06519205123186111,0.5218600034713745,0.0514938160777092
1758804822149642200,9.544642333984376,-0.035717517137527466,0.5413663387298584,0.09200689196586609
1758804822159598300,9.554598388671875,0.008865130133926868,0.5664887428283691,0.12781575322151184
1758804822169554200,9.56455419921875,0.06208920478820801,0.5897996425628662,0.16556739807128906
1758804822179510300,9.57451025390625,0.11467092484235764,0.605729877948761,0.19939087331295013
1758804822189466000,9.584466064453125,0.15646018087863922,0.5985414385795593,0.21819224953651428
1758804822199422500,9.59442236328125,0.18635442852973938,0.5746632814407349,0.22342084348201752
1758804822209378300,9.60437841796875,0.19811893999576569,0.5428252220153809,0.21057401597499847
1758804822219334400,9.61433447265625,0.19556470215320587,0.4953058958053589,0.19466029107570648
1758804822229290200,9.624290283203125,0.18084195256233215,0.45192405581474304,0.174541175365448
1758804822239246300,9.634246337890625,0.16343232989311218,0.412960410118103,0.1569153070449829
1758804822249202200,9.6442021484375,0.1604250967502594,0.380868524312973,0.13879063725471497
1758804822259158300,9.654158203125,0.16679483652114868,0.3608889579772949,0.12080897390842438
1758804822269114400,9.6641142578125,0.17141249775886536,0.3614111840724945,0.10190506279468536
1758804822279070500,9.674070556640626,0.1711355298757553,0.37395229935646057,0.08139179646968842
1758804822289026300,9.6840263671875,0.16210821270942688,0.392564594745636,0.05861937254667282
1758804822298981400,9.6939814453125,0.153357595205307,0.4130229949951172,0.03431190177798271
1758804822308937200,9.703937255859374,0.14383360743522644,0.4294227361679077,0.014718758873641491
1758804822318893300,9.713893310546876,0.12875904142856598,0.4468965232372284,-0.0027174896094948053
1758804822328849400,9.723849365234376,0.11704219877719879,0.4653596878051758,-0.02027118392288685
1758804822338805500,9.733805419921875,0.10034924000501633,0.47260695695877075,-0.04128778353333473
1758804822348761300,9.74376123046875,0.08288343250751495,0.47749972343444824,-0.06018983572721481
1758804822358717400,9.753717529296875,0.0681937038898468,0.4805431663990021,-0.07805752009153366
1758804822368673300,9.76367333984375,0.05150553584098816,0.4911489486694336,-0.09011924266815186
1758804822378629400,9.77362939453125,0.03984728083014488,0.5057244300842285,-0.09602879732847214
1758804822388585200,9.783585205078126,0.02961408533155918,0.5079936981201172,-0.09756676852703094
1758804822398541600,9.79354150390625,0.018909774720668793,0.49716582894325256,-0.0907682552933693
1758804822408497400,9.803497314453125,0.0037004624027758837,0.4717600643634796,-0.07846710830926895
1758804822418453500,9.81345361328125,-0.010598582215607166,0.4193565249443054,-0.06155124679207802
1758804822428409300,9.823409423828124,-0.03548901900649071,0.35208266973495483,-0.047795217484235764
1758804822438365400,9.833365478515624,-0.05794106423854828,0.3214627206325531,-0.032405078411102295
1758804822448321300,9.8433212890625,-0.05416683107614517,0.3037777245044708,-0.018453309312462807
1758804822458277000,9.853277099609375,-0.044917941093444824,0.25351482629776,-0.01098633836954832
1758804822468233500,9.8632333984375,-0.004814994987100363,0.18145661056041718,-0.009730124846100807
1758804822478189300,9.873189208984375,0.03206659108400345,0.09765411913394928,-0.01726527325809002
1758804822488145400,9.8831455078125,0.06396220624446869,0.02076093852519989,-0.030824491754174232
1758804822498101200,9.893101318359374,0.08472101390361786,-0.04759681224822998,-0.03597477823495865
1758804822508057300,9.903057373046876,0.0914313793182373,-0.08272363990545273,-0.03003006987273693
1758804822518013200,9.91301318359375,0.09429614245891571,-0.10062061995267868,-0.024448884651064873
1758804822527969300,9.92296923828125,0.09790099412202835,-0.12583516538143158,-0.036182504147291183
1758804822537925000,9.932925048828125,0.10513573884963989,-0.13805720210075378,-0.04848604276776314
1758804822547881500,9.942881591796874,0.11187539994716644,-0.11577879637479782,-0.040642235428094864
1758804822557837300,9.95283740234375,0.1303609311580658,-0.07681861519813538,-0.028547221794724464
1758804822567793400,9.96279345703125,0.17034856975078583,-0.06983953714370728,-0.01743997633457184
1758804822577749200,9.972749267578125,0.216586634516716,-0.11966381967067719,-0.026519758626818657
1758804822587705300,9.982705322265625,0.2589804232120514,-0.19858074188232422,-0.0482783168554306
1758804822597661200,9.9926611328125,0.2854490578174591,-0.27421265840530396,-0.0782250314950943
1758804822607617300,10.0026171875,0.28739821910858154,-0.33157607913017273,-0.1160416528582573
1758804822617573400,10.012573486328124,0.27194416522979736,-0.3745488226413727,-0.15493498742580414
1758804822627529500,10.022529541015626,0.24374182522296906,-0.4074247479438782,-0.1858161985874176
1758804822637485300,10.0324853515625,0.20871272683143616,-0.40652862191200256,-0.1957777589559555
1758804822647441400,10.04244140625,0.16828913986682892,-0.3929440975189209,-0.18694192171096802
1758804822657397200,10.052397216796875,0.1272927075624466,-0.3743445873260498,-0.16592079401016235
1758804822667353300,10.062353271484374,0.0711362287402153,-0.36180534958839417,-0.14310762286186218
1758804822677309200,10.07230908203125,0.006809703074395657,-0.34565114974975586,-0.1185157299041748
1758804822687265300,10.082265380859376,-0.062493469566106796,-0.321735680103302,-0.09164922684431076
1758804822697221400,10.092221435546875,-0.12141644209623337,-0.2978663146495819,-0.05585740506649017
1758804822707177500,10.102177490234375,-0.16741828620433807,-0.28111663460731506,0.0006072007236070931
1758804822717133300,10.11213330078125,-0.19651785492897034,-0.26050108671188354,0.06866241991519928
1758804822727089400,10.12208935546875,-0.2087305784225464,-0.24526701867580414,0.13405659794807434
1758804822737045200,10.132045166015626,-0.20187853276729584,-0.25223997235298157,0.18309925496578217
1758804822747001300,10.14200146484375,-0.181001216173172,-0.2714674472808838,0.2124938815832138
1758804822756957200,10.151957275390625,-0.1443134993314743,-0.2907026708126068,0.24025894701480865
1758804822766913500,10.16191357421875,-0.11133025586605072,-0.30661478638648987,0.2714488208293915
1758804822776870000,10.171869873046875,-0.08706539124250412,-0.3145345151424408,0.29649585485458374
1758804822786825700,10.18182568359375,-0.07355251163244247,-0.31989145278930664,0.3101924955844879
1758804822796781800,10.19178173828125,-0.07330510765314102,-0.3282090425491333,0.3133467435836792
1758804822806737700,10.201737548828126,-0.07609742879867554,-0.33030176162719727,0.3168104290962219
1758804822816693800,10.21169384765625,-0.08484884351491928,-0.3200850486755371,0.31675317883491516
1758804822826649600,10.221649658203125,-0.09322874993085861,-0.30134227871894836,0.32109972834587097
1758804822836605700,10.231605712890625,-0.1002243384718895,-0.27908915281295776,0.3207060992717743
1758804822846561800,10.241561767578125,-0.09149342775344849,-0.2717723846435547,0.31091660261154175
1758804822856518000,10.251517822265624,-0.0747581273317337,-0.2940545380115509,0.2984367609024048
1758804822866473700,10.2614736328125,-0.05410264804959297,-0.32949134707450867,0.27945348620414734
1758804822876429800,10.271429931640625,-0.04083877429366112,-0.36565467715263367,0.25557130575180054
1758804822886385700,10.2813857421875,-0.036667466163635254,-0.39750394225120544,0.2285815179347992
1758804822896341800,10.291341796875,-0.04722902923822403,-0.4368867874145508,0.20000259578227997
1758804822906297600,10.301297607421875,-0.06288176029920578,-0.4577755630016327,0.161163330078125
1758804822916253700,10.311253662109374,-0.0868544727563858,-0.47488290071487427,0.12698164582252502
1758804822926209800,10.321209716796876,-0.11640437692403793,-0.4911995530128479,0.09760671854019165
1758804822936166000,10.331165771484375,-0.14630474150180817,-0.49713414907455444,0.06596037745475769
1758804822946121700,10.341121826171875,-0.17094245553016663,-0.5039068460464478,0.046054042875766754
1758804822956076500,10.35107666015625,-0.19978848099708557,-0.4902338981628418,0.03725602477788925
1758804822966033700,10.36103369140625,-0.22587653994560242,-0.4452429711818695,0.03470391780138016
1758804822975988700,10.37098876953125,-0.23993003368377686,-0.3928399682044983,0.0369470976293087
1758804822985944800,10.38094482421875,-0.23844292759895325,-0.3378014862537384,0.04649879410862923
1758804822995900700,10.390900634765625,-0.2380242794752121,-0.2691478431224823,0.05378014221787453
1758804823005856800,10.400856689453125,-0.2293327897787094,-0.20759740471839905,0.04980484023690224
1758804823015812600,10.4108125,-0.2070208191871643,-0.1579291820526123,0.036984916776418686
1758804823025768700,10.420768798828124,-0.17917534708976746,-0.13470348715782166,0.0249069482088089
1758804823035724500,10.430724609375,-0.13685078918933868,-0.13528192043304443,0.0027206854429095984
1758804823045680600,10.4406806640625,-0.09041671454906464,-0.13971449434757233,-0.0331619493663311
1758804823055636700,10.45063671875,-0.045998651534318924,-0.1504310518503189,-0.07825671881437302
1758804823065592800,10.4605927734375,-0.012440957129001617,-0.1583329141139984,-0.12958675622940063
1758804823075548700,10.470548583984375,0.0013078784104436636,-0.15654779970645905,-0.18917019665241241
1758804823085504800,10.4805048828125,0.0019174759509041905,-0.1364302784204483,-0.2475099265575409
1758804823095460600,10.490460693359376,-0.007948736660182476,-0.0804346576333046,-0.28418511152267456
1758804823105416700,10.500416748046876,-0.027286747470498085,-0.0005044027348048985,-0.2767604887485504
1758804823115372500,10.51037255859375,-0.04272615909576416,0.08037792891263962,-0.22853250801563263
1758804823125329000,10.520328857421875,-0.03945606201887131,0.11943931132555008,-0.14968137443065643
1758804823135284700,10.53028466796875,-0.025664882734417915,0.14461363852024078,-0.07822902500629425
1758804823145240800,10.54024072265625,-0.007481618318706751,0.17935937643051147,-0.03331481292843819
1758804823155196700,10.55019677734375,0.028062527999281883,0.2098802626132965,-0.007441937457770109
1758804823165152800,10.56015283203125,0.09105906635522842,0.18077723681926727,0.009103217162191868
1758804823175108600,10.570108642578125,0.1567872166633606,0.11879349499940872,0.02002537250518799
1758804823185064700,10.580064697265625,0.20375898480415344,0.07410938292741776,0.03524986654520035
1758804823195020800,10.590020751953125,0.21103820204734802,0.05271141603589058,0.04033277556300163
1758804823204977000,10.599976806640624,0.1950128972530365,0.04309394210577011,0.027361849322915077
1758804823214932700,10.6099326171875,0.16560228168964386,0.04391179606318474,-0.006118878722190857
1758804823224888800,10.619888916015626,0.13998107612133026,0.054722633212804794,-0.06307670474052429
1758804823234844700,10.6298447265625,0.11954690515995026,0.08038751780986786,-0.13812750577926636
1758804823244800800,10.63980078125,0.1000235378742218,0.11097338795661926,-0.2069648951292038
1758804823254756600,10.649756591796875,0.06735347211360931,0.14739371836185455,-0.2648037075996399
1758804823264712700,10.659712646484374,0.026186596602201462,0.20447804033756256,-0.30158835649490356
1758804823274668800,10.669668701171876,-0.0266563780605793,0.26301538944244385,-0.307162344455719
1758804823284625000,10.679625,-0.07195089012384415,0.33451327681541443,-0.2911072075366974
1758804823294580700,10.689580810546875,-0.09761683642864227,0.41711440682411194,-0.25872236490249634
1758804823304536800,10.699536865234375,-0.09407350420951843,0.5054559707641602,-0.2178013026714325
1758804823314492700,10.70949267578125,-0.06710606813430786,0.5904558300971985,-0.1695176661014557
1758804823324448800,10.71944873046875,-0.028053738176822662,0.6564492583274841,-0.12772972881793976
1758804823334404600,10.729404541015626,0.014336595311760902,0.6960490942001343,-0.08849870413541794
1758804823344360700,10.739360595703126,0.05092070624232292,0.7144632935523987,-0.047689225524663925
1758804823354316800,10.74931689453125,0.07541246712207794,0.7317679524421692,-0.010102701373398304
1758804823364273000,10.75927294921875,0.09214803576469421,0.746658205986023,0.02274446003139019
1758804823374228700,10.769228759765625,0.10617490857839584,0.7469930052757263,0.047687891870737076
1758804823384184800,10.779184814453124,0.12187717109918594,0.7245244383811951,0.06687863171100616
1758804823394140700,10.789140625,0.13775652647018433,0.6956453919410706,0.08365467935800552
1758804823404718600,10.799718505859374,0.1581108123064041,0.6540113687515259,0.09737608581781387
1758804823414674700,10.8096748046875,0.17675000429153442,0.605816662311554,0.10417193919420242
1758804823424630500,10.819630615234376,0.19164159893989563,0.5554797649383545,0.10653549432754517
1758804823434587000,10.8295869140625,0.20422478020191193,0.5015310049057007,0.10190559178590775
1758804823444542700,10.839542724609375,0.2127189189195633,0.43730437755584717,0.0927986428141594
1758804823454498800,10.849498779296875,0.2104073017835617,0.36684831976890564,0.07953344285488129
1758804823464454700,10.85945458984375,0.20046785473823547,0.30616793036460876,0.05541878566145897
1758804823474410800,10.86941064453125,0.19327491521835327,0.2565598785877228,0.026568759232759476
1758804823484366600,10.87936669921875,0.190679132938385,0.22367224097251892,-0.0019837887957692146
1758804823494322700,10.88932275390625,0.19512581825256348,0.20189344882965088,-0.023753000423312187
1758804823504278800,10.89927880859375,0.20292328298091888,0.19204267859458923,-0.042148519307374954
1758804823514235000,10.90923486328125,0.20085054636001587,0.19484326243400574,-0.06059437245130539
1758804823524190700,10.919190673828124,0.2003147155046463,0.19151003658771515,-0.07467104494571686
1758804823534146800,10.929146728515626,0.18886739015579224,0.19058538973331451,-0.0860174372792244
1758804823544102700,10.9391025390625,0.16812562942504883,0.19948408007621765,-0.09509003162384033
1758804823554058800,10.949058837890625,0.14527356624603271,0.19864358007907867,-0.10190266370773315
1758804823564014600,10.9590146484375,0.122873455286026,0.18391337990760803,-0.10901117324829102
1758804823573970700,10.968970703125,0.1022787019610405,0.1688113957643509,-0.12048806250095367
1758804823583926800,10.9789267578125,0.08800149708986282,0.16235242784023285,-0.1405683010816574
1758804823593883000,10.9888828125,0.07521246373653412,0.14615267515182495,-0.16958875954151154
1758804823603838700,10.998838623046876,0.0678379014134407,0.12331447750329971,-0.21313118934631348
1758804823613794800,11.008794921875,0.06511801481246948,0.08989393711090088,-0.25920093059539795
1758804823623750700,11.018750732421875,0.05639589950442314,0.05769871547818184,-0.28815507888793945
1758804823633706800,11.028706787109375,0.03044339269399643,0.04020387679338455,-0.3191191256046295
1758804823643662600,11.03866259765625,0.0014506238512694836,0.03179255127906799,-0.35380733013153076
1758804823653618700,11.04861865234375,-0.02912033535540104,0.000993891735561192,-0.37760454416275024
1758804823663574800,11.05857470703125,-0.055747952312231064,-0.024770326912403107,-0.3869287967681885
1758804823673531000,11.06853076171875,-0.09310304373502731,-0.03190706670284271,-0.3869759440422058
1758804823683486700,11.07848681640625,-0.1278996467590332,-0.04777098447084427,-0.38674238324165344
1758804823693442800,11.08844287109375,-0.15228115022182465,-0.08822653442621231,-0.38803988695144653
1758804823703398700,11.098398681640624,-0.1631268709897995,-0.12968476116657257,-0.3761765658855438
1758804823713354800,11.108354736328126,-0.17539525032043457,-0.14892396330833435,-0.3393181562423706
1758804823723310600,11.118310546875,-0.18617306649684906,-0.16271008551120758,-0.28786641359329224
1758804823733267000,11.128266845703125,-0.19324935972690582,-0.2142648845911026,-0.24776479601860046
1758804823743222800,11.138222900390625,-0.1767321676015854,-0.26486921310424805,-0.20125001668930054
1758804823753179000,11.148178955078125,-0.15127527713775635,-0.2784217596054077,-0.13899463415145874
1758804823763134700,11.158134765625,-0.1001705452799797,-0.27826517820358276,-0.07591420412063599
1758804823773091300,11.16809130859375,-0.031366977840662,-0.29870253801345825,-0.029994916170835495
1758804823783047200,11.178047119140626,0.043168507516384125,-0.3417759835720062,-0.001990979304537177
1758804823793003300,11.188003173828125,0.10537648946046829,-0.36264529824256897,0.013361611403524876
1758804823802959000,11.197958984375,0.14486370980739594,-0.37163135409355164,0.01212697010487318
1758804823812915200,11.207915283203125,0.1580684632062912,-0.3845279812812805,-0.006603308022022247
1758804823822871300,11.217871337890625,0.1492118537425995,-0.3889821171760559,-0.04066194221377373
1758804823832827400,11.227827392578124,0.1282445192337036,-0.3801742196083069,-0.07151439785957336
1758804823842783200,11.237783203125,0.09089848399162292,-0.37010428309440613,-0.09819500893354416
1758804823852739300,11.2477392578125,0.040954623371362686,-0.36257660388946533,-0.11754979938268661
1758804823862695200,11.257695068359375,-0.012396748177707195,-0.3491896986961365,-0.1194251999258995
1758804823872651300,11.2676513671875,-0.06119464710354805,-0.3339545428752899,-0.10251758992671967
1758804823882607000,11.277607177734374,-0.10527236014604568,-0.3263450860977173,-0.06193554028868675
1758804823892563500,11.2875634765625,-0.13871553540229797,-0.30745580792427063,-0.004280232358723879
1758804823902519300,11.297519287109376,-0.1577771157026291,-0.2731204926967621,0.05781456455588341
1758804823912475400,11.307475341796875,-0.1723691076040268,-0.22540675103664398,0.11886806041002274
1758804823922431200,11.31743115234375,-0.17494943737983704,-0.16824492812156677,0.17789995670318604
1758804823932387300,11.32738720703125,-0.156867116689682,-0.11625950038433075,0.23475311696529388
1758804823942343200,11.33734326171875,-0.12879154086112976,-0.09424234926700592,0.29035326838493347
1758804823952299300,11.34729931640625,-0.09664371609687805,-0.08945903927087784,0.33909711241722107
1758804823962255400,11.35725537109375,-0.06765281409025192,-0.09772203117609024,0.37534618377685547
1758804823972211500,11.36721142578125,-0.05296627804636955,-0.10294289141893387,0.4035203158855438
1758804823982167300,11.377167236328125,-0.05100832134485245,-0.10653389990329742,0.4211861193180084
1758804823992123400,11.387123291015625,-0.049439720809459686,-0.11610769480466843,0.43010663986206055
1758804824002079200,11.397079345703125,-0.053884804248809814,-0.13521455228328705,0.42668819427490234
1758804824012035300,11.407035400390624,-0.04626603052020073,-0.13919997215270996,0.4226180911064148
1758804824021990400,11.416990478515626,-0.04643834009766579,-0.14350256323814392,0.4164925515651703
1758804824031946200,11.4269462890625,-0.040877923369407654,-0.1334155797958374,0.40240657329559326
1758804824041902300,11.43690234375,-0.03399844840168953,-0.11040054261684418,0.38776105642318726
1758804824051858200,11.446858154296875,-0.027346935123205185,-0.10107575356960297,0.3704901933670044
1758804824061814300,11.456814208984374,-0.022422218695282936,-0.10734296590089798,0.34830498695373535
1758804824071770000,11.46677001953125,-0.009039035066962242,-0.09760724753141403,0.32480764389038086
1758804824081726200,11.476726318359376,0.0037207023706287146,-0.1110045462846756,0.29957127571105957
1758804824091682300,11.486682373046875,0.015720106661319733,-0.14677399396896362,0.2717055380344391
1758804824101638400,11.496638427734375,0.01642264984548092,-0.17878678441047668,0.23710282146930695
1758804824111594200,11.50659423828125,0.004456533584743738,-0.21318525075912476,0.1997125744819641
1758804824121550300,11.51655029296875,-0.014249775558710098,-0.2647522985935211,0.1597619652748108
1758804824131506200,11.526506103515626,-0.03663737326860428,-0.333459734916687,0.11735458672046661
1758804824141462300,11.536462158203125,-0.05278438329696655,-0.39575985074043274,0.07550247758626938
1758804824151418000,11.546418212890625,-0.06790421903133392,-0.4631415605545044,0.031446605920791626
1758804824161374200,11.556374267578125,-0.0717729926109314,-0.5078160762786865,-0.006141782272607088
1758804824171330300,11.566330322265625,-0.08456308394670486,-0.5148462653160095,-0.04045021906495094
1758804824181286400,11.576286376953124,-0.09496912360191345,-0.49211329221725464,-0.06400001794099808
1758804824191242200,11.5862421875,-0.10854005813598633,-0.4611865282058716,-0.07665083557367325
1758804824201198300,11.5961982421875,-0.11441925168037415,-0.4052385687828064,-0.07665695995092392
1758804824211154200,11.606154296875,-0.11419954150915146,-0.3317033648490906,-0.06731139868497849
1758804824221110300,11.6161103515625,-0.10825057327747345,-0.2506069242954254,-0.054055243730545044
1758804824231066000,11.626066162109375,-0.09472890198230743,-0.1730000078678131,-0.03936045616865158
1758804824241022500,11.6360224609375,-0.07379379868507385,-0.09579816460609436,-0.0263032428920269
1758804824250978300,11.645978271484376,-0.03931678086519241,-0.031563252210617065,-0.01582903042435646
1758804824260934400,11.655934326171876,-0.005203017964959145,0.012790895998477936,-0.010843859054148197
1758804824270890200,11.66589013671875,0.023797208443284035,0.028118720278143883,-0.014348845928907394
1758804824280846300,11.675846435546875,0.040341563522815704,0.020734306424856186,-0.033671941608190536
1758804824290802200,11.68580224609375,0.03959667682647705,0.013287309557199478,-0.06773004680871964
1758804824300758300,11.69575830078125,0.031377095729112625,0.006947122048586607,-0.1141023337841034
1758804824310714400,11.70571435546875,0.033310286700725555,0.015590943396091461,-0.16815651953220367
1758804824320670500,11.71567041015625,0.04957261309027672,0.032887108623981476,-0.21405796706676483
1758804824330626300,11.725626220703125,0.05916665121912956,0.04747990146279335,-0.21294395625591278
1758804824340582400,11.73558251953125,0.055319979786872864,0.10261186212301254,-0.15581569075584412
1758804824350538200,11.745538330078125,0.0463818795979023,0.14467889070510864,-0.0625549927353859
1758804824360494300,11.755494384765624,0.0472324937582016,0.1707427203655243,0.03478008508682251
1758804824370450200,11.7654501953125,0.06353449821472168,0.2072373479604721,0.10113354027271271
1758804824380406000,11.775406005859375,0.08555325120687485,0.19913360476493835,0.1302213817834854
1758804824390362400,11.7853623046875,0.11356464773416519,0.14607705175876617,0.1280980408191681
1758804824400318200,11.795318115234375,0.14798174798488617,0.07654537260532379,0.12099992483854294
1758804824410274300,11.8052744140625,0.16430558264255524,0.018690863624215126,0.12442261725664139
1758804824420230100,11.815230224609374,0.16333939135074615,-0.011314972303807735,0.13806386291980743
1758804824430186200,11.825186279296876,0.15743009746074677,-0.02046159841120243,0.14115819334983826
1758804824440142000,11.83514208984375,0.16254177689552307,-0.01703011617064476,0.12850737571716309
1758804824450098200,11.84509814453125,0.1982278674840927,-0.0006540723843500018,0.09112618118524551
1758804824460054300,11.85505419921875,0.2650681436061859,0.011769574135541916,0.028379444032907486
1758804824470010400,11.86501025390625,0.34813374280929565,0.029756298288702965,-0.04107899218797684
1758804824479966200,11.87496630859375,0.42078903317451477,0.07178764045238495,-0.09614783525466919
1758804824489922300,11.88492236328125,0.4407781958580017,0.14516091346740723,-0.121321901679039
1758804824499877000,11.894877197265625,0.3810237944126129,0.2654851973056793,-0.10921596735715866
1758804824509833200,11.904833251953125,0.3099570572376251,0.35314396023750305,-0.08254121243953705
1758804824519789300,11.914789306640625,0.18457970023155212,0.3671785295009613,-0.0643845796585083
1758804824531612200,11.926612060546875,-0.008567389100790024,0.43562230467796326,-0.05862469598650932
1758804824541568300,11.936568359375,-0.1417640596628189,0.5590624809265137,-0.05528562515974045
1758804824551524000,11.946524169921876,-0.21937070786952972,0.6204012036323547,-0.04544364660978317
1758804824561480200,11.956480224609376,-0.2466457337141037,0.6607773900032043,-0.02635703794658184
1758804824571436300,11.966436279296875,-0.23265881836414337,0.6893198490142822,0.0011291803093627095
1758804824581392400,11.976392333984375,-0.1815173327922821,0.7002182602882385,0.032827720046043396
1758804824591348200,11.98634814453125,-0.1039370521903038,0.6856347918510437,0.06554625183343887
1758804824601304300,11.99630419921875,-0.015220231376588345,0.6512882709503174,0.089015893638134
1758804824611260200,12.00626025390625,0.05727554112672806,0.5964231491088867,0.0999913141131401
1758804824621216300,12.01621630859375,0.10955312848091125,0.5418331623077393,0.10653682798147202
1758804824631172000,12.026172119140625,0.13237428665161133,0.4972792863845825,0.12172643095254898
1758804824641128200,12.036128173828125,0.13504649698734283,0.46390455961227417,0.14027747511863708
1758804824651084300,12.046084228515625,0.13036119937896729,0.4290435016155243,0.15076634287834167
1758804824661040400,12.056040283203124,0.12268490344285965,0.3871373236179352,0.15241511166095734
1758804824670996200,12.065996337890626,0.11779134720563889,0.3446553945541382,0.14415477216243744
1758804824680952300,12.075952392578126,0.11919829249382019,0.31599605083465576,0.1289028525352478
1758804824690908200,12.085908203125,0.12730735540390015,0.2973152995109558,0.10989826917648315
1758804824700864300,12.0958642578125,0.13071247935295105,0.284561425447464,0.09002789109945297
1758804824710820000,12.105820068359375,0.12209368497133255,0.2807682752609253,0.06424076855182648
1758804824720776200,12.115776123046874,0.09695397317409515,0.29527878761291504,0.02997014857828617
1758804824730732300,12.125732177734376,0.0701814815402031,0.3324812650680542,0.0031547807157039642
1758804824740688400,12.1356884765625,0.04198979586362839,0.370444118976593,-0.015458318404853344
1758804824750644200,12.145644287109375,0.01764051243662834,0.4146254062652588,-0.02293381094932556
1758804824760600300,12.155600341796875,-0.002918558195233345,0.4614139497280121,-0.02298654243350029
1758804824770556200,12.16555615234375,-0.014849519357085228,0.5091040134429932,-0.017781659960746765
1758804824780512300,12.17551220703125,-0.02256336621940136,0.5517110824584961,-0.0041004689410328865
1758804824790468000,12.185468017578126,-0.018551047891378403,0.5948122143745422,0.011718708090484142
1758804824800424400,12.195424560546876,-0.006944192573428154,0.6326661109924316,0.02034734934568405
