time,seconds_elapsed,z,y,x
1759645027792367000,0.0563671875,0.10234978288412093,-0.12084873164892196,0.10270575671494006
1759645027802323700,0.06632373046875,0.07148702710866928,-0.10516776291429995,0.07545885334908962
1759645027812281900,0.07628173828125,-0.0006686930418014526,-0.057709261646866794,0.006434416961669922
1759645027822240000,0.086239990234375,-0.003514145600795746,-0.02682897021472454,-0.0023547464326024053
1759645027832196900,0.09619677734375,0.002732639834284782,-0.03407587260305881,-0.01819762773066759
1759645027842155000,0.106155029296875,0.002403554010391235,-0.0813286221653223,0.012645838822424411
1759645027852113000,0.11611279296875,0.022696984976530075,-0.09920622416138648,0.04673194055855274
1759645027862070800,0.12607080078125,0.032633272579312325,-0.11413023704886435,0.09324497766941785
1759645027872028000,0.13602783203125,0.06477846938073635,-0.09337737187743186,0.11108020182847976
1759645027881985800,0.14598583984375,0.04374678726792335,-0.07618482953608036,0.12577858926653862
1759645027891944000,0.15594384765625,0.012456161469221114,-0.06096972474753856,0.08336889582127333
1759645027901900800,0.16590087890625,0.03901683613657951,-0.04852116206288337,0.044865269903838635
1759645027911858700,0.175858642578125,0.06608429128229618,-0.05993862813413143,0.016195347997546194
1759645027921816800,0.18581689453125,0.04235796325802803,-0.05491115536093712,0.0045788522228598595
1759645027931774000,0.19577392578125,0.0006026420682668685,-0.0457055201202631,0.023771336209774015
1759645027941731800,0.20573193359375,-0.06660217767655849,0.0023211364239454266,0.042164778773486615
1759645027951690000,0.21568994140625,-0.03355857073068619,-0.012359130835533142,0.026951427550613877
1759645027961646800,0.225646728515625,0.03049450698494911,-0.06441606580913066,0.05288724831789732
1759645027971604700,0.235604736328125,0.04816811084151268,-0.049026188975572586,0.0826923117339611
1759645027981563000,0.24556298828125,-0.0025999533653259274,-0.10458441006839275,0.16535685867816208
1759645027991520800,0.255520751953125,-0.02669160757064819,-0.027812136033177375,0.1588815251842141
1759645028001478000,0.265477783203125,-0.08407529052495956,-0.0782610512882471,0.08829320048093796
1759645028011436000,0.27543603515625,-0.09683657242059707,-0.09223930775821208,0.01734510255455971
1759645028021394700,0.285394775390625,0.012809212690591812,-0.05616846194565296,-0.022068770075589418
1759645028031351800,0.295351806640625,0.08164134137630462,-0.03153261786103249,0.011851619704812764
1759645028041310000,0.30531005859375,0.08675532338917255,0.0030038579910993575,0.0420627797037363
1759645028051267800,0.315267822265625,0.053389644882082934,-0.0036433249384164807,0.08615779588744044
1759645028061224700,0.325224609375,0.006095978787541389,-0.019331892457604406,0.08378361410200595
1759645028071182800,0.335182861328125,-0.07270633977055549,-0.05253332031369209,0.09105287445262074
1759645028081140700,0.345140625,-0.130279992339015,-0.043187399819493294,0.10224792994484305
1759645028091097900,0.355097900390625,-0.12881108883023262,-0.03331248701512814,0.11697101343274116
1759645028101055700,0.3650556640625,-0.09411854563355446,-0.014435937109589576,0.1874493018902838
1759645028111013600,0.375013671875,-0.07558744816482067,-0.005619008925557136,0.23990225044414398
1759645028120970800,0.384970703125,-0.09552022912502288,0.013232406538724898,0.22887392982095478
1759645028130928600,0.3949287109375,-0.06204699859023094,-0.015718378135561942,0.06692103436738252
1759645028140886800,0.40488671875,0.02798749260008335,-0.05419219343662262,0.004450695798546076
1759645028150845000,0.414844970703125,0.052851884743571276,-0.06741817023456097,-0.02484583357349038
1759645028160801500,0.424801513671875,0.044020343512296674,-0.047235798427462575,-0.022851298755407333
1759645028170759700,0.434759765625,-0.003479658809304237,-0.024792495951056478,0.04300795159935951
1759645028180717800,0.4447177734375,-0.01158931550681591,-0.031178397595882413,0.10776903145387769
1759645028190674700,0.4546748046875,-0.03288052533864975,-0.07273381229937076,0.15176920896098017
1759645028200632800,0.4646328125,-0.061116439741849896,-0.06209609842896461,0.1958317841798067
1759645028210590700,0.4745908203125,-0.09978314726650714,-0.03174713739454746,0.18045768943727014
1759645028220547600,0.484547607421875,-0.09292027575969695,-0.041949966979026795,0.17081132469177246
1759645028230505700,0.494505615234375,-0.058408934348821634,-0.015981412985920904,0.16923896080851553
1759645028240463600,0.504463623046875,0.00793722274005413,0.04533785585165023,0.22526479941308497
1759645028250420700,0.514420654296875,0.04713701422810554,0.06331073491573333,0.17519056268930433
1759645028260379000,0.52437890625,0.003142389678955078,0.05396247633397579,0.10360621268600224
1759645028270336800,0.534336669921875,-0.08048281899094581,0.0590858106970787,0.031551030300557614
1759645028280294700,0.544294677734375,-0.13300912504196166,0.026798575076460836,-0.07267053780481218
1759645028290251800,0.554251708984375,-0.06706219640374184,0.003971241718530655,-0.16621712876930833
1759645028300209700,0.564209716796875,-0.00036591070294380185,-0.011285364124178885,-0.13338774909600615
1759645028310167800,0.574167724609375,0.03470189554691314,0.010579261681437491,-0.016518734733015298
1759645028320125000,0.584125,0.059874330726265905,-0.0024058920979499816,0.07914236416742206
1759645028330082600,0.59408251953125,0.0420411523938179,-0.006973930665850639,0.16216741498708723
1759645028340040700,0.604040771484375,0.004095744881033897,-0.0052460839599370954,0.20337606207951903
1759645028349997800,0.613997802734375,-0.01229950960278511,0.023627543824911116,0.20291239009052514
1759645028359955700,0.623955810546875,-0.04821604163646698,0.029639351460337637,0.15871522870659827
1759645028369913900,0.633913818359375,-0.09216682704389095,0.0486070867806673,0.09419424121826886
1759645028379870700,0.64387060546875,-0.06307926424741744,0.048050621941685676,0.018415800525993106
1759645028389828600,0.65382861328125,0.025844050830602646,0.04359481157660484,-0.03249751737043261
1759645028399786800,0.663786865234375,0.07976210350096226,0.04870762454569339,0.005718669907748699
1759645028409744600,0.67374462890625,0.01634849273264408,0.04778758709132671,0.03742591368332505
1759645028419701800,0.68370166015625,-0.05021978267431259,0.032168577677011485,0.013290420336276292
1759645028429660000,0.693659912109375,-0.03199439015388489,-0.002759527841210365,0.03820756558030843
1759645028439617500,0.703617431640625,-0.000813069948554039,0.0036088381469249723,0.0653938248001039
1759645028449574700,0.71357470703125,-0.010882044020295143,-0.0008650923967361449,0.07632248444110154
1759645028459532800,0.72353271484375,-0.013249942195415495,-0.010536007061600685,0.10266513244360685
1759645028469490700,0.73349072265625,-0.054931029105186456,-0.039823476344347,0.1270024319730699
1759645028479447800,0.74344775390625,-0.09349486077725887,-0.046909050691127774,0.14281842526420951
1759645028489405700,0.75340576171875,-0.11781272495388984,-0.0594300940901041,0.13504589156657457
1759645028499363600,0.763363525390625,-0.1753793632596731,-0.06491758559048176,0.1310582832351327
1759645028509320700,0.77332080078125,-0.15824059693217277,-0.05414017098844051,0.11440145520567893
1759645028519278800,0.78327880859375,-0.08151040847301483,-0.06616846243441105,0.10561316859424114
1759645028529236700,0.79323681640625,-0.037621582385897634,-0.050289340779185294,0.10199950814172624
1759645028539193600,0.803193603515625,0.005147299760580063,-0.022148703444004058,0.06470175088271499
1759645028549151700,0.81315185546875,0.04732990645170212,-0.011525602620840071,0.05127689051181078
1759645028559109600,0.823109619140625,-0.004800678279995918,-0.012005495092272759,0.021464812833070755
1759645028569067800,0.83306787109375,-0.05920680672824383,-0.023245851030945775,-0.006840659675002097
1759645028579025000,0.84302490234375,-0.05887713638246059,-0.05345043515861034,0.022698154020309447
1759645028588982800,0.852982666015625,-0.09934884750247001,-0.019789573097229004,0.06952785586491227
1759645028598941000,0.86294091796875,-0.11674538798332214,-0.016407529443502426,0.021418927864730358
1759645028608897800,0.872897705078125,-0.060703767287731164,-0.03874678702354431,0.053612055461108685
1759645028618855700,0.882855712890625,-0.02616436882615089,0.007913841864466666,0.09245148920416832
1759645028628813800,0.892813720703125,-0.01205985562801361,0.0038128362864255903,0.06756605427265167
1759645028638771000,0.90277099609375,-0.006947627180814743,-0.04830488896369934,0.057161710766702886
1759645028648728800,0.912728759765625,0.010445406168699264,-0.047345104020833965,0.0689839582465589
1759645028658686700,0.922686767578125,0.020198153898119926,-0.059957917356491086,0.08465221363008021
1759645028668643800,0.932643798828125,0.038892917495965955,-0.054119128200411794,0.09656506200283765
1759645028678601700,0.942601806640625,-0.003449263671040535,-0.030191724646091458,0.11830956856012344
1759645028688559900,0.952559814453125,-0.013730419188737868,-0.04708440725803375,0.09104074562340975
1759645028698516700,0.962516845703125,0.07694763060212134,-0.06987199312746524,-0.008082768690586089
1759645028708474600,0.972474609375,0.11627134073078632,-0.06807225022912025,-0.09330138403177261
1759645028718432800,0.982432861328125,0.09450082294940948,-0.059034957292675966,-0.06434475413858891
1759645028728390700,0.992390625,0.002923193970322609,-0.018014380118250847,0.023478198482096195
1759645028738347800,1.00234765625,-0.09720832834243774,-0.044617140361666675,0.10136018732488154
1759645028748306000,1.012305908203125,-0.15345862335264682,-0.07413198865950107,0.11293810465484858
1759645028758263800,1.022263916015625,-0.15372458081245421,-0.10183365005552768,0.07151186928898096
1759645028768220700,1.032220703125,-0.08056932823061942,-0.06901449951529502,0.06808218710124492
1759645028778178800,1.0421787109375,-0.06416296783089637,-0.007785831570625305,0.11178352779224514
1759645028788136700,1.05213671875,-0.07627718399465083,0.04517711233198642,0.09676935240328312
1759645028798093800,1.06209375,-0.13052490701079367,0.028718729484081267,0.05312807133644819
1759645028808051700,1.0720517578125,-0.13960720813274383,0.025184710139036177,0.01354950966387987
1759645028818009900,1.082009765625,-0.11169687242209911,0.024238369199633597,-0.036811435046792025
1759645028827966700,1.091966796875,-0.04079728981256485,-0.00005436053574085235,-0.0793438780888915
1759645028837924600,1.101924560546875,-0.03925122941434383,-0.01388940914273262,-0.07921411422938109
1759645028847882800,1.1118828125,-0.09447861111760139,0.012178513571619986,-0.01880553049594164
1759645028857839900,1.12183984375,-0.14235738362371922,0.03898877908587456,0.08026362328231335
1759645028867797800,1.1317978515625,-0.16384616185426712,0.032764790004491805,0.1334562842875719
1759645028877755600,1.141755615234375,-0.20159867714345453,0.028556816920638082,0.15150222858786583
1759645028887713800,1.1517138671875,-0.20545885970294475,0.004823474633693695,0.052556701189279555
1759645028897670700,1.161670654296875,-0.07842822454869747,-0.026820786908268928,-0.027964696246385572
1759645028907628800,1.17162890625,0.004960837277770042,-0.007039397117495536,-0.0045513796940445895
1759645028917586700,1.181586669921875,-0.04428980810344219,0.02577157011628151,0.09295008637607097
1759645028927543600,1.19154345703125,-0.1409410870850086,0.02968845129907131,0.17023761645704508
1759645028937501700,1.201501708984375,-0.19699381369650362,0.03540215277075767,0.16589578786045311
1759645028947459600,1.21145947265625,-0.148514152687788,0.018038345515727996,0.09496756367832422
1759645028957416700,1.221416748046875,-0.03320376594364643,0.05267068295776844,0.025437808117270467
1759645028967374800,1.231374755859375,0.018285598275065422,0.06531681404113769,-0.04376929136067629
1759645028977332700,1.241332763671875,0.0029196868389844894,0.07988251501023769,-0.08417582828998565
1759645028987289600,1.25128955078125,-0.06688391722738743,0.06431202091276646,-0.087981650313735
1759645028997247700,1.261247802734375,-0.12432254523932933,0.07560615286529064,-0.0007703998506069183
1759645029007205600,1.27120556640625,-0.1213479133427143,0.05395195493996143,0.06895254019498824
1759645029017163000,1.2811630859375,-0.012156886261701583,-0.016765256839990614,0.09565145428925752
1759645029027120000,1.2911201171875,0.11527239282131195,0.0021942951738834378,0.11958441080152987
1759645029037078000,1.301078125,0.0724094026505947,0.03696107265055179,0.056041912956535815
1759645029047036200,1.3110361328125,-0.007225859600305556,0.03310147461295128,0.012571604542434214
1759645029056993000,1.320992919921875,-0.08685235402286053,0.04019698583185673,0.017641162891685963
1759645029066951000,1.330950927734375,-0.14263795413076877,0.05017360544502735,-0.00010579846203327178
1759645029076909000,1.340908935546875,-0.08180442298352718,0.01756546730697155,-0.020041794292628763
1759645029086866200,1.3508662109375,-0.03887713540494442,0.029477438896894453,0.02672171044796705
1759645029096824000,1.360823974609375,-0.04580021266639232,-0.0029606033712625502,0.07745470334142446
1759645029106782200,1.3707822265625,-0.04670622159540653,0.03488777350783348,0.11079875453859567
1759645029116739000,1.380739013671875,-0.05034603940248489,0.05584112968742847,0.04797931027114391
1759645029126697000,1.390697021484375,-0.0483762006342411,0.028760230538249013,0.036846506360173226
1759645029136655000,1.400655029296875,-0.06399345648288726,0.02332885313928127,0.033821021059155465
1759645029146612200,1.4106123046875,-0.06635024874210357,0.017865327036380767,0.020297230358421802
1759645029156570000,1.420570068359375,-0.08484335228800773,0.03316168036758899,0.014717092138528823
1759645029166528300,1.4305283203125,-0.08838321685194969,0.04214461276829243,0.02855506335496902
1759645029176486000,1.44048583984375,-0.08718670054376125,0.04033785560727119,0.021046587421000004
1759645029186443000,1.450443115234375,-0.07596329573988914,0.04527063583433628,0.030899872915446755
1759645029196401200,1.460401123046875,-0.053964814421534536,0.03191080352365971,0.03803220901340246
1759645029206359000,1.470359130859375,-0.059463411837816234,0.02411971125602722,0.020324995148181913
1759645029216316200,1.480316162109375,-0.043052375262975694,0.005142039063572883,0.005026888251304626
1759645029226274000,1.490274169921875,-0.009597849428653717,-0.018732757520675658,0.001004208606481552
1759645029236232000,1.50023193359375,-0.005530161598324776,-0.038544542449712754,0.035488662010431285
1759645029246189000,1.51018896484375,-0.023853753796219825,-0.0398497798293829,0.024508126051723957
1759645029256147200,1.520147216796875,-0.009291559958457946,-0.06504442684054375,0.030260698229074477
1759645029266105000,1.53010498046875,0.004544073170423508,-0.04436228881776333,0.04315174398422241
1759645029276062000,1.54006201171875,-0.003495440900325775,-0.046861119896173475,0.06247369956970215
1759645029286020000,1.55002001953125,-0.03309270678460598,-0.03734393448829651,0.05027092833966017
1759645029295978000,1.55997802734375,-0.019126725274324415,-0.05500409434139728,0.04824000703394413
1759645029305935000,1.56993505859375,-0.016128712502121924,-0.057712768778204915,0.0247588859423995
1759645029315893200,1.579893310546875,-0.019070026651024818,-0.06909750162363051,0.005478431411087513
1759645029325851100,1.58985107421875,0.0032639702320098876,-0.06976210301220416,0.004201251082122326
1759645029335809300,1.599809326171875,0.021553660160303113,-0.05632686737775802,0.05621931535005569
1759645029345766100,1.60976611328125,0.052397126713395116,-0.015694412738084793,0.08631839327663182
1759645029355724000,1.61972412109375,0.0160556472659111,-0.0244517196893692,0.04632452880144119
1759645029365682200,1.62968212890625,0.01533376273214817,-0.0701309363245964,0.0051154433175921435
1759645029375639300,1.639639404296875,0.04185293634533882,-0.06339432154595852,0.009512509232759475
1759645029385597200,1.64959716796875,0.052259764069318766,-0.00715513245165348,0.031054186694324016
1759645029395555000,1.65955517578125,0.004113280537724495,0.00575520252585411,0.045853696419298644
1759645029405512200,1.66951220703125,-0.07220423546731472,-0.0333487273722887,0.04754939442127943
1759645029415470000,1.679469970703125,-0.10598024834096431,-0.04219897330403328,0.10456219823658466
1759645029425428200,1.68942822265625,-0.09336568143963814,-0.040814825469255446,0.18835984086394308
1759645029435385300,1.69938525390625,-0.04655366138219833,-0.05180617508292198,0.1707137095361948
1759645029445342000,1.709342041015625,-0.022051672810316083,-0.06169979258775711,0.13955138629227876
1759645029455300000,1.719300048828125,-0.031330373287200924,-0.03928922333717346,0.048989071835577484
1759645029465258200,1.72925830078125,0.022688801670074463,-0.07848141604065895,-0.026263153025507927
1759645029475215000,1.739215087890625,0.09946166022717952,-0.09139818075895309,-0.037895138630270955
1759645029485173200,1.74917333984375,0.13139350653886794,-0.08564765440821648,0.010379647456109524
1759645029495131100,1.759131103515625,0.08063771729171276,-0.06520984653532505,0.0461713840663433
1759645029505088000,1.769087890625,-0.023547464326024056,-0.07928396459519862,0.08698913214504718
1759645029515046100,1.779046142578125,-0.04044423859119415,-0.0699392131447792,0.07785831570625305
1759645029525004000,1.789004150390625,-0.008508300626277924,-0.06243161399364471,0.06695756698548794
1759645029534961200,1.798961181640625,-0.004463409149646759,-0.04211129502058029,0.07265636314898728
1759645029544919000,1.8089189453125,-0.025112813946604726,-0.02818623004257679,0.09903379020392894
1759645029554877000,1.818876953125,-0.022269114953279493,-0.03706745563447475,0.09467880986481904
1759645029564834000,1.828833984375,-0.010443652603030203,-0.04565291315019131,0.09436404482722281
1759645029574792200,1.838792236328125,0.02823006918430328,-0.036003625795245166,0.0767906864747405
1759645029584750000,1.84875,0.0017693477600812912,-0.0363420639693737,0.05331891773343086
1759645029594708200,1.858708251953125,-0.04559387643933296,-0.029248306316137312,0.0000339022696018219
1759645029604665000,1.8686650390625,-0.015808979028463364,-0.01961889270544052,0.013365093007683753
1759645029614623000,1.878623046875,0.061844169494509695,-0.008687748846411705,0.05516922177523374
1759645029624581000,1.8885810546875,0.04900923784077167,-0.007470189750194549,0.09221154296845196
1759645029634538200,1.898538330078125,-0.007664251017570495,-0.012431027027964591,0.09415361694693565
1759645029644496100,1.90849609375,-0.009725275200605392,-0.04433072463572025,0.059492930193245405
1759645029654454300,1.918454345703125,0.030207506737112998,-0.039753333717584605,0.056468029414117334
1759645029664411100,1.9284111328125,0.04495440949201584,-0.03310790435373783,0.07065846733003854
1759645029674369000,1.938369140625,0.009651625442504882,-0.0023918635725975034,0.06809358527809381
1759645029684327200,1.9483271484375,-0.025321488261222838,0.012257424026727675,0.0384814140856266
1759645029694284300,1.9582841796875,0.023335282880067823,-0.04209492840766906,0.007077098779380321
1759645029704242200,1.9682421875,0.07167465863525867,-0.04158697888553142,0.013931494718790053
1759645029714200000,1.978199951171875,0.01869651716351509,-0.038732173976302145,0.02191460242718458
1759645029724157200,1.9881572265625,-0.03866144682765007,-0.030077742877602575,0.03137362790703773
1759645029734115000,1.998114990234375,-0.0683358696013689,-0.038218963757157325,0.03159107005000114
1759645029744073200,2.0080732421875,-0.059817632102966305,-0.03501519927978516,0.062146951833367346
1759645029754031000,2.018031005859375,-0.060201078462600706,-0.0344902986228466,0.08306815930902957
1759645029763988000,2.027988037109375,-0.06528466533720494,-0.04302899438738823,0.09836568168401717
1759645029773946000,2.037946044921875,-0.04109364241063595,-0.03027764936387539,0.10347732560932636
1759645029783904000,2.047904052734375,-0.062037061718106266,-0.027794600376486775,0.09336392787396908
1759645029793861000,2.057861083984375,-0.0973228946328163,-0.0261509248226881,0.04517594328820705
1759645029803819300,2.0678193359375,-0.08237491634786129,-0.06027706630825996,0.04437164116799831
1759645029813777200,2.077777099609375,-0.07768529722690581,-0.08323474804759025,0.15478636482506988
1759645029823734000,2.087734130859375,-0.07947744134068489,-0.07745967177748679,0.16572247712016105
1759645029833692200,2.097692138671875,-0.07033259637653827,-0.07519991015195845,0.21439912200570105
1759645029843650000,2.107650146484375,-0.04581190310418606,-0.06468728396594524,0.23210107517391443
1759645029853607200,2.117607177734375,-0.04338847534954548,-0.05795125370919704,0.209423379419744
1759645029863565300,2.1275654296875,-0.06670914518237113,-0.02471358549594879,0.16354279499351979
1759645029873523200,2.137523193359375,-0.09042378276884555,-0.03367079893350601,0.0892784121260047
1759645029883480000,2.14747998046875,-0.06075345164835453,-0.006859948897361755,0.010332008922100067
1759645029893438200,2.157438232421875,-0.008943769434094428,-0.0006546645164489745,-0.003414484618604183
1759645029903396000,2.16739599609375,-0.003389642438292503,0.03180968123674392,-0.035378479634225364
1759645029913353200,2.177353271484375,-0.01614332554936409,0.04185001373589039,-0.06507452971786261
1759645029923311400,2.187311279296875,-0.03952595470249653,0.06091536421179771,-0.10927578275501727
1759645029933269000,2.19726904296875,-0.0429646969795227,0.0646194794267416,-0.16205927843749524
1759645029943226000,2.20722607421875,-0.007875263419747352,0.05159516268074512,-0.207853061363101
1759645029953184000,2.21718408203125,0.033524668461084366,0.12471534394919871,-0.2796852486476302
1759645029963142100,2.22714208984375,-0.0025368250012397764,0.12255261295735835,-0.23473902246206999
1759645029973100300,2.237100341796875,-0.04337970752120018,0.05103168357908725,-0.1449889011710882
1759645029983057000,2.247056884765625,-0.0443850851714611,0.009364625194668769,-0.09355682009756565
1759645029993015000,2.25701513671875,0.031605098575353624,0.034299159964919085,-0.024413141244649886
1759645030002972200,2.26697216796875,0.07292144382596015,0.04278992493450642,0.035067513988912107
1759645030012930000,2.276929931640625,0.025898995888233182,0.01985679311454296,0.05148147317320108
1759645030022888400,2.286888427734375,-0.027463176465034482,-0.013794132074713706,0.07585252884179353
1759645030032845600,2.296845458984375,-0.07106091065108776,-0.038023733446002,0.09559270983934402
1759645030042803500,2.306803466796875,-0.053663201126456256,-0.05168810166120529,0.09350567443221806
1759645030052761600,2.31676171875,-0.03369593337476253,-0.02703238383233547,0.058634852059185505
1759645030062718500,2.326718505859375,-0.03407119642794132,-0.02496317634284496,0.02327712295204401
1759645030072676400,2.33667626953125,-0.07135024898648262,-0.060922962996363635,-0.02629910112172365
1759645030082634500,2.346634521484375,-0.10943126557767391,-0.03845394155681133,0.013018763788044452
1759645030092592400,2.35659228515625,-0.11899229012727737,0.008247603863477707,0.08583762402236461
1759645030102549500,2.366549560546875,-0.04214928894340992,0.0028296704679727554,0.09384849652051926
1759645030112507600,2.376507568359375,0.008800561571121215,-0.0480278255879879,0.12019494391530751
1759645030122465500,2.386465576171875,-0.023306056785583496,-0.06016250001788139,0.08542582835108041
1759645030132422400,2.39642236328125,-0.06501520074605942,-0.06943944692909718,0.015895780529081822
1759645030142380500,2.406380615234375,0.02994038023352623,-0.07883855891525746,0.00031301147192716594
1759645030152338400,2.41633837890625,0.07215338206291198,-0.05972936929762363,0.0005953355446457863
1759645030162295600,2.426295654296875,0.054531800654530525,-0.04335749568939209,0.006294423969089985
1759645030172253700,2.436253662109375,-0.02339782672226429,-0.005541267514228821,0.03926058176457882
1759645030182211300,2.44621142578125,-0.02820435022115707,-0.01315524964928627,0.057982817891240115
1759645030192168400,2.45616845703125,-0.004721183302998542,-0.017508184161782264,0.031356969033181664
1759645030202126600,2.466126708984375,0.006913724911212921,-0.026378303837776184,0.016502514250576496
1759645030212084500,2.47608447265625,-0.00144610715508461,-0.03881166895329952,0.01089694932848215
1759645030222041600,2.48604150390625,0.014286884027719497,-0.031231004565954207,0.043240006789565084
1759645030231999500,2.49599951171875,-0.001173135432600975,-0.026139818906784056,0.05854132855683565
1759645030241956400,2.505956298828125,-0.04173135579228401,-0.044508419290184974,0.022361761672794817
1759645030251914500,2.51591455078125,-0.039572131931781766,-0.04673077151477337,0.0018190321207046509
1759645030261872600,2.52587255859375,0.029736966615915298,-0.04803951602578163,0.03625935412198305
1759645030271829500,2.53582958984375,0.05785656116306782,-0.06927578079998493,0.07747311578094959
1759645030281787400,2.545787353515625,0.04014028720855713,-0.07714344543516635,0.11280308009833097
1759645030291745500,2.55574560546875,-0.037426936596632,-0.07030629289150238,0.12888561537116766
1759645030301702400,2.565702392578125,-0.03175239809155464,-0.05559387692809105,0.09614771337360144
1759645030311660500,2.57566064453125,-0.001035188266634941,-0.02421732641160488,0.092114512334764
1759645030321618400,2.585618408203125,-0.0019499650239944457,-0.03407762616872787,0.05365414103716611
1759645030331575300,2.5955751953125,0.014009236130118369,-0.019624737924337388,0.015723638832569123
1759645030341533400,2.605533447265625,0.04496726897358894,-0.03377776643931865,0.007682078935205936
1759645030351491300,2.6154912109375,0.050201662495732303,-0.024146599262952803,0.021120821700990198
1759645030361448400,2.625448486328125,0.015113397979736327,-0.02871113069951534,0.024406711503863334
1759645030371406600,2.635406494140625,-0.03231529267132282,-0.02106499986052513,0.0063213119760155674
1759645030381364500,2.645364501953125,-0.05227905329167842,-0.013120178335905074,-0.004988309806585311
1759645030391321300,2.6553212890625,-0.05167699574530124,-0.01170914249420166,0.018014087857306002
1759645030401279500,2.665279541015625,0.002159223860502243,-0.027976386684179306,0.019071780216693878
1759645030411237400,2.6752373046875,0.016517419558763503,-0.02699672799706459,0.04529840062409639
1759645030421194500,2.685194580078125,0.02355155597925186,-0.014510755911469459,0.0725774526938796
1759645030431152600,2.695152587890625,0.03078033818900585,-0.01751402938067913,0.07822627223581075
1759645030441110500,2.705110595703125,0.012429857984185218,-0.0038631051689386364,0.08482786245793103
1759645030451067400,2.7150673828125,-0.015483400335907935,-0.021365444111824033,0.07733049243986606
1759645030461025500,2.725025634765625,-0.02639233236312866,-0.03505260868072509,0.0767819186463952
1759645030470983400,2.7349833984375,-0.010748188507556915,-0.028116087415814398,0.05199526791423559
1759645030480940500,2.7449404296875,-0.015250760623812674,-0.012051087799668311,0.049532969453930854
1759645030490898700,2.754898681640625,-0.021048633247613906,-0.017998598027229307,0.0537789364606142
1759645030500856300,2.764856201171875,-0.012694061878323554,0.0043944355666637415,0.06888444339483976
1759645030510813400,2.7748134765625,-0.015083002841472624,0.004933364748954772,0.062136430439352984
1759645030520771600,2.784771484375,-0.02860533223748207,-0.01577916841208935,0.06646539955437183
1759645030530728700,2.794728759765625,-0.03340191886425018,-0.017804536759853364,0.09667962829321622
1759645030540686600,2.8046865234375,-0.011100655207037924,0.008715221375226973,0.10372691645622253
1759645030550644500,2.81464453125,-0.015333178210258484,0.023373276802897452,0.06254910289347171
1759645030560601600,2.8246015625,-0.03216507054567337,0.040996027255058284,0.03528115673959255
1759645030570559500,2.8345595703125,-0.05663198780417442,0.02799626042842865,0.009904138898849486
1759645030580517600,2.844517578125,-0.03947393225431442,0.028192075261473656,0.004663607896864414
1759645030590474500,2.854474609375,-0.05990589490830898,0.021836568754911422,0.028777766194939613
1759645030600432400,2.864432373046875,-0.03751052322685718,0.005839958199858665,0.04603811307549476
1759645030610390500,2.874390625,-0.020330255845189094,-0.03272328895032406,0.08866758675128221
1759645030620347400,2.884347412109375,-0.03216507054567337,-0.030803134542703628,0.10602847139686346
1759645030630305500,2.894305419921875,-0.017790508234500884,-0.03199555919766426,0.09934183323979377
1759645030640263700,2.904263671875,-0.016490531551837922,-0.02652911048531532,0.07643705073148012
1759645030650220300,2.91422021484375,-0.009307342049479484,-0.03645429217219352,0.04268909490853548
1759645030660178400,2.924178466796875,0.037568390893936154,-0.03185702750980854,0.04886486093401909
1759645030670136600,2.934136474609375,0.004137830457091331,-0.012221768191456794,0.01283317808806896
1759645030680093400,2.944093505859375,-0.03330255014300346,-0.0014700725525617598,0.0034396190598607063
1759645030690051600,2.954051513671875,-0.05375263297557831,0.006543138033151626,0.009149228878319263
1759645030700008400,2.964008544921875,-0.039789574074745176,-0.012625672817230224,0.03240589356422424
1759645030709966300,2.97396630859375,0.001073182189464569,-0.04537994142770767,0.07327975574433804
1759645030719924500,2.983924560546875,-0.01641863535940647,-0.04191606470942497,0.10690291614383458
1759645030729881600,2.993881591796875,-0.08751286375820637,-0.04293488636314869,0.1541363764837384
1759645030739839500,3.003839599609375,-0.12570260142087936,-0.010967384216189384,0.16209230392426252
1759645030749797600,3.013797607421875,-0.15561492460370063,0.0034428339302539825,0.11974486206024884
1759645030759754500,3.02375439453125,-0.12257190217971801,0.026479426124691962,0.049912908682227135
1759645030769712400,3.03371240234375,-0.08206102809309959,0.025076573589444158,-0.028626375025510787
1759645030779670500,3.04367041015625,-0.018712883776426315,0.02204699663519859,-0.06265373231172561
1759645030789627600,3.053627685546875,0.0019499650239944457,0.009905892464518546,-0.06366583196371793
1759645030799585500,3.06358544921875,0.031414544439315795,0.010836451312899589,-0.03237023772895336
1759645030809542400,3.07354248046875,-0.020818916144967076,-0.036412206596136094,-0.029838965685665606
1759645030819500500,3.08350048828125,0.014663316124677658,-0.07502922976016999,-0.0337254517301917
1759645030829458400,3.09345849609375,0.037839024528861044,-0.02828326067626476,0.029338322687149046
1759645030839415600,3.10341552734375,0.007530395504832268,0.03752981244921684,0.08226414944976568
1759645030849373700,3.113373779296875,-0.04392565096616745,0.04166472029685974,0.13395926537364722
1759645030859331600,3.12333154296875,-0.1063338840842247,0.056656537723541255,0.1450441384896636
1759645030869288400,3.133288330078125,-0.14647884746789933,0.03149930011332035,0.11093231779038905
1759645030879246600,3.14324658203125,-0.12432663689255714,0.03688976098001003,0.08078677037358284
1759645030889204500,3.15320458984375,-0.06016600714921951,0.030600305446982383,0.04058598514944315
1759645030899161600,3.16316162109375,-0.020812486404180524,-0.003525836038589477,-0.02055997294783592
1759645030909119500,3.173119384765625,0.024936872857809066,0.004079378268122673,0.005592413179576396
1759645030919077400,3.183077392578125,0.04832651627361774,0.005756371569633483,0.07063333288878201
1759645030929034500,3.193034423828125,0.03339899625480175,-0.020595044261217117,0.05951309619843959
1759645030938992400,3.202992431640625,-0.00566635519862175,-0.043482583373785015,0.024114158298075197
1759645030948949500,3.212949462890625,-0.07470482011139393,-0.054502574560046195,0.013270108200609683
1759645030958907600,3.22290771484375,-0.08782207583785057,-0.03526362108290195,0.022950082954764365
1759645030968865300,3.232865234375,-0.010571662896871566,-0.030755203747749326,0.08232990816235541
1759645030978822400,3.242822509765625,0.024653964263200757,-0.0403898780554533,0.13576748383939266
1759645030988780500,3.252780517578125,0.0006008885025978088,-0.025697335836291312,0.14843553449362515
1759645030998738400,3.262738525390625,-0.032794016098976135,-0.030787352451682088,0.0952171545252204
1759645031008695600,3.272695556640625,-0.04279635467529297,-0.04662614209651947,0.018438743010163305
1759645031018653700,3.28265380859375,-0.006294131708145141,-0.030637130326032637,-0.020157529626786706
1759645031028611600,3.292611572265625,0.03676525781750679,0.010819500178098677,-0.037141397653520106
1759645031038568700,3.302568603515625,0.050831777092814445,0.00851063871383667,-0.04562777870893478
1759645031048526800,3.31252685546875,0.016489362508058547,-0.02400689853131771,-0.024309973131120204
1759645031058483700,3.322483642578125,-0.033318332234025,-0.020559388425946235,0.04282441172599792
1759645031068441600,3.332441650390625,-0.047426352563500404,-0.037004327270388604,0.06449877565652132
1759645031078399700,3.342399658203125,-0.016774024668335913,-0.07971826435923576,0.06911854441165924
1759645031088356600,3.352356689453125,-0.04115092555582523,-0.06751520086824894,0.07966682643294334
1759645031098314800,3.362314697265625,-0.05052256501317024,-0.039836335825920104,0.0781739575266838
1759645031108273000,3.37227294921875,-0.00919862097799778,-0.03498012796640396,0.07458353181928395
1759645031118229800,3.382229736328125,0.01993570356965065,-0.04049041582047939,0.062490942965447896
1759645031128187600,3.392187744140625,-0.021959902873635292,-0.06964110698103905,0.07502367680221796
1759645031138145800,3.402145751953125,-0.06732406221032142,-0.061547816896438595,0.08853957645744084
1759645031148102700,3.4121025390625,-0.04707973108291626,-0.07218845337629318,0.04515256241261959
1759645031158060800,3.422060791015625,-0.0009305588483810425,-0.056952890321612354,0.05470072748064995
1759645031168018000,3.432017822265625,0.01949088241159916,-0.015534838262200354,0.0798366300418973
1759645031177975600,3.4419755859375,0.023244681987166404,-0.0012847791135311127,0.08281593811362982
1759645031187933700,3.45193359375,-0.07980360455513,-0.00749240158200264,0.028585750754177568
1759645031197890800,3.461890869140625,-0.0893669671922922,-0.0376841262280941,-0.003980886329710483
1759645031207848700,3.4718486328125,-0.02648994751870632,-0.04924480016231537,-0.021529402501881123
1759645031217806800,3.481806884765625,0.03285948255062103,-0.04613923536241054,-0.006456336532533169
1759645031227763700,3.491763671875,0.04136719865500927,-0.05837970825433731,0.03583762157857418
1759645031237721600,3.5017216796875,0.02110240926146507,-0.05654314047694206,0.10476678089797496
1759645031247678700,3.5116787109375,-0.001264320847392082,-0.05742226139903068,0.13450433203577994
1759645031257636900,3.521636962890625,-0.005329670590162277,-0.09063362612724303,0.11703326501399278
1759645031267594800,3.5315947265625,-0.009423661905527115,-0.09048165043592453,0.09119272131472825
1759645031277551600,3.541551513671875,-0.022058687072992324,-0.05394669424295425,0.06577478694170713
1759645031287509800,3.551509765625,0.02649988439083099,-0.04253156625926494,0.009310849180817603
1759645031297467600,3.561467529296875,0.07529051104485988,-0.029294483545422554,0.023895547111332415
1759645031307424800,3.5714248046875,0.06021393794417381,0.01195522620975971,0.01579290467649698
1759645031317383000,3.5813828125,0.03186871794760227,0.020199907463788986,0.004709200604259968
1759645031327340800,3.5913408203125,-0.041458968591690064,0.003837386205792427,-0.03732289170026779
1759645031337297700,3.601297607421875,-0.055178281864523886,-0.015875030001997945,-0.03147358115017414
1759645031347255800,3.611255859375,-0.057877603951096535,0.020243162083625792,-0.023106442560255527
1759645031357212700,3.621212646484375,-0.08016425456106663,-0.06464169125854968,0.0284536488071084
1759645031367170800,3.6311708984375,-0.07365326523184776,-0.05970306581258773,0.12149755094647406
1759645031377129000,3.64112890625,-0.09329203168153763,-0.05923661734461784,0.20571634159535168
1759645031387085600,3.65108544921875,-0.14451660748422146,-0.04595744905471801,0.22161124534159898
1759645031397043700,3.661043701171875,-0.1546919645398855,-0.01981061588525772,0.19816168843209742
1759645031407001900,3.671001953125,-0.1178752687960863,-0.009373393023014069,0.07891513128280639
1759645031416958700,3.680958740234375,-0.09162029907703399,0.024412556722760197,-0.03010375410169363
1759645031426916900,3.690916748046875,-0.059819970190525054,0.015069558838009834,-0.10603811600804328
1759645031436873700,3.700873779296875,-0.01521393574476242,-0.01842296091914177,-0.11097294206172227
1759645031446831600,3.71083154296875,-0.04830898061692714,-0.03421615785658359,-0.061606269085407256
1759645031456789800,3.720789794921875,-0.06129588796198368,-0.024933950248360634,0.0140972066745162
1759645031466747000,3.730746826171875,-0.08344108427464962,-0.007596446478366851,0.06247574539631605
1759645031476704800,3.740704833984375,-0.0951928968667984,0.0051864627271890635,0.09032382952570915
1759645031486663000,3.750662841796875,-0.09576222118735313,0.017750760746002195,0.06715104373097419
1759645031496619800,3.760619873046875,-0.10149228927195071,0.02596153973042965,0.03278612505346536
1759645031506577700,3.77057763671875,-0.10631167225241661,0.017934300619363783,0.007433949393033981
1759645031516535800,3.780535888671875,-0.06689969931840896,0.020311551144719123,-0.0020689152285456656
1759645031526493000,3.790492919921875,-0.05026829799115658,0.025873276925086973,0.01191430967748165
1759645031536450800,3.800450927734375,-0.07122633034586906,0.02399170096218586,0.029181086298823353
1759645031546407700,3.81040771484375,-0.09180909964740276,0.011471826606988906,0.02009907743781805
1759645031556365800,3.82036572265625,-0.0759217946857214,-0.015796119546890256,0.08041764480024576
1759645031566323700,3.83032373046875,-0.0396358448177576,-0.034758009648323054,0.13250555943399667
1759645031576280800,3.84028076171875,-0.046864627027511596,-0.05329495233595371,0.11855623679757117
1759645031586239000,3.850239013671875,-0.05968903728723526,-0.0756640205323696,0.10498130043148994
1759645031596196600,3.860196533203125,-0.05732464624345302,-0.0974322002261877,0.10924334179013967
1759645031606153700,3.87015380859375,-0.07895254068374634,-0.07218962242007256,0.1368985336959362
1759645031616111900,3.88011181640625,-0.04562368705570698,-0.04289806148409843,0.14877105005830527
1759645031626068700,3.89006884765625,-0.016549568262696265,-0.006406359910964965,0.07949176212698221
1759645031636027000,3.90002685546875,0.024214403802156448,0.006318681627511978,0.011030804841220378
1759645031645984800,3.90998486328125,0.04898877957463264,0.015250176101922988,-0.07908785750120878
1759645031655941600,3.919941650390625,0.027658406776189803,0.009662731358408927,-0.1314551735982299
1759645031665899800,3.929899658203125,0.0037871173232793807,0.0037280806124210357,-0.1440606804102659
1759645031675857700,3.939857666015625,0.00938332989513874,0.006042202773690223,-0.11084668533354997
1759645031685814800,3.949814697265625,-0.0030780922710895537,-0.01362403620481491,-0.03412468018084764
1759645031695772700,3.959772705078125,0.018842647635936734,-0.030083003574609756,0.034979835705459116
1759645031705729800,3.969729736328125,0.007595861956477165,-0.0444201564848423,0.07231909401863813
1759645031715687700,3.979687744140625,-0.01338613579571247,-0.056904375004768366,0.08551438341736793
1759645031734359800,3.99835986328125,0.018752631264925,-0.061580550122261046,0.075890815025568
1759645031744317000,4.00831689453125,-0.0036082536250352857,-0.05396422989964485,0.03817454009354114
1759645031754274800,4.01827490234375,-0.04009060284793377,-0.05267477461099624,0.03182663237154484
1759645031764231700,4.028231689453125,-0.03452712350189686,-0.042293665850162504,-0.0008308978661894798
1759645031774189800,4.03818994140625,-0.02029343096613884,-0.018013211074471472,0.02903670939207077
1759645031784147700,4.048147705078125,-0.01512158128619194,-0.01707563796341419,0.04304448421746492
1759645031794104800,4.058104736328125,-0.03038695495724678,-0.030592706662416456,0.038430560681223865
1759645031804062700,4.068062744140625,-0.04702478602528572,-0.01910334439873695,0.03200724963545799
1759645031814020600,4.0780205078125,-0.0313707052975893,-0.013121347379684447,0.008497779232263565
1759645031823977700,4.087977783203125,-0.03690378950536251,-0.014969021072983741,0.017208324432373044
1759645031833935600,4.097935546875,-0.04949672909677028,-0.024915245547890662,0.03014379385113716
1759645031843892700,4.107892822265625,-0.036305239090323446,0.024943887120485304,0.01839811873883009
1759645031853851000,4.117850830078125,-0.04568389281034469,-0.037218846803903576,0.031356969033181664
1759645031863808500,4.12780859375,-0.04079319815933704,-0.004335398855805397,0.03533259466588497
1759645031873765600,4.137765625,0.0014706570744514465,-0.06700199064910412,-0.016649813766777516
1759645031883723800,4.147723876953125,0.0397229385793209,-0.053119595769047734,0.008385258768498898
1759645031893681700,4.157681640625,0.007074468430876731,-0.022224691289663312,0.08189911552965641
1759645031903638800,4.167638671875,-0.056789808714389794,-0.041059740141034126,0.06612871494591235
1759645031913596700,4.1775966796875,-0.04881108492016792,-0.057494742113351816,0.04224894992560148
1759645031923554600,4.187554443359375,-0.011455459994077682,-0.041246202623844146,0.006153846454620361
1759645031933511700,4.19751171875,0.06858253783881664,-0.024579145461320874,-0.006995557975769042
1759645031943469800,4.2074697265625,0.11277356174290179,-0.0036591070294380184,-0.015872984175384044
1759645031953427000,4.217427001953125,0.0788975956261158,-0.01862812810242176,-0.03361760744154453
1759645031963384600,4.227384521484375,-0.005494505763053894,0.0030447745233774183,-0.030049978087842464
1759645031973342700,4.2373427734375,-0.06169453189074993,0.006336217284202575,-0.0021519173368811607
1759645031983299800,4.2472998046875,-0.04619593398571014,-0.021215221986174582,0.042998891510069366
1759645031993257700,4.2572578125,-0.042564299485087394,-0.03364566449224949,0.09466901912316679
1759645032003216000,4.2672158203125,-0.07680091560781002,-0.0649807139545679,0.14040084272846579
1759645032013173000,4.277173095703125,-0.136824299415946,-0.06782499746978282,0.15735796887874604
1759645032023129900,4.2871298828125,-0.15798925251960755,-0.05738134486675262,0.16750877601504324
1759645032033087000,4.2970869140625,-0.11134148311316966,-0.04603519046604633,0.16086115469411014
1759645032043044900,4.307044921875,-0.07617898431718349,-0.01646656615436077,0.11237813268452881
1759645032053002800,4.317002685546875,-0.06672784988284111,0.025454759252071378,-0.003867489083111286
1759645032062959900,4.3269599609375,-0.027317045992612837,0.044648120021820066,-0.06728285341709851
1759645032072918000,4.33691796875,-0.04967500827312469,0.01982230632305145,-0.07132701424136757
1759645032082876000,4.3468759765625,-0.029686113211512564,-0.0018576105654239655,-0.03403802481070161
1759645032092832800,4.356832763671875,-0.04631751453876495,-0.01376782858967781,0.02898249498680234
1759645032102791000,4.366791015625,-0.07467442497313022,-0.016911387312412263,0.06329816769510507
1759645032112748800,4.376748779296875,-0.08340425939559937,-0.006337386327981948,0.10561346085518598
1759645032122706000,4.386705810546875,-0.106215810662508,-0.002869417956471443,0.11267331623882054
1759645032132664000,4.3966640625,-0.12563421235978603,0.0033849662631750105,0.12145911863222718
1759645032142621000,4.406620849609375,-0.10613047046661377,-0.01576864701807499,0.11242124117389321
1759645032152578800,4.416578857421875,-0.05453472326397896,-0.00976677625477314,0.08354337560534476
1759645032162537000,4.426536865234375,-0.07320435242056846,0.01606967579126358,0.04658800204321742
1759645032172493800,4.436493896484375,-0.12694938661158084,0.006528524985909462,-0.0033666999541223045
1759645032182452000,4.446451904296875,-0.12287819164991379,0.01398001003563404,-0.014779051458835601
1759645032192410000,4.45641015625,-0.07518120545148849,-0.015492168164253233,0.044456396842002865
1759645032202366700,4.46636669921875,-0.03462240056991577,-0.03763736447691917,0.10314327134937047
1759645032212324900,4.476324951171875,-0.014973697248101233,-0.03849661165475845,0.09869301394224167
1759645032222283000,4.486282958984375,-0.016166121903061867,-0.060948681959509844,0.08990180472135544
1759645032232239900,4.496239990234375,-0.04177227232456207,-0.04060848924219608,0.08213701593875884
1759645032242198000,4.506197998046875,-0.059521864026784894,-0.009300912308692932,0.13457798179388045
1759645032252155000,4.51615478515625,-0.05943360122144222,0.0037859482795000073,0.13023644545823335
1759645032262112800,4.52611279296875,-0.01738718813061714,0.016246785923838613,0.09952303502559662
1759645032272071000,4.53607080078125,0.023266893818974493,-0.015084756407141684,0.041968963940441605
1759645032282028000,4.546028076171875,0.021195932763814925,0.005429039311408996,0.012122983992099762
1759645032291986000,4.55598583984375,0.01028349360525608,-0.0027525135785341263,-0.01650806720852852
1759645032301944000,4.565944091796875,-0.008491349491477012,0.008376783201098442,-0.022818565529584882
1759645032311901000,4.57590087890625,-0.01571720909178257,0.024632336953282354,-0.05199965182840824
1759645032321858800,4.58585888671875,-0.014319617253541946,0.012780571117997169,-0.053013212785124775
1759645032331817000,4.59581689453125,0.02052080998122692,0.03955167366564274,-0.019191314943134783
1759645032341774000,4.605774169921875,0.023882979890704155,0.02736439226567745,0.0353401934504509
1759645032351732000,4.61573193359375,-0.003951367974281311,0.0061240358382463455,0.07057254261225461
1759645032361689900,4.62568994140625,0.007348609197139739,-0.008597147953510284,0.0875461815059185
1759645032371647000,4.63564697265625,-0.01629413219690323,-0.022076807251572607,0.06805792944282293
1759645032381604900,4.64560498046875,-0.030196400821208953,-0.029841596034169197,0.03407236547172069
1759645032391563000,4.65556298828125,-0.033325931018590924,-0.01963935097157955,0.030692952166497707
1759645032401520000,4.66552001953125,-0.02246317622065544,-0.012215338450670242,0.03666179744303226
1759645032411477800,4.675477783203125,-0.028434651845693586,-0.005320902761816978,0.041808220420777795
1759645032421436000,4.685435791015625,-0.04517243615686893,-0.043513563033938406,0.010963877084851264
1759645032431393000,4.69539306640625,-0.036136312264204024,-0.04107727579772472,0.010945172384381294
1759645032441351000,4.705350830078125,-0.04739069672822952,-0.009959668478369712,0.023626667042076586
1759645032451308000,4.71530810546875,-0.04740823238492012,0.009122048610448836,0.02450666474699974
1759645032461266000,4.725265869140625,-0.07896130851209163,0.00732113666832447,0.03927782516032457
1759645032471223800,4.735223876953125,-0.027850129956007,0.019007482808828354,-0.005257189875841141
1759645032481181000,4.745180908203125,-0.04360825558006763,0.03545066808760166,0.02176291899681091
1759645032491138800,4.755138916015625,-0.05880991636514663,0.04400573046505451,0.025507950744032858
1759645032501097000,4.765096923828125,-0.0416401703774929,0.019109189617633818,0.008310732227563858
1759645032511053800,4.7750537109375,-0.023680735316872596,0.028678397473692892,0.02918780830055475
1759645032521011700,4.78501171875,-0.046860535374283786,0.044078211179375645,0.08063041076809167
1759645032530969900,4.794969970703125,-0.05895604683756828,-0.0192407070428133,0.08198504024744033
1759645032540927000,4.804927001953125,-0.05467091686427593,-0.032732056778669354,0.11051906081438063
1759645032550884900,4.814884765625,-0.06028641865849495,0.010203414106369019,0.13613134871572255
1759645032560843000,4.824843017578125,-0.06560732142031192,0.03517944993078709,0.084005440159142
1759645032570799900,4.8347998046875,-0.046205286335945124,0.022556699723005294,0.0229942143574357
1759645032580757800,4.8447578125,-0.038437574943900106,0.056846507337689395,0.0240595055013895
1759645032590716000,4.8547158203125,-0.05898351936638355,0.08974106120169162,0.007503507497906684
1759645032600673000,4.864673095703125,-0.08475099782943725,0.07588730789422989,-0.020768355001509187
1759645032610631000,4.874630859375,-0.10465513721704482,0.07899813339114188,0.007253039868175983
1759645032620589000,4.884589111328125,-0.10260580347180366,0.09977613300383091,0.01790302869826555
1759645032630546000,4.8945458984375,-0.08846388087272644,0.07276596100330353,0.07797668138891459
1759645032640503800,4.90450390625,-0.0684749858111143,0.06860474967062473,0.13544482775628566
1759645032650462000,4.9144619140625,-0.07334522219598293,0.05928104100823402,0.16836977675855158
1759645032660419000,4.924419189453125,-0.12150222712159156,0.015410335099697112,0.17873364212363957
1759645032670377000,4.934376953125,-0.2071247470885515,-0.002624503284692764,0.17752455859482288
1759645032680334800,4.9443349609375,-0.16822656889557838,0.028943185889720915,0.20935703618526458
1759645032690292000,4.9542919921875,-0.10225450581610203,0.019002222111821173,0.1829348932057619
1759645032700249900,4.964249755859375,-0.03323825273513794,0.0302946004986763,0.117254798810184
1759645032710208000,4.9742080078125,-0.00020166005194187164,0.05572480983138084,0.016965163326263428
1759645032720165000,4.9841650390625,0.010188801059126854,0.012803951993584632,-0.048908115553855894
1759645032730122800,4.994122802734375,0.005535422295331955,0.007436287480592727,-0.04093815958797931
1759645032740081000,5.004080810546875,-0.008020224848389625,-0.013351064482331275,0.022758944296836853
1759645032750038000,5.0140380859375,-0.04405190769433975,0.0449473952293396,0.08907938242256641
1759645032759996000,5.023995849609375,-0.03730243343412876,0.03969838865995407,0.10896189450025558
1759645032769954000,5.0339541015625,-0.006432078874111175,0.012872341054677962,0.11562865891307592
1759645032779911000,5.043910888671875,0.05931494327783584,-0.01813186901807785,0.11235329050421713
1759645032789868800,5.053868896484375,0.03607727555334568,-0.018774843096733093,0.10704875435531139
1759645032799827000,5.063826904296875,0.009998246923089028,-0.022997429227828978,0.12835633080005646
1759645032809783800,5.07378369140625,-0.0013525836527347563,-0.04182897094786167,0.10764935059696436
1759645032819742000,5.083741943359375,0.018077508482336996,-0.05774959365725517,0.07092442478984594
1759645032829700000,5.0937001953125,0.008473813834786414,-0.08461889588236808,0.016752105097472665
1759645032839656700,5.10365673828125,0.06326689577400683,-0.1340618489652872,-0.01909516109228134
1759645032849614800,5.11361474609375,0.1721685845196247,-0.1147907467842102,0.014490589906275272
1759645032859573000,5.123572998046875,0.2172860756188631,-0.050148471003770824,0.07558335651159286
1759645032869529900,5.13352978515625,0.1780681639522314,-0.05287000492215156,0.04175181405842304
1759645032879488000,5.143488037109375,0.10333762487769126,-0.041317514294385904,0.017822656938433646
1759645032889446100,5.153446044921875,0.031981530672311784,-0.016112345889210702,0.04074146797209978
1759645032899402800,5.16340283203125,-0.035222704550623894,0.0005704933643341064,0.09295826968252659
1759645032909361000,5.17336083984375,-0.021728432205319403,-0.0013034838140010834,0.15189853442907333
1759645032919319000,5.183319091796875,0.013945523244142532,-0.011060907718539237,0.21402298216968774
1759645032929276000,5.19327587890625,0.043753217008709905,-0.005316811108589172,0.2549979666367173
1759645032939234000,5.203234130859375,0.040113399201631546,-0.01636252125799656,0.22541648284345864
1759645032949192000,5.21319189453125,0.012099603116512299,-0.039242461585998534,0.20675094534009694
1759645032959148800,5.223148681640625,0.008559738552570343,-0.06854220582842827,0.17826105617582796
1759645032969107000,5.23310693359375,0.01803600742816925,-0.122894558262825,0.15536533375680445
1759645032979064800,5.24306494140625,-0.04251519964635372,-0.1301443832606077,0.144517484267056
1759645032989022000,5.25302197265625,-0.05073007028400898,-0.09058101915717125,0.13786591742336748
1759645032998979800,5.262979736328125,-0.025576339805126188,-0.10006664038300514,0.18383330335021017
1759645033008937700,5.272937744140625,0.0035509704798460003,-0.1034054294168949,0.211340611217916
1759645033018894800,5.282894775390625,-0.00755377638041973,-0.18081892396509647,0.19551555783748625
1759645033028853200,5.292853271484375,-0.04039455423057079,-0.225089442846179,0.2581979317218065
1759645033038811100,5.30281103515625,-0.025102877074480057,-0.1805073737978935,0.3111775344982743
1759645033048769300,5.312769287109375,-0.04762450548410416,-0.14642916310727597,0.29305560235232114
1759645033058726400,5.322726318359375,-0.04945873517394066,-0.17706395534574984,0.22850275842100382
1759645033068684300,5.332684326171875,-0.04909048638343811,-0.16408873843848704,0.16347031427919864
1759645033078642200,5.34264208984375,-0.026951719811558722,-0.11546236243546008,0.15551438683867452
1759645033088599300,5.352599365234375,-0.0016395839005708694,-0.06360474942624568,0.1212654957562685
1759645033098557200,5.36255712890625,0.042215339916944504,-0.04770809211432934,0.08858779951333999
1759645033108515300,5.372515380859375,0.06252747558355332,-0.044565117913484574,0.0765618461549282
1759645033118472400,5.382472412109375,0.022038813328742978,-0.005437807139754295,0.06968816099315882
1759645033128430000,5.39243017578125,0.03163578597456217,-0.03414309262037277,0.05896715275347233
1759645033138388200,5.40238818359375,0.15908084714859724,-0.004517769685387611,0.04463263019174337
1759645033148345300,5.412345458984375,0.24596973378956316,0.012620412120223044,0.01671440343558788
1759645033158303200,5.42230322265625,0.21342092462331055,0.0032546178817749022,-0.07998422181904316
1759645033168261400,5.432261474609375,0.1282195526778698,-0.02965980972647667,-0.12245207519233225
1759645033178218200,5.44221826171875,0.029812369939684866,-0.030105215406417845,-0.10786328560858964
1759645033188176100,5.452176025390625,-0.032248072654008864,0.01514554668366909,-0.03715776426643133
1759645033198134300,5.46213427734375,-0.01986819129139185,0.030207506737112998,0.051345864094793796
1759645033208091100,5.472091064453125,0.01480477042198181,-0.03844751181602478,0.13109510811418293
1759645033218049300,5.48204931640625,0.04951952545046806,-0.11509586721062659,0.21505144843459129
1759645033228007400,5.49200732421875,0.08817921871244906,-0.14965806202590465,0.28999066182374955
1759645033237964000,5.501964111328125,0.12939268811047078,-0.1559732365220785,0.28182167615443465
1759645033247922200,5.511922119140625,0.07906623019129037,-0.12267477803230285,0.2392752045869827
1759645033257880300,5.52188037109375,-0.0637614012926817,-0.18323826006650923,0.16989041045457123
1759645033267838200,5.531838134765625,-0.23168226523995397,-0.4284463618338108,0.027765958803892134
1759645033277795300,5.54179541015625,-0.24021248543709514,-0.3400333343654871,0.07888122901320457
1759645033287753200,5.551753173828125,-0.24161270762383935,-0.31075229482352734,0.127702543066442
1759645033297711000,5.561711181640625,-0.19183423897624013,-0.2794154917955398,0.17371961335390806
1759645033307668200,5.571668212890625,-0.20617782162725926,-0.18538287087976932,0.2376481879070401
1759645033317626000,5.581626220703125,-0.29613047975301743,-0.19413433261215685,0.2777522347584367
1759645033327584300,5.591584228515625,-0.33582506902068854,-0.21172084270715713,0.2934671057626605
1759645033337541400,5.601541259765625,-0.3974208167120814,-0.2942266919583082,0.26152561483979225
1759645033347499000,5.6114990234375,-0.4711632215321064,-0.3121083856076002,0.22579612981081007
1759645033357457200,5.62145703125,-0.5366001548215746,-0.330835297909379,0.16828355977982282
1759645033367414300,5.631414306640625,-0.5217676196098328,-0.356162046867609,0.07685556840449571
1759645033377372200,5.6413720703125,-0.5036211375445128,-0.31950083394646644,0.022292203567922116
1759645033387330300,5.651330322265625,-0.4829793315321207,-0.35147535035610195,-0.02859393406063318
1759645033397287200,5.661287109375,-0.5636392606556415,-0.35284897679686544,-0.007298340314626693
1759645033407245000,5.6712451171875,-0.6249976924598216,-0.3165957601547241,0.09624182139784097
1759645033417203200,5.681203125,-0.6240373229950666,-0.3311415873795748,0.17465777098685503
1759645033427161300,5.691161376953125,-0.7314648475348949,-0.37598084605932236,0.21494769579917192
1759645033437118200,5.7011181640625,-0.7654337526321411,-0.12504442977309227,0.3517006835445761
1759645033447076400,5.711076416015625,-0.729433633968234,-0.04352817608118057,0.32900340630710123
1759645033457034200,5.7210341796875,-0.6543731322869658,0.04262275167405605,0.2921209518507123
1759645033466991000,5.7309912109375,-0.563360443714261,0.1568266384810209,0.21806407425403593
1759645033476949200,5.74094921875,-0.4518064868941903,0.29708325043320655,0.1242433425232768
1759645033486907100,5.7509072265625,-0.33717326875925063,0.4216138854652643,0.03742664433568716
1759645033496864300,5.7608642578125,-0.20900924566090107,0.5669131677597761,-0.058087739570438855
1759645033506822400,5.770822509765625,-0.056015317210555075,0.6336778425216675,-0.15941519366949797
1759645033516780000,5.780780029296875,0.08506488608419895,0.6810591868996619,-0.2078556917116046
1759645033526737200,5.790737060546875,0.09630699558854103,0.6878466550827026,-0.3061722735568881
1759645033536695300,5.8006953125,0.08662818987816572,0.6480939058870077,-0.4043883176371455
1759645033546653200,5.810653076171875,0.06660276219844817,0.595651186466217,-0.5203372945457697
1759645033556611300,5.820611328125,0.03561141160726547,0.3088105131059885,-0.586411941216886
1759645033566568200,5.830568115234375,0.024496727874875068,0.008273322826623917,-0.5301575545534492
1759645033576526000,5.840526123046875,0.09650894790142774,-0.14806640892028808,-0.35901129881888627
1759645033586484200,5.850484130859375,0.19123948795348406,-0.3088888390392065,-0.23662732042670248
1759645033596441300,5.86044140625,0.26748013933002945,-0.47742637358009815,-0.14338380406200885
1759645033606399200,5.870399169921875,0.26222762562930585,-0.5881482634902,-0.07611731725782156
1759645033616357400,5.880357421875,0.21114187377542257,-0.636709173041582,-0.023389643415808677
1759645033626314200,5.890314208984375,0.12821867589503527,-0.6071393796861171,-0.0270811914101243
1759645033636272000,5.900272216796875,0.09891454773843288,-0.5517617758572101,-0.04598199897408485
1759645033646230300,5.910230224609375,0.11538871267735958,-0.46915714240670203,-0.08774170407801866
1759645033656188200,5.920188232421875,0.13132628652155398,-0.43025194995105265,-0.12725742964744566
1759645033666145300,5.930145263671875,0.10160042582154273,-0.42874622156322,-0.15109481683075426
1759645033676103400,5.940103515625,0.05089052154272795,-0.48087914438247675,-0.1482961260229349
1759645033686061000,5.95006103515625,0.03993833489567041,-0.5076110839635134,-0.11748042425960302
1759645033696018200,5.96001806640625,0.03369973276704549,-0.5424491731107235,-0.048181847105920314
1759645033705976300,5.969976318359375,0.01298047760426998,-0.5442933396726847,0.0037292496562004087
1759645033715934200,5.979934326171875,0.04379121093153953,-0.5808680433541537,0.06436170527338982
1759645033725891300,5.989891357421875,0.042107203367352485,-0.6190601191043853,0.14256898054778575
1759645033735849200,5.99984912109375,-0.057167994377017015,-0.6195815126299857,0.20508476569354533
1759645033745807000,6.00980712890625,-0.18474866462945938,-0.63238604914546,0.23576924229264257
1759645033755764200,6.01976416015625,-0.2556722126364708,-0.6731675568670034,0.21127426798343657
1759645033765722400,6.029722412109375,-0.2565183080717921,-0.6715735656738281,0.18997165997475385
1759645033775680300,6.03968017578125,-0.21776187643706799,-0.6871119110673666,0.17379969285279512
1759645033785638400,6.049638427734375,-0.18580635698884723,-0.719056616860628,0.13262217155098915
1759645033795595300,6.05959521484375,-0.18560411241501568,-0.790102329942584,0.09200257639288902
1759645033805553200,6.06955322265625,-0.22723785305172203,-0.8502174836874008,0.08017711404263973
1759645033815511300,6.07951123046875,-0.2605594001561403,-0.8625807061761617,0.12338614117205142
1759645033825468400,6.089468505859375,-0.2650160873040557,-0.8396177637398242,0.21254881796389816
1759645033835426300,6.09942626953125,-0.16041911001503467,-0.7021306165009736,0.17451105599254368
1759645033845384400,6.109384521484375,-0.19414894565939902,-0.7217120998054742,0.20400603054612873
1759645033855341300,6.11934130859375,-0.1722381426244974,-0.6329167950212955,0.15695055712163447
1759645033865299200,6.12929931640625,-0.14192454516440628,-0.6103069038063287,0.07569733828008174
1759645033875257300,6.13925732421875,-0.19908990919291972,-0.5612187555104494,0.09455985966026782
1759645033885215200,6.14921533203125,-0.26101328140348196,-0.5400403584033251,0.11712854208201169
1759645033895172400,6.15917236328125,-0.24697686500549315,-0.4502098653525114,0.03378185809254646
1759645033905130200,6.169130126953125,-0.2968649315074086,-0.41468730107247825,-0.014134323814511298
1759645033915088100,6.179088134765625,-0.40064240910708904,-0.31847149089872834,0.010276187081634998
1759645033925045200,6.189045166015625,-0.5123778599739074,-0.25964637696444987,0.06310322964489459
1759645033935003400,6.19900341796875,-0.6281248845696449,-0.35663375603258607,0.1597261593148112
1759645033944961300,6.208961181640625,-0.6034329263836145,-0.14368600187897682,0.31721067718267437
1759645033954918100,6.218918212890625,-0.5499415746927261,-0.06298749431073665,0.3973734704390168
1759645033964876300,6.228876220703125,-0.4282154756873846,-0.07850713500380516,0.3142322458937764
1759645033974834200,6.238834228515625,-0.38397067576944827,-0.15835983939766882,0.21235241860896348
1759645033984791300,6.248791259765625,-0.3977338281840086,-0.1720586944043636,0.10582038160413502
1759645033994749200,6.258749267578125,-0.4828355391472578,-0.31928046919405456,0.02458323711454868
1759645034004707300,6.268707275390625,-0.5295075662121176,-0.49596390078961844,0.04068009317368269
1759645034014665500,6.27866552734375,-0.5622016290679573,-0.5787286932379007,0.13879793757647274
1759645034024622300,6.288622314453125,-0.4835404725462198,-0.6575549771934748,0.2694993701979518
1759645034034580500,6.29858056640625,-0.3898781462475657,-0.7587766328305006,0.4513692645207047
1759645034044538600,6.30853857421875,-0.30450872425884007,-0.7657032172232866,0.6436477401331067
1759645034054495500,6.31849560546875,-0.2703299758031964,-0.7156821719914674,0.7700634582594037
1759645034064453600,6.32845361328125,-0.32513504044115543,-0.7297533674418926,0.8059531022861599
1759645034074411500,6.33841162109375,-0.42624388335347174,-0.7233049219548702,0.7362199331074952
1759645034084369400,6.348369384765625,-0.5465279668569565,-0.7151695462942123,0.6533119327962398
1759645034094326500,6.358326416015625,-0.6402855702236294,-0.6753565913438797,0.5707727657973766
1759645034104284400,6.368284423828125,-0.6465116051316261,-0.6427063676297664,0.40978140885233877
1759645034114242600,6.37824267578125,-0.6633662938207388,-0.7140536940068006,0.30479952389895915
1759645034124199700,6.38819970703125,-0.7060980588272213,-0.7000315983951091,0.3059764587238431
1759645034134157600,6.398157470703125,-0.7740417142406105,-0.6670154639780521,0.33670477446466685
1759645034144115500,6.408115478515625,-0.8181015129804611,-0.6850666689753532,0.3858355928584933
1759645034154072600,6.418072509765625,-0.8067141497865319,-0.6616209114581346,0.4809326281353831
1759645034164030500,6.428030517578125,-0.746283938743174,-0.7148685175210238,0.5966983574315905
1759645034173988600,6.437988525390625,-0.7103805584520101,-0.6683394060581922,0.7386316704243421
1759645034183946500,6.447946533203125,-0.658753831589222,-0.6723170775175095,0.8107128640338778
1759645034193903400,6.4579033203125,-0.5804939493447542,-0.6745160488665104,0.8253013613566755
1759645034203861500,6.467861572265625,-0.5737795463979244,-0.6989028866261243,0.722674807357788
1759645034213819400,6.4778193359375,-0.651981853236258,-0.8356108661860228,0.5428785044386982
1759645034223776500,6.487776611328125,-0.8117670492619276,-0.9182780434787273,0.3653101067021489
1759645034233734700,6.497734619140625,-0.9591238486081362,-0.9060013302296399,0.2843719451591372
1759645034243692500,6.507692626953125,-1.0978124805912375,-0.8250725210368632,0.2232666113331914
1759645034253649400,6.5176494140625,-1.1029507202625275,-0.7094160973340272,0.18479981029480694
1759645034263607600,6.527607666015625,-1.0022612718060613,-0.48034196876585483,0.2092106134518981
1759645034273565400,6.5375654296875,-0.9265458133473992,-0.257176771980524,0.25705606821030375
1759645034283523600,6.547523681640625,-0.8564891113027929,-0.282854234072566,0.11654723506271839
1759645034293480700,6.557480712890625,-0.844577431973815,-0.32606033859252925,0.06921089887022971
1759645034303438300,6.567438232421875,-0.7724372016534209,-0.18602876756787298,0.15392361051589248
1759645034313396500,6.577396484375,-0.6993392322167754,-0.0844569833189249,0.21416735907644033
1759645034323353600,6.587353515625,-0.7037313296958804,-0.01752571981847286,0.31171471011489627
1759645034333311500,6.5973115234375,-0.7927242028787732,0.05605448017716407,0.3774420046530664
1759645034343269600,6.60726953125,-0.8974711100324988,0.08430559214949607,0.4492094561383128
1759645034353226500,6.6172265625,-0.8801455889612436,0.16914777539372444,0.5522641724213957
1759645034363184400,6.627184326171875,-0.6651490855842829,0.29171266331076623,0.5957493861436843
1759645034373142500,6.637142578125,-0.5911228953868151,0.41239655978679657,0.6187691733337939
1759645034383100400,6.647100341796875,-0.7257704352855682,0.5250023637473583,0.5224447882190346
1759645034393057500,6.6570576171875,-0.9702364865139126,0.5578256059408188,0.39966844950839875
1759645034403015700,6.667015625,-1.1586717307016252,0.6274263809114694,0.32416385732144115
1759645034412973600,6.6769736328125,-1.346390351052582,0.7837596829175949,0.3785701319001615
1759645034422930400,6.686930419921875,-1.544519890780747,0.9349217197656631,0.4732124091468751
1759645034432888600,6.696888671875,-1.5969202323645353,0.9845487972438335,0.5272879904665052
1759645034442846500,6.706846435546875,-1.6206012599423527,1.0467986249297856,0.6218028419412672
1759645034452804600,6.7168046875,-1.7430559654831885,1.1548486652821301,0.6378614118166267
1759645034462761700,6.72676171875,-1.83331958925426,1.2366092491239309,0.5102119141116738
1759645034472719400,6.73671923828125,-1.9019547340631484,1.238649230518937,0.24926892146542667
1759645034482677500,6.746677490234375,-1.9588845357701181,1.2728455146312714,-0.06729279028922319
1759645034492634600,6.756634521484375,-1.8936396179214119,1.3830600395411252,-0.3184679837673902
1759645034502592500,6.766592529296875,-1.6690283139809965,1.541227571237087,-0.469965682310611
1759645034512550700,6.776550537109375,-1.3458762640506028,1.7053852832585572,-0.4300336310252547
1759645034522507500,6.786507568359375,-1.0343538616374135,1.6958675133287906,-0.4759383269794285
1759645034532465400,6.79646533203125,-0.7776920534417032,1.6292425392985344,-0.5857748123571276
1759645034542423600,6.806423583984375,-0.4890899233669042,1.5584604455888271,-0.6534029720805585
1759645034552381400,6.81638134765625,-0.18167466401159763,1.4817781879246235,-0.6544657790064812
1759645034562338600,6.826338623046875,0.0809296859756112,1.4409277066200972,-0.6056095397703349
1759645034572296700,6.836296630859375,0.28281331754028793,1.3392016085922718,-0.5544305566750467
1759645034582254600,6.846254638671875,0.37991672420352696,1.2564572744101286,-0.5024938870802521
1759645034592211500,6.85621142578125,0.3275871097683906,1.1643331174641847,-0.5056948750786483
1759645034602169600,6.866169677734375,0.2040259042903781,0.9870499664098024,-0.6036177814312279
1759645034612127500,6.87612744140625,0.13963497292250393,0.7479080328136682,-0.7538380073845387
1759645034622084600,6.886084716796875,0.13678162931799887,0.5244119966387748,-0.8109352746129036
1759645034632042800,6.896042724609375,0.1678980675935745,0.4256079235374927,-0.7542509720996021
1759645034642000400,6.90600048828125,0.2209086500301957,0.3951046487241983,-0.6875359816983342
1759645034651958500,6.91595849609375,0.2970937718272209,0.3532113803684711,-0.6048144438698887
1759645034661915600,6.92591552734375,0.36000907768458124,0.3529804942220449,-0.5071953427694738
1759645034671873500,6.93587353515625,0.3933060748696327,0.3833335469096899,-0.37705242081359025
1759645034681831700,6.945831787109375,0.441747157433629,0.4424234492599964,-0.2663333073824644
1759645034691788500,6.95578857421875,0.5330953615710139,0.5266787725269794,-0.14692571445256472
1759645034701746400,6.965746337890625,0.6990776586711406,0.5868330892384052,0.027681349260360002
1759645034711704600,6.97570458984375,0.8988172639444469,0.6723357822179794,0.20362068449035287
1759645034721662500,6.985662353515625,1.0874193891316652,0.7741518966168165,0.35453736827522514
1759645034731619600,6.99561962890625,1.2832003199070692,0.8527396956413984,0.3392712639518082
1759645034741577700,7.00557763671875,1.4179349535673855,0.9492705631136894,0.14651201908513903
1759645034751535600,7.01553564453125,1.4732573200777173,1.0855009882897138,-0.07838102440610528
1759645034761492500,7.025492431640625,1.5567024960055946,1.2296528541147709,-0.3013921996735036
1759645034771450600,7.03545068359375,1.6434280087783932,1.3648217875391244,-0.5375650543309748
1759645034781408500,7.045408447265625,1.7053306304618716,1.4612112007141111,-0.7604300991259515
1759645034791365600,7.05536572265625,1.7738810195967554,1.5034803166449069,-1.0102361962080002
1759645034801323800,7.06532373046875,1.8003417410209774,1.4945231032073496,-1.1901108250603079
1759645034811281400,7.075281494140625,1.7676684286922215,1.4058540551513432,-1.3209003743566572
1759645034821239600,7.085239501953125,1.6450895122498272,1.2746633777081966,-1.349244717570394
1759645034831196700,7.09519677734375,1.493463365021348,1.110712001913786,-1.2118680449686943
1759645034841154600,7.105154541015625,1.3536422218769788,0.8944821573495865,-0.9774344351939857
1759645034851112700,7.11511279296875,1.2587959464907645,0.6962105788022279,-0.7214194004692137
1759645034861069600,7.125069580078125,1.1189052452415227,0.4418687379866838,-0.47613428794294593
1759645034871027500,7.13502734375,0.92552786847651,0.14962182166874408,-0.27754399883523584
1759645034880985600,7.144985595703125,0.7449561972707509,-0.09653554364740848,-0.04886529932543635
1759645034890943500,7.154943603515625,0.671385349625349,-0.26036241627931594,0.15093319652825593
1759645034900900600,7.164900634765625,0.639807139056921,-0.47207098402678965,0.278760535018146
1759645034910858800,7.174858642578125,0.6440583667606115,-0.7014800436377525,0.3700295364394784
1759645034920816400,7.18481640625,0.7517793212890624,-0.9262731338858604,0.3548477493986487
1759645034930773500,7.1947734375,0.8973509907841682,-1.1416507455348968,0.2869835889622569
1759645034940731600,7.204731689453125,1.007412955480814,-1.292473175165057,0.17656798852235078
1759645034950689500,7.214689453125,1.0528399509206414,-1.4207587788164615,0.023518238231539725
1759645034960647700,7.224647705078125,1.0531345499530433,-1.5565648411005735,-0.06701017395555972
1759645034970604500,7.2346044921875,0.9671955113828181,-1.5832318987518548,-0.00774286921173334
1759645034980562400,7.2445625,0.8627841197937727,-1.5052958416342734,0.12807371446639298
1759645034990520600,7.2545205078125,0.8124895183175802,-1.3789526042222975,0.2761728566125035
1759645035000477400,7.2644775390625,0.7701517210647464,-1.2287427535325288,0.3908683263286948
1759645035010435600,7.274435546875,0.7587927071824669,-1.0111141480863093,0.4091016098946333
1759645035020393000,7.28439306640625,0.750700293880701,-0.8511778531521558,0.3223147223234176
1759645035030350000,7.29435009765625,0.7126344748586416,-0.7220897009462117,0.2026306505396962
1759645035040307700,7.3043076171875,0.6891705971628427,-0.6092068336099385,0.13105419158190487
1759645035050265900,7.314265869140625,0.6961965502768754,-0.49775487585961814,0.1291977500602603
1759645035060223000,7.324222900390625,0.7220213118851184,-0.3701350426405668,0.22099545153081415
1759645035070180900,7.334180908203125,0.8094009046524763,-0.24448387914597985,0.33563831427693364
1759645035080139000,7.344138916015625,0.8496686176329851,-0.1348947926580906,0.42633039259314537
1759645035090097000,7.354096923828125,0.8757271879971027,-0.001616203024983406,0.5067787247925997
1759645035100053800,7.3640537109375,0.8750847984403372,0.05642857418656349,0.4393444802060723
1759645035110012000,7.374011962890625,0.836798322404921,0.10049860205948352,0.34266689773947
1759645035119969800,7.3839697265625,0.7905202630937099,0.16337971338629723,0.17066197934895752
1759645035129927000,7.393927001953125,0.7243126376926898,0.19896131437718867,0.03201426389813423
1759645035139885000,7.403885009765625,0.6525374412924051,0.2659235575377941,-0.08336509642899036
1759645035149843000,7.413843017578125,0.6214046364039182,0.31626784337460995,-0.17123334949612617
1759645035159799800,7.4237998046875,0.6355708166614175,0.3025415158390999,-0.20358488252460955
1759645035169758000,7.433758056640625,0.684216774147749,0.28267069419920443,-0.27509558276981116
1759645035179715800,7.4437158203125,0.7418655377790332,0.21960604299902914,-0.3274728357389569
1759645035189674000,7.453674072265625,0.8262000637620687,0.1363286248534918,-0.39607290923446414
1759645035199630800,7.463630859375,0.8660401989802717,0.021483517533540726,-0.44611645855903626
1759645035209588700,7.473588623046875,0.8480687812209129,-0.10073357985913753,-0.4897112701356411
1759645035219547000,7.483546875,0.7557213369131088,-0.22620295704603194,-0.47166269548684353
1759645035229503700,7.493503662109375,0.6486252362847328,-0.26895430353581906,-0.32370179276764394
1759645035239462000,7.5034619140625,0.5762649334728718,-0.27655601071119307,-0.07449293092638254
1759645035249420000,7.513419921875,0.4576812241464853,-0.32963936612308026,0.1257297816887498
1759645035259376600,7.523376708984375,0.3630208267211914,-0.44065527054369447,0.2263654541313648
1759645035269334800,7.533334716796875,0.3001794628828764,-0.5564397045403718,0.2729027489006519
1759645035279293000,7.54329296875,0.33555998834371564,-0.6544792230099439,0.2735828401193023
1759645035289249800,7.553249755859375,0.3802519475072622,-0.6764356187522411,0.28125176731199025
1759645035299208000,7.5632080078125,0.373721084433794,-0.6575678366750478,0.2500523269280791
1759645035309166000,7.573166015625,0.3057365124881267,-0.676775225970149,0.2323763849839568
1759645035319124000,7.5831240234375,0.22237200058102607,-0.6596668547809124,0.23131460097134113
1759645035329080800,7.593080810546875,0.155302789914608,-0.6303834771513939,0.24136574712544678
1759645035339039000,7.6030390625,0.1288157650053501,-0.5252858568638563,0.2358835163220763
1759645035348996900,7.612996826171875,0.14327800559997558,-0.4620902727603912,0.23109043682664632
1759645035358954000,7.6229541015625,0.18698153824806213,-0.4078063093870878,0.19096563944816589
1759645035368912000,7.632911865234375,0.22810674484074114,-0.33514556232392784,0.1834708997786045
1759645035378869800,7.642869873046875,0.24440847582221029,-0.265049112790823,0.154105396823585
1759645035388827000,7.652826904296875,0.25031916117072106,-0.2547743870139122,0.06995616427958011
1759645035398784800,7.66278466796875,0.2671300107181072,-0.24973113214969633,-0.06650748513042927
1759645035408743000,7.672742919921875,0.37520460098981856,-0.2655669991850853,-0.1549099912047386
1759645035418700000,7.682699951171875,0.539921115937829,-0.21489421204626558,-0.22660598488897085
1759645035428657700,7.69265771484375,0.7005886477559804,-0.12640987290740013,-0.22587825513631105
1759645035438615800,7.70261572265625,0.7903250327825546,-0.05171323610246181,-0.21682050393372773
1759645035448573000,7.712572998046875,0.7805468583509325,-0.041819034075737,-0.20936580401360988
1759645035458530800,7.72253076171875,0.7164461421012878,-0.07931786686480045,-0.23679566273093222
1759645035468489000,7.732489013671875,0.5669114141941071,-0.09628127662539482,-0.26062252852022644
1759645035478445800,7.74244580078125,0.44708267324268813,-0.08470365155637263,-0.3033423108279705
1759645035488403700,7.75240380859375,0.38663025036752224,-0.06434826126992702,-0.33758944834470744
1759645035498361900,7.76236181640625,0.395565836495161,-0.03669102353751659,-0.3018374592229724
1759645035508319700,7.77231982421875,0.38899464141130446,-0.03710720312297344,-0.21861557065695522
1759645035518276900,7.78227685546875,0.3178635881334543,-0.041810850769281385,-0.13703998799324035
1759645035528235000,7.792235107421875,0.2268319025993347,-0.12027940732836723,-0.07917319769710301
1759645035538193000,7.80219287109375,0.12654255937635897,-0.17917349484562872,-0.0715142073765397
1759645035548149800,7.812149658203125,0.08734919762909411,-0.19085458028912544,-0.06952040321081876
1759645035558108000,7.82210791015625,0.11615092922151088,-0.18264906200170516,-0.010149345831573009
1759645035568065800,7.832065673828125,0.11595336082279681,-0.1775146217226982,0.059551090121269225
1759645035578023000,7.84202294921875,0.018849077376723287,-0.15176760152578353,0.14987871903926134
1759645035587981000,7.85198095703125,-0.10534574982970953,-0.1262017831146717,0.19486819984465836
1759645035597938700,7.861938720703125,-0.2285641332194209,-0.10934358729422092,0.23275018673241138
1759645035607895800,7.871895751953125,-0.2811442152842879,-0.06982347781062126,0.25328590202182527
1759645035617854000,7.88185400390625,-0.2924842322051525,-0.056444940799474715,0.23245851030945777
1759645035627811800,7.891811767578125,-0.2854617862224579,-0.053884734922647476,0.19058716152459382
1759645035637769000,7.90176904296875,-0.2701198401838541,-0.06320493645370007,0.11495996587127447
1759645035647726800,7.911726806640625,-0.2192187972471118,-0.0763613551467657,0.09081044399887322
1759645035657684700,7.921684814453125,-0.18460078059136867,-0.06366787779033184,0.10861848789006472
1759645035667641900,7.931641845703125,-0.19183248541057107,-0.03101473146677017,0.15468465801626444
1759645035677600000,7.94160009765625,-0.24932196682691574,-0.017068039178848266,0.19499445657283065
1759645035687558000,7.951557861328125,-0.3217249397367239,0.04601005602478981,0.20360095687657592
1759645035697514800,7.9615146484375,-0.31634207765460015,0.0651285979926586,0.14163666813373565
1759645035707473000,7.971472900390625,-0.31090777764618394,0.07781564560830592,0.09741612587422131
1759645035717430800,7.9814306640625,-0.26573826409876344,0.10983984637856482,0.03982113825678825
1759645035727388000,7.991387939453125,-0.21565993572175501,0.13797171588540078,-0.014018588480353355
1759645035737346000,8.001345947265625,-0.11106266617178916,0.19741408493518828,-0.09469488421678543
1759645035747304000,8.011303955078125,-0.05102671514302492,0.2644482242882252,-0.14972206717282532
1759645035757260800,8.0212607421875,-0.052602293896675104,0.3306640329957008,-0.2272314233109355
1759645035767219000,8.031218994140625,-0.06918167277574538,0.3262602450788021,-0.3012719342947006
1759645035777176800,8.0411767578125,-0.09265870221406221,0.2954062571316957,-0.31825287971198557
1759645035787134000,8.051134033203125,-0.09564180967807769,0.2446528059720993,-0.27934301108121873
1759645035797091800,8.061091796875,-0.125565238776803,0.20451310328543185,-0.17636778977513312
1759645035807050000,8.071050048828125,-0.15652005674988032,0.1522305428624153,-0.09105155927836894
1759645035817006800,8.0810068359375,-0.1629395684033632,0.07411796013414859,-0.008629004396498203
1759645035826964700,8.09096484375,-0.14937661473602057,-0.0033037177205085754,0.034437399391829965
1759645035836923000,8.1009228515625,-0.19244506435096262,-0.020805472141504286,0.08718290115147828
1759645035846880000,8.1108798828125,-0.21178250976651905,-0.06967676281630993,0.12730857531279324
1759645035856838000,8.120837890625,-0.20928893938511609,-0.10222761780917644,0.12249532981216907
1759645035866795800,8.130795654296875,-0.21274317149221897,-0.11023089152276515,0.13473200331181287
1759645035876753000,8.1407529296875,-0.24144728792905806,-0.13154197509884832,0.12319032633900642
1759645035886710800,8.150710693359375,-0.24666005414128303,-0.16764380057156086,0.0802072169199586
1759645035896669000,8.1606689453125,-0.17266221325546502,-0.12600363019406793,0.07775017915666103
1759645035906626000,8.1706259765625,-0.15485183127671479,-0.09342238006293774,0.07024462583214044
1759645035916583700,8.180583740234376,-0.14783961442708968,-0.07958499336838722,0.010953063429892062
1759645035926541800,8.190541748046876,-0.11805296345055102,-0.10348492439389229,-0.013630465945601463
1759645035936499000,8.2004990234375,-0.07632394574582577,-0.11885785009264946,-0.0137421096265316
1759645035946456800,8.210456787109376,-0.0541927779585123,-0.0933107363820076,0.044210605387389655
1759645035956415000,8.2204150390625,-0.04079962790012359,-0.044079964745044706,0.07310498369932174
1759645035966371800,8.230371826171876,-0.06881488528996706,-0.009116787913441657,0.09790303260833025
1759645035976329700,8.240329833984376,-0.14548077634125947,0.024753332984447478,0.10323270319849252
1759645035986287900,8.250287841796874,-0.21796558231562374,0.027239304581284523,0.15482903492301703
1759645035996245000,8.260244873046876,-0.2238829896658659,0.06970540438890457,0.21552257307767866
1759645036006203000,8.270202880859374,-0.17701368646323679,0.14340893850326536,0.24173604174256325
1759645036016161000,8.2801611328125,-0.0807055218309164,0.19561434203684328,0.20903671818971634
1759645036026118400,8.290118408203124,-0.0119186935916543,0.2236953581392765,0.1206619769051671
1759645036036076500,8.30007666015625,0.03881517608463764,0.2739882060497999,-0.014053367532789707
1759645036046034700,8.31003466796875,0.05415419951379299,0.1665355470687151,-0.14158406116366384
1759645036055991600,8.319991455078124,0.07830605947375296,0.12797346896231174,-0.2493029698655009
1759645036065949400,8.329949462890625,0.09801087689697742,0.09641571666002273,-0.23357085546553133
1759645036075907600,8.339907470703125,0.04947159465551376,0.08436579790413379,-0.1546601080968976
1759645036085864400,8.349864501953125,-0.010269172818958758,0.04560673592090606,-0.03615793957412243
1759645036095822600,8.359822509765625,-0.06739946553409099,0.02705810279548168,0.09189590114802122
1759645036105780500,8.369780517578125,-0.11007131704688071,-0.0179945063740015,0.168695355451107
1759645036115737300,8.3797373046875,-0.14175678738206623,-0.038863691401481625,0.21638649643063543
1759645036125695500,8.389695556640625,-0.1643292691960931,-0.035823008531332017,0.20355419512540102
1759645036135653400,8.3996533203125,-0.1413379774481058,-0.0549380433678627,0.10035656324028969
1759645036145610500,8.409610595703125,-0.07224953591376543,-0.08887129262983798,0.026318390344083308
1759645036155568600,8.419568603515625,0.007213876901566982,-0.1000116953253746,0.006091010351479053
1759645036165526500,8.429526611328125,0.08477788583636284,-0.10549100351929663,-0.010065466940402983
1759645036175483400,8.4394833984375,0.10375205089747905,-0.10266834731400012,0.07041472170203923
1759645036185441500,8.449441650390625,0.013919804280996323,-0.09201368230879306,0.12333821037709712
1759645036195399400,8.4593994140625,-0.0973147113263607,-0.08805062389671801,0.18620996935367584
1759645036205356500,8.4693564453125,-0.19508681103140116,-0.08516951550245284,0.202424022051692
1759645036215314700,8.479314697265625,-0.2694081847831607,-0.03338496772944927,0.2002130680039525
1759645036225272600,8.4892724609375,-0.283479087972641,0.0052080900371074676,0.19834961221963165
1759645036235229400,8.4992294921875,-0.19638298832178114,0.012155132696032524,0.16767536475360392
1759645036245187600,8.5091875,-0.062253334817290305,0.014272855502367019,0.11359890665113925
1759645036255145500,8.5191455078125,-0.012929039677977561,0.015895488268136977,0.09298311186283827
1759645036265102600,8.5291025390625,-0.058576692131161685,0.007761866173148155,0.04215834903270006
1759645036275060700,8.539060791015626,-0.1411293031334877,-0.00395662867128849,0.015364742392301558
1759645036285018400,8.549018310546876,-0.19683073208928106,0.04941781864166259,0.011455459994077682
1759645036294975500,8.5589755859375,-0.21022358988672493,0.060656421014666555,0.04533113384991884
1759645036304933600,8.56893359375,-0.16352935099005697,0.0889274067312479,0.08704904563874005
1759645036314891500,8.5788916015625,-0.13071429210305213,0.09301146117448807,0.12262070975750684
1759645036324848600,8.5888486328125,-0.07940028445124625,0.07973287740647793,0.1437865396440029
1759645036334806500,8.598806640625,-0.08080489055216312,0.08482990828454494,0.14621025965958834
1759645036344764400,8.608764404296876,-0.09031593848019838,0.09689677817523479,0.10761486380547285
1759645036354721500,8.618721435546876,-0.10151333205997944,0.06713175450861454,0.05157733476310968
1759645036364679700,8.6286796875,-0.13453472717404366,0.06969020681977271,-0.011211714366078375
1759645036374637600,8.638637451171874,-0.23530922356545925,0.07640636333227158,-0.07175064648091793
1759645036384594400,8.648594482421874,-0.2157213105201721,0.07710778959989548,-0.12669015115350485
1759645036394552600,8.658552490234374,-0.09479162258952856,0.11366437310278416,-0.11748451591283082
1759645036404510500,8.668510498046874,-0.008421206864714622,0.16906301971971988,-0.07306377490609883
1759645036414467600,8.678467529296874,-0.0009597849428653717,0.13904372903108597,-0.016812603113055227
1759645036424425700,8.68842578125,-0.011171090094745158,0.08048398803472519,0.033761984348297115
1759645036434383600,8.698383544921874,-0.06774257988333701,0.05599895059764385,0.07488426833152771
1759645036444340500,8.708340576171874,-0.1481698692947626,0.04352642251551151,0.06983750633597373
1759645036454298600,8.718298583984375,-0.19017828846275805,0.05828676927387714,0.08493658352941275
1759645036464256500,8.728256591796875,-0.16500293067395685,0.05370820931196212,0.07576134342700243
1759645036474213600,8.738213623046875,-0.19051848020255566,0.05537175861001015,0.048018180976808066
1759645036484171500,8.748171630859375,-0.19635405448824167,0.018335867157578466,0.014494389298558234
1759645036494129700,8.758129638671875,-0.11684212635606527,0.01794482201337814,0.03156009038984775
1759645036504086500,8.76808642578125,0.009032032239437103,0.021502806755900383,0.07648468926548957
1759645036514044400,8.77804443359375,0.1534025092512369,0.0008610007435083389,0.13515928881317377
1759645036524002600,8.78800244140625,0.16830431030690668,-0.01184592061638832,0.1559340735554695
1759645036533959700,8.797959716796875,0.08371025660485029,-0.03236906868517399,0.153322137491405
1759645036543917600,8.80791748046875,-0.03973755162656307,-0.04562836323082447,0.08689443959891796
1759645036553875500,8.81787548828125,-0.17854513381421566,-0.020282325050234792,0.008134498877823353
1759645036563832600,8.82783251953125,-0.2424351299226284,0.0009562778115272521,-0.09545739302188158
1759645036573790500,8.83779052734375,-0.1406926652818918,0.0648632250547409,-0.14562982942312955
1759645036583748600,8.84774853515625,-0.026793314379453658,0.03868307413756847,-0.17606003900021314
1759645036593705700,8.857705810546875,0.01706394752562046,0.02019581581056118,-0.10309913994669914
1759645036603663400,8.867663330078125,0.04338789082765579,-0.007318798580765723,-0.009718553198873997
1759645036613621500,8.87762158203125,0.046589024956524366,-0.04970715697705745,0.0579988922432065
1759645036623579400,8.887579345703125,0.018574352088570594,-0.0789671537309885,0.1021639049232006
1759645036633536500,8.89753662109375,-0.05929565405547618,-0.06710428197979927,0.1180129237011075
1759645036643494700,8.90749462890625,-0.09999649775624275,-0.030412089398503303,0.15030746584534643
1759645036653452500,8.91745263671875,-0.14628537072241304,0.001388239488005638,0.16114070228785277
1759645036663409400,8.927409423828125,-0.1333969553157687,-0.0017617489755153656,0.1506643164590001
1759645036673367600,8.937367431640626,-0.1287555592507124,-0.019816461104154585,0.13708587296158076
1759645036683325400,8.947325439453126,-0.10548340473473071,-0.017483634242415426,0.07444733821898698
1759645036693282600,8.957282470703126,-0.048342298364639276,-0.03766483700573444,0.010345452925562859
1759645036703240700,8.96724072265625,-0.040492461647093296,-0.05445639733076095,-0.033224808731675146
1759645036713198300,8.9771982421875,-0.049804772132635115,-0.031415713483095166,-0.0316191271007061
1759645036723155500,8.987155517578126,-0.040355975785851476,-0.042673020556569095,-0.03445873444080352
1759645036733113600,8.997113525390626,-0.028734803836047648,-0.037897476717829705,-0.02211450891345739
1759645036743071500,9.007071533203124,-0.03739946406781673,-0.017221183913946152,0.02313420735001564
1759645036753028600,9.017028564453126,-0.07170534603446721,-0.035384032592177386,0.029618893194198605
1759645036762986500,9.026986572265624,-0.063926820987463,-0.061867550370097155,0.034573300731182095
1759645036772944400,9.0369443359375,0.03299801423847675,-0.052589434415102,0.05243336707055568
1759645036782901500,9.046901611328124,0.06375818642228842,-0.02932254059612751,-0.0019084639698266981
1759645036792859600,9.056859619140624,-0.006396423038840294,-0.012755436676740646,-0.06298983239829539
1759645036802817500,9.066817626953124,-0.07574176194369793,0.009799509480595587,-0.10077449639141559
1759645036812774400,9.0767744140625,-0.06389408776164054,0.018515315377712248,-0.12887830884754656
1759645036822732500,9.086732666015624,-0.03731909230798482,0.04708323821425438,-0.1467062264829874
1759645036832690400,9.0966904296875,-0.03076426383703947,0.07026537635922432,-0.10919278064668178
1759645036842647600,9.1066474609375,-0.03171791130006313,0.11295300996303557,-0.048508010320365426
1759645036852605700,9.116605712890625,-0.028704700958728787,0.10657587614655493,0.016946458625793456
1759645036862563600,9.1265634765625,-0.0027907997623085974,0.0486070867806673,0.038759938766062256
1759645036872520400,9.1365205078125,0.010949848559498786,0.0035240824729204177,0.040887890705466265
1759645036882478600,9.146478515625,-0.07765431756675242,0.0050385786890983575,0.04986322432160377
1759645036892436500,9.1564365234375,-0.09767039289623498,-0.015507365733385086,0.013240005323290824
1759645036902394600,9.16639453125,-0.007765081043541431,-0.01649754581451416,-0.006471534101665019
1759645036912351500,9.1763515625,0.027183190479874608,0.007508183673024177,0.04481500102132559
1759645036922309600,9.1863095703125,0.008745616513490677,0.001755319234728813,0.043809915632009505
1759645036932267500,9.196267578125,-0.021895313204824924,-0.015806640940904615,0.0422045262619853
1759645036942224400,9.206224365234375,-0.07361614809185266,-0.01532499490380287,-0.006042202773690223
1759645036952182500,9.2161826171875,-0.042240474358201024,-0.008099719825387,-0.012835808436572551
1759645036962140700,9.226140625,-0.014427753803133964,-0.020917700344324112,-0.02525514502674341
1759645036972097500,9.23609765625,0.0002858312040567398,-0.020448329266905783,0.030827099940180777
1759645036982055400,9.246055419921875,-0.02724105814695358,-0.0031371289819478987,0.12226210557818412
1759645036992013600,9.256013671875,-0.08479132983982562,-0.01636369030177593,0.1613900008738041
1759645037001970400,9.265970458984375,-0.11930208672881126,-0.022993922096490857,0.1506885741174221
1759645037011928600,9.275928466796875,-0.15748685595542192,-0.021876900765299797,0.08255436456799507
1759645037021886000,9.285885986328125,-0.12114420746415853,-0.04690378999412059,0.02148848596960306
1759645037031843000,9.295843017578125,-0.06953004782199859,-0.016212883654236794,0.00944470469355583
1759645037041801000,9.305801025390625,-0.059664779628813266,-0.013075170150399208,0.015984043334424495
1759645037051758800,9.3157587890625,-0.0450607924759388,-0.035728315985202784,0.050363282798230644
1759645037061716000,9.325716064453125,-0.053661155299842354,-0.003970657196640968,0.11723813993632792
1759645037071673900,9.335673828125,-0.08600684310942888,-0.009158288967609405,0.13861381318122148
1759645037081632000,9.345632080078126,-0.10178659604340791,-0.03372282138168812,0.0856073223978281
1759645037091588900,9.3555888671875,-0.12309417248815298,-0.051182490226626395,0.07502338454127311
1759645037101546800,9.365546630859376,-0.08472177173495292,-0.025828268739581106,0.06558949350267648
1759645037111505000,9.3755048828125,-0.00670505059659481,-0.026168460479378697,0.05923311021327972
1759645037121462800,9.385462890625,0.02215337961912155,-0.03285831350684166,0.0674468118071556
1759645037131420000,9.395419921875,0.022147534400224683,-0.041860535129904744,0.06339432154595852
1759645037141378000,9.4053779296875,-0.006658581106364726,-0.04700608132481575,0.05276040706783533
1759645037151336000,9.4153359375,-0.019111235444247723,-0.022753099077939987,0.07008885074853896
1759645037161292800,9.425292724609376,-0.08866320283710956,-0.06731178725063801,0.011321604481339453
1759645037171251000,9.4352509765625,-0.14415391165167094,-0.11114625280201434,-0.04717880754321813
1759645037181208800,9.445208740234374,-0.09931260714530944,-0.08286649925708771,0.0003115501672029495
1759645037191166000,9.455166015625,-0.0185305129468441,-0.0256412217348814,0.09447627303004265
1759645037201123800,9.465123779296874,0.019781974312663077,-0.022431027516722678,0.18342618385404347
1759645037211082000,9.47508203125,0.028467385071516034,-0.055792614370584484,0.19631606056541204
1759645037221038800,9.485038818359374,-0.031948212924599644,-0.11064414849877356,0.14252309557944534
1759645037230996700,9.494996826171874,-0.0698041885882616,-0.10607143375575542,0.07486702493578196
1759645037240955000,9.504954833984375,-0.09530337150394916,-0.05866904658973217,0.05818769281357526
1759645037250912000,9.514912109375,-0.06090279699116945,-0.042945407757163045,0.005628361275792122
1759645037260870000,9.524869873046875,0.025011399398744104,-0.031844168028235434,0.01399140821248293
1759645037270827800,9.534827880859375,0.05296937364339828,0.0025268881291151046,0.032229367953538895
1759645037280786000,9.544785888671875,0.03509118712544441,0.05084931274950504,0.09739157595485448
1759645037290742800,9.55474267578125,0.0015989596292376516,0.0398579631358385,0.09517916060239076
1759645037300701000,9.564700927734375,-0.0795990218937397,0.0026128128468990326,0.04916325935870409
1759645037310658800,9.574658935546875,-0.1584244290664792,-0.01205985562801361,0.04741203177720308
1759645037320615700,9.58461572265625,-0.16801643327623605,0.022621581652760504,0.0901993263632059
1759645037330573800,9.59457373046875,-0.06663929481655359,0.05910977609455585,0.12089373983442783
1759645037340531700,9.60453173828125,0.025766601680219173,0.1031792194455862,0.1439963830024004
1759645037350488800,9.61448876953125,0.06097498544454574,0.08871873241662978,0.09976561160981655
1759645037360447000,9.624447021484375,0.011326865178346633,0.05823474682569504,0.004404664699733257
1759645037370404900,9.63440478515625,-0.014607202023267745,0.014590835410356521,-0.07079115379899739
1759645037380361700,9.64436181640625,0.003922726401686668,-0.03891454480588436,-0.05678162540793419
1759645037390319900,9.65431982421875,-0.03043956192731857,0.043479076242446894,0.02270838315337896
1759645037400277800,9.66427783203125,-0.03148556384891271,-0.02654430805444717,-0.0260921803727746
1759645037410236000,9.67423583984375,-0.01828998218923807,-0.043754970574378965,0.032010464505851266
1759645037420193000,9.684193115234375,-0.04316752607524395,-0.0003998129725456238,0.07886427787840367
1759645037430151000,9.69415087890625,-0.06474193676263093,-0.033362171375751495,0.07835574383437634
1759645037440108800,9.70410888671875,-0.0597460281714797,-0.021620880177617072,0.1105336738616228
1759645037450066000,9.71406591796875,-0.07401859141290187,-0.0024538228929042814,0.12224252409487962
1759645037460023800,9.72402392578125,-0.10063158078938722,-0.00029109190106391906,0.09690876087397336
1759645037469982000,9.73398193359375,-0.06512246051281691,-0.009451134434342383,0.058818976454436775
1759645037479939000,9.74393896484375,-0.045698798118531704,-0.024026772275567054,-0.02249064874947071
1759645037489896700,9.753896728515626,-0.05410977585017681,-0.06861994723975658,-0.062108081127703184
1759645037499854800,9.763854736328126,-0.0789253604158759,0.03939268371164799,-0.07352876206934451
1759645037509812000,9.77381201171875,-0.17379443215578794,0.012057517540454863,-0.06669277856945992
1759645037519769900,9.783769775390626,-0.10482406404316424,-0.007977554750442505,-0.0651852966159582
1759645037529728000,9.79372802734375,-0.02219780328273773,-0.0487900421321392,0.011931553073227404
1759645037539684900,9.803684814453124,-0.000602057546377182,-0.015240239229798317,0.05415770664513111
1759645037549642800,9.813642822265624,-0.01709434266388416,-0.011736030501127242,0.019836919370293617
1759645037559601000,9.823600830078124,-0.01946545570939779,-0.03595569500029087,-0.024875790320336818
1759645037569558800,9.833558837890624,-0.02242693586349487,-0.09742869309484958,-0.0029340076252818105
1759645037579516000,9.843515869140624,-0.11293810465484858,-0.05051204361915588,0.07006488535106181
1759645037589474000,9.85347412109375,-0.13957915108203886,0.005803717842698097,0.08413754210621117
1759645037599431700,9.863431640625,-0.18790449831187725,-0.01739069526195526,0.14822627565711735
1759645037609388800,9.873388916015625,0.0033346973806619644,0.09836042098700999,0.05472410835623741
1759645037619347000,9.883346923828125,0.25055004731714725,0.06220715758800506,-0.05041033681035041
1759645037629304800,9.893304931640625,0.16939152102172375,-0.02902268086671829,-0.15357318964302538
1759645037639262000,9.903261962890625,-0.10710925237089394,-0.035140871486067767,-0.2355506311058998
1759645037649220000,9.91322021484375,-0.3993824721738696,0.004911152917146683,-0.1294523093432188
1759645037659177700,9.923177734375,-0.40671822188943624,0.07541676777303219,0.04716536353975534
1759645037669134800,9.933134765625,-0.1391445590570569,0.1154091709434986,0.22174188598394393
1759645037679093000,9.943093017578125,0.28767595514059063,0.0876332752674818,0.32399025432020423
1759645037689051000,9.95305078125,0.4957075879409909,0.005997779110074043,0.3830868786722421
1759645037699009000,9.963009033203125,0.31822716074883933,-0.022828502401709555,0.29522827021628617
1759645037708966000,9.9729658203125,0.07415449275225401,-0.14104337841570377,0.11833704108893871
1759645037718923800,9.982923828125,-0.07367138541042804,-0.1522299583405256,-0.1059092289313674
1759645037728882000,9.9928818359375,-0.19017068967819212,-0.12447978162765502,-0.17721710008084773
1759645037738838800,10.0028388671875,-0.2057084505498409,-0.005396890607476234,-0.05164484704136848
1759645037748797000,10.012796875,-0.17148060225546358,0.08574000886678695,0.1048784245789051
1759645037758755000,10.022755126953125,-0.08536269998699426,0.07352116328477859,0.1990817258864641
1759645037768711700,10.032711669921875,-0.057306818325817584,0.04147650424838066,0.26527503050118684
1759645037778669800,10.042669921875,0.003144435505568981,-0.012787000858783721,0.2567202603846788
1759645037788628000,10.0526279296875,0.026687223656475544,-0.05918927107155323,0.18832155468016862
1759645037798585900,10.0625859375,0.01021510454416275,-0.08314823880791664,0.08173720296621322
1759645037808543000,10.07254296875,-0.03814414495527744,-0.08395721710324287,0.1309995387852192
1759645037818500900,10.0825009765625,-0.013875965139269829,-0.003362169909477234,0.13426058640778063
1759645037828458800,10.092458740234376,0.005270926140248775,-0.024234862068295476,0.13110475272536276
1759645037838416000,10.102415771484376,-0.007781155395507812,0.00890928264260292,0.1715124586984515
1759645037848374000,10.1123740234375,-0.0983233038470149,-0.016705051085352897,0.2248079955562949
1759645037858332000,10.122331787109376,-0.16497545814514158,0.05725976431369781,0.2872185667619109
1759645037868288800,10.132288818359376,-0.16907412563562393,-0.014085223975777625,0.27840485344827176
1759645037878247000,10.142246826171874,-0.14278028521090744,0.02292319494783878,0.30935178037583827
1759645037888204800,10.152204833984374,-0.07430266905128956,0.11130582727789878,0.3329468832358718
1759645037898162000,10.162161865234374,-0.0054833998471498484,0.08930851500332355,0.23093933791816232
1759645037908119800,10.172119873046874,0.014112111982703209,0.12114625329077243,0.11865385195314883
1759645037918078000,10.182077880859374,0.0423895274400711,0.08776303912699222,-0.009093699298799038
1759645037928036000,10.1920361328125,0.023725158980488777,-0.015928806015849114,-0.22852350894808768
1759645037937992700,10.20199267578125,-0.05232289243340492,-0.0541360793352127,-0.29778759931027887
1759645037947950800,10.211950927734375,-0.11709288624674082,-0.002013093388080597,-0.26905542582273484
1759645037957909000,10.221908935546875,-0.15042583152800798,-0.014610124632716178,-0.26300679330825805
1759645037967865900,10.231865966796875,-0.14438976623415947,-0.06709785223901271,-0.23630174173414706
1759645037977824000,10.241823974609375,0.011188333490490913,-0.05240297193229198,-0.10497925460487603
1759645037987782000,10.251781982421875,0.13508710035979746,0.012570143237709998,0.06458177776485681
1759645037997738800,10.26173876953125,0.08735095119476317,-0.0005769231051206588,0.15306845499128102
1759645038007697000,10.27169677734375,0.0973497826397419,-0.1110696804344654,0.1322775958970189
1759645038017654800,10.28165478515625,0.21450375142395495,-0.11452712741196155,0.12325287018120289
1759645038027613200,10.29161328125,0.16301321816146372,-0.03323825273513794,0.10722557222694158
1759645038037570300,10.3015703125,-0.011964578559994696,-0.009572130465507507,0.03691372637748718
1759645038047528000,10.31152783203125,-0.15375906760394573,0.021295301485061643,-0.022866788585484025
1759645038057486000,10.321486083984375,-0.2653267606884241,-0.0030786767929792402,-0.05915741462856531
1759645038067443200,10.331443115234375,-0.28534897349774835,-0.03912497268617153,-0.07743512185811996
1759645038077401000,10.341401123046875,-0.1968470987021923,-0.038057051193714136,-0.08864917431175708
1759645038087359200,10.351359130859375,-0.03989040410071611,-0.0865700299501419,-0.09261953924745321
1759645038097316000,10.361316162109375,0.0712894587099552,-0.04441080413460731,-0.0387798125103116
1759645038107274000,10.37127392578125,0.07944237002730369,0.0025502690047025677,0.024862054055929183
1759645038117232000,10.381232177734375,0.012834347131848334,0.02998480389714241,0.10928455058336257
1759645038127190000,10.39118994140625,-0.07739303628206252,0.04279167850017547,0.12548399023413656
1759645038137147100,10.401147216796875,-0.10409341168105601,0.039514264264702795,0.1257455637797713
1759645038147105300,10.411105224609376,-0.0745838240802288,-0.006736614778637886,0.11159954952746629
1759645038157063000,10.42106298828125,-0.056632572326064105,-0.025711948883533477,0.07604366749972105
1759645038167020000,10.43102001953125,-0.13459960910379887,-0.010568740287423134,0.04018675669878721
1759645038176978200,10.440978271484376,-0.15530395895838736,-0.027880525094270706,0.010769231295585631
1759645038186936000,10.45093603515625,-0.12197189045995473,-0.008767828345298767,-0.001755319234728813
1759645038196893200,10.46089306640625,-0.02082885301709175,-0.02846680054962635,-0.018299042278528212
1759645038206851000,10.47085107421875,0.0668371554762125,-0.051501054656505584,-0.04895195469558239
1759645038216809000,10.48080908203125,0.10230828182995319,-0.07378127552568912,-0.05216448700129986
1759645038226766000,10.49076611328125,0.06697802525162697,-0.02652268074452877,-0.0285386967420578
1759645038236724200,10.50072412109375,0.012763035461306572,-0.01557166314125061,-0.00916062705516815
1759645038246682000,10.51068212890625,-0.004971358671784401,-0.08308043426871299,0.017005787597596644
1759645038256640300,10.52064013671875,0.00301028773188591,-0.1225116964250803,0.05008388133496046
1759645038266597000,10.53059716796875,0.014639350727200507,-0.15278116248250007,0.09307283597290515
1759645038276555000,10.540554931640624,0.030967969715595244,-0.18245383169054985,0.11366320405900478
1759645038286513200,10.55051318359375,0.06422025097608566,-0.11163725118935107,0.13449497968554497
1759645038296470300,10.56047021484375,0.015042670831084251,-0.04586392555236816,0.027156886994838713
1759645038306428200,10.57042822265625,-0.022405893075466154,-0.028773674541711806,-0.06090893447101116
1759645038316386300,10.58038623046875,-0.022375205676257608,0.022335165926814077,-0.10364011495560407
1759645038326343200,10.59034326171875,-0.069111530148983,0.024245967984199524,-0.10414514186829328
1759645038336301000,10.600301025390625,-0.09888941329717635,0.027466099074482917,-0.059415773303806776
1759645038346259200,10.61025927734375,-0.06632862143218517,0.03281681245267391,0.01414689103513956
1759645038356217000,10.620217041015625,-0.012952128292620182,0.012346855875849723,0.08084259221404791
1759645038366174200,10.63017431640625,-0.009030278673768042,-0.0254015677601099,0.11762597021013498
1759645038376132000,10.640132080078125,0.0045823593541979785,-0.03973462901711464,0.127624217133224
1759645038386090000,10.650090087890625,0.05755991630405187,-0.03586334054172039,0.08666852188855409
1759645038396047000,10.660047119140625,0.07630114939212798,-0.06326981838345527,0.0389323727235198
1759645038406005200,10.670005126953125,-0.006117606097459793,-0.06701660369634628,-0.007292787356674671
1759645038415963100,10.679963134765625,-0.040352176393568515,-0.033633974054455756,-0.02625993815511465
1759645038425921300,10.68992138671875,-0.024709493842720982,-0.042379590567946435,-0.00402940164655447
1759645038435878100,10.699878173828125,-0.037650808480381964,-0.01841068595945835,0.04131429942399263
1759645038445836000,10.7098359375,0.013684826481342316,-0.01634673916697502,0.0727042939439416
1759645038455794200,10.719794189453125,0.02093640504479408,-0.026612697115540502,0.08205722870081662
1759645038465751300,10.729751220703125,0.04524608591496944,-0.04072364005446434,0.07346095753014087
1759645038475709200,10.739709228515625,0.04704115263819694,-0.0337497093886137,0.04752513676285743
1759645038485667300,10.749667236328126,0.048662616360187524,-0.05722410847842693,0.00031388825476169586
1759645038495624200,10.759624267578126,0.007221183425188064,-0.05863982049524784,-0.025022213053703307
1759645038505582000,10.76958203125,0.012695815443992614,-0.013859598526358603,-0.04206511779129505
1759645038515540200,10.779540283203126,-0.032223522734642025,-0.04754150337576866,-0.04743628943562507
1759645038525498000,10.789498046875,-0.012608721682429313,-0.036460721912980075,0.031715280951559545
1759645038535455200,10.799455322265626,-0.002746083837747574,-0.02771393635571003,0.08297668163329362
1759645038545413000,10.8094130859375,-0.054665071645379065,-0.04701601819694042,0.08647884453535079
1759645038555371000,10.81937109375,-0.06627192280888557,-0.0568552751660347,0.07726005755215883
1759645038565328100,10.829328125,-0.00805354259610176,-0.03996551516354084,0.05791764370054006
1759645038575285200,10.83928515625,-0.013498363998532294,-0.024137831434607505,0.06858984436243772
1759645038585243100,10.8492431640625,-0.011274550469219683,-0.04685352111160755,0.06247194600403309
1759645038595201000,10.859200927734374,0.012809212690591812,-0.07007131509184837,0.041650107249617575
1759645038605158100,10.869158203125,0.01274871467500925,-0.047509354671835896,0.042322307422757145
1759645038615116000,10.879115966796874,-0.03069850512444973,-0.008908698120713234,-0.008816635923087596
1759645038625074200,10.88907421875,-0.04130173220336437,-0.005785013142228126,-0.03091711631119251
1759645038635031300,10.89903125,0.05788578725755214,0.032740824607014656,-0.06394318760037422
1759645038644989000,10.908989013671874,0.05559270788431167,-0.016923077750205993,-0.08016483908295631
1759645038654947000,10.918947021484374,0.0018155249893665312,-0.06308335590064525,-0.0009381576329469681
1759645038664904200,10.928904296875,-0.029307927548885344,-0.04975625681579113,0.09018442105501889
1759645038674862000,10.938862060546874,-0.03747048347741365,0.004605447968840598,0.13640870435237884
1759645038684820200,10.9488203125,-0.09034487231373786,0.017018354818224907,0.10929068806320429
1759645038694778000,10.958778076171875,-0.157318805912137,0.04757306755781173,0.04342003953158855
1759645038704735000,10.96873486328125,-0.1619970268562436,0.03688274671733379,0.08380962532609701
1759645038714693000,10.978693115234375,-0.031975685453414913,0.03254091812074184,0.11343261017352342
1759645038724651000,10.988651123046875,0.015232055923342704,-0.025000001221895215,0.14305705632567406
1759645038734608100,10.998608154296875,0.07368015323877335,-0.05408113427758217,0.16257658030986785
1759645038744566300,11.008566162109375,0.0951449660718441,-0.07814999212920665,0.07085223633646964
1759645038754524200,11.018524169921875,0.11669131970852613,-0.08610065887272357,0.01071048684567213
1759645038764482000,11.02848193359375,0.00840600929558277,-0.07541910586059093,-0.034893910987675185
1759645038774439200,11.038439208984375,-0.09022855245769024,-0.05276128385066986,-0.05041647429019212
1759645038784397000,11.04839697265625,-0.11222703377604484,-0.03793137898743153,-0.03204144416600466
1759645038794355200,11.058355224609375,-0.09998188470900059,-0.009913491249084472,0.029594051013886926
1759645038804312300,11.068312255859375,-0.0514957939594984,0.007285480833053588,0.07732230913341046
1759645038814270000,11.07827001953125,-0.0002513444125652313,-0.010409750333428383,0.09667261403053998
1759645038824228000,11.08822802734375,0.012374912926554679,-0.035331425622105596,0.051640755388140676
1759645038834185200,11.098185302734375,0.039344168394804,-0.039867315486073494,0.05937573355436325
1759645038844143000,11.10814306640625,0.009727613288164138,-0.005139700976014137,0.07194587679207325
1759645038854101200,11.118101318359376,-0.08394435762166977,0.001581131711602211,0.04140139318555593
1759645038864059100,11.12805908203125,-0.1742126575678587,-0.010539514192938804,0.03253565742373466
1759645038874016000,11.13801611328125,-0.14014789088070392,0.017463175976276397,0.01991641434729099
1759645038883974100,11.14797412109375,-0.01919452981352806,0.024175240835547444,-0.020475217273831368
1759645038893932000,11.15793212890625,0.046562136949598786,-0.005702011033892631,-0.007954466135799884
1759645038903889200,11.16788916015625,0.046047465425729746,0.009634674307703971,0.044489714589715
1759645038913847300,11.177847412109376,0.034898294901847836,-0.01172434006333351,0.009159750272333622
1759645038923805200,11.18780517578125,-0.007460252878069877,-0.044403789871931075,-0.006465104360878467
1759645038933762000,11.197761962890626,-0.04883972649276256,-0.01978665048778057,0.03299889102131128
1759645038943720200,11.20772021484375,-0.09041793754994869,-0.004074117571115494,0.0723418903723359
1759645038953678000,11.217677978515624,-0.04663344862014055,-0.03126899848878383,0.11677987477481365
1759645038963636200,11.22763623046875,-0.031548984473943706,-0.042350364473462104,0.10758242284059524
1759645038973593300,11.23759326171875,-0.0040378772139549254,-0.03169394590258598,0.07979863611906766
1759645038983551000,11.247551025390624,0.05052256501317024,-0.021091887867450712,0.021587562429904936
1759645038993509000,11.257509033203124,-0.0047714521855115885,-0.07146247718930245,-0.02039718360155821
1759645039003466200,11.26746630859375,-0.054036710613965984,-0.04007072910368442,0.038650340911746024
1759645039013424000,11.277424072265624,-0.029642858591675758,-0.013456862944364547,0.05257014519274234
1759645039023382500,11.287382568359375,0.032713352078199386,-0.010885551151633262,0.045105508400499816
1759645039033339400,11.29733935546875,0.062194590367376804,0.009633505263924598,0.01253916357755661
1759645039043297500,11.307297607421875,0.05602116242945194,-0.005881459254026412,0.022704583761096
1759645039053255700,11.317255615234375,-0.019621230792999267,-0.014539982005953788,0.03782558052539825
1759645039063213600,11.327213623046875,-0.10919044255912304,-0.005500935503840446,0.06442541815936564
1759645039073170400,11.33717041015625,-0.12759995947480202,-0.021096564042568204,0.08902648319154978
1759645039083128600,11.347128662109375,-0.07058043365776538,-0.01868950290083885,0.08593553143888712
1759645039093086500,11.35708642578125,0.026289164249598977,0.0080126260638237,0.12482961797863244
1759645039103043600,11.367043701171875,-0.049105099430680275,-0.00457622187435627,0.036330081270635126
1759645039113001500,11.37700146484375,-0.147178812430799,-0.06083996088802814,0.04292202688157558
1759645039122959600,11.386959716796875,-0.11539952633231877,-0.04776479073762893,0.09467033429741858
1759645039132916500,11.39691650390625,-0.03920154505372047,-0.04604103568494319,0.07129939558207989
1759645039142874400,11.406874267578125,-0.0202121824234724,-0.063085693988204,0.0053653264254331584
1759645039152832500,11.41683251953125,0.057522214642167085,-0.031759996876120564,-0.00416881011724472
1759645039162790700,11.426790771484375,0.14847791233062743,-0.020254267999529837,0.008347849367558956
1759645039172747500,11.43674755859375,0.1851139908105135,0.00313011471927166,-0.015610826107859611
1759645039182705400,11.446705322265625,0.08965747457146644,0.020637714359164238,-0.040239363668859
1759645039192663600,11.45666357421875,-0.0058890580385923385,-0.0035813656181097027,-0.061736032944917675
1759645039202620400,11.466620361328125,-0.039887189230322834,-0.012314122650027274,-0.06957856313884257
1759645039212578600,11.47657861328125,-0.04256050009280443,-0.039671500653028484,-0.015521686519682406
1759645039222536400,11.486536376953126,-0.0680921239733696,-0.016480010157823563,0.03850187235176563
1759645039232493300,11.496493408203126,-0.059798050619661806,-0.01549275268614292,0.06969371395111083
1759645039242451500,11.506451416015626,0.0015048516049981117,-0.008050619986653327,0.07642448351085186
1759645039252409300,11.516409423828126,0.07434095523506402,0.007939560827612876,0.07703092497140168
1759645039262366500,11.526366455078126,0.05673778626620769,0.0014472761988639832,0.09248860634416341
1759645039272324600,11.53632470703125,-0.06096212596297264,0.002588262927532196,0.04919248545318842
1759645039282282500,11.546282470703124,-0.1359580379754305,0.0248351660490036,0.030858956383168695
1759645039292240400,11.556240478515624,-0.1909130324780941,-0.0010673369705677031,-0.05219575892239809
1759645039302197500,11.566197509765624,-0.12495207531452178,-0.06314297713339329,-0.0014575053319334983
1759645039312155400,11.5761552734375,-0.07449322318732739,0.045808395972847936,0.09333265595287084
1759645039322113500,11.586113525390624,0.007567804905772209,0.011503975310921668,0.020279694701731205
1759645039332070700,11.596070556640624,0.15453881980478762,-0.07226736383140087,0.004908814829587936
1759645039342028300,11.6060283203125,0.1110702649563551,-0.05967617780566215,0.04503010507673025
1759645039351986400,11.615986328125,0.02144143195748329,-0.051723172974586486,0.032605215528607366
1759645039361943600,11.625943603515625,-0.00958382090330124,-0.03694119890630245,-0.01578121423870325
1759645039371901400,11.6359013671875,-0.0229267020791769,-0.029112697237730023,-0.012617781771719455
1759645039381859600,11.645859619140625,-0.06455255167037248,-0.03471884668171406,0.009230769681930541
1759645039391816700,11.655816650390625,-0.11830752273350953,-0.03884907835423946,0.015035072046518326
1759645039401774300,11.6657744140625,-0.08343407001197338,-0.04093815958797931,0.044371933428943154
1759645039411732500,11.675732421875,-0.00509293922483921,-0.03584931201636791,0.08769991076290606
1759645039421690400,11.6856904296875,0.08964461508989334,-0.044507834768295285,0.12681406979411838
1759645039431647500,11.6956474609375,0.10692892736792564,-0.03890343888998032,0.10727964050173759
1759645039441605600,11.705605712890625,-0.017635609933733937,-0.04800386019051075,0.08777999026179313
1759645039451563500,11.7155634765625,-0.1307253980189562,0.00400280590057373,0.11126987918168306
1759645039461520400,11.725520263671875,-0.12359130835533141,-0.017556114956736563,0.10173545037806034
1759645039471478500,11.735478515625,-0.060923547518253324,-0.008619359785318375,0.0783697723597288
1759645039481436400,11.7454365234375,0.01615676955282688,-0.025190555357933044,0.037605508033931256
1759645039491393500,11.7553935546875,0.03608896599113941,-0.030721301478147504,0.0009407879814505577
1759645039501351700,11.7653515625,-0.02238777289688587,0.0019867899030447003,-0.03574175998866558
1759645039511309300,11.775309326171875,-0.03339695042818785,-0.006170213067531585,-0.068749711099267
1759645039521266400,11.785266357421875,0.016340893948078153,-0.0123217214345932,-0.0447685315310955
1759645039531224600,11.795224609375,0.0812672473669052,-0.059735214516520495,0.007326105104386806
1759645039541182500,11.805182373046875,0.00613338818848133,-0.06831891846656798,0.06706015057712793
1759645039551139600,11.8151396484375,-0.11619067671000957,-0.05156476754248142,0.0873395530179143
1759645039561097500,11.825097412109375,-0.11775602633059024,-0.05770400094985961,0.0971837784230709
1759645039571055400,11.835055419921876,-0.0591904401153326,-0.062166825577616686,0.10557926632463932
1759645039581012500,11.845012451171876,0.0010725976675748825,-0.06311024390757083,0.09460808271616697
1759645039590970600,11.854970703125,0.02499415600299835,-0.046745969083905214,0.073102645611763
1759645039600928500,11.864928466796876,0.012058686584234236,-0.02254033311009407,0.06133709675520658
1759645039610885400,11.874885498046876,-0.008116670960187911,-0.023536942932009697,0.04193739975839853
1759645039620843500,11.884843505859376,-0.03197159380018711,0.03321194925010204,-0.003705576519668102
1759645039630801400,11.894801513671876,-0.0276475931212306,0.013618190985918044,-0.020099369698762894
1759645039640759600,11.904759521484374,0.018747370567917823,-0.009216156634688376,0.0013519991308450698
1759645039650716400,11.91471630859375,0.04543605552911758,0.00877425808608532,0.051420975157618516
1759645039660674600,11.924674560546874,0.057789341145753854,0.006709142249822616,0.11856675819158553
1759645039670632700,11.9346328125,0.00013677812218666077,-0.035841713231801985,0.14457330610752106
1759645039680589300,11.94458935546875,-0.11035013398826121,-0.01071136362850666,0.17301467995494604
1759645039690547500,11.95454736328125,-0.14006664233803748,0.029355273821949957,0.1287251641124487
1759645039700505600,11.964505615234375,-0.046510699023306366,0.0010100538253784179,0.07012246075719594
1759645039710462500,11.97446240234375,-0.0022270283997058867,0.026646599385142324,0.056928048141300674
1759645039720420600,11.984420654296875,-0.02426701077222824,-0.01627308940887451,-0.016768763971328735
1759645039730378500,11.99437841796875,0.019954992792010306,-0.10052198293507099,-0.0806096602410078
1759645039740335400,12.00433544921875,-0.025626024165749547,-0.04600830245912075,-0.18265169235020876
1759645039750293500,12.01429345703125,0.017609890970587728,-0.06379471904039383,-0.25119272913485763
1759645039760251600,12.024251708984375,0.08981412643790244,-0.08203297104239464,-0.18459259728491306
1759645039770208500,12.03420849609375,0.10955372291356325,-0.0462280826896429,-0.05583177733719349
1759645039780166400,12.04416650390625,0.034598727433383464,-0.021175474497675893,0.07789221797585487
1759645039790124500,12.05412451171875,0.008692132760584354,-0.04163432515859604,0.148646546895802
1759645039800081400,12.064081298828125,0.055901043181121345,-0.022539748588204383,0.1730658256202936
1759645039810039600,12.07403955078125,0.07778086655586958,-0.006387070688605308,0.0880213978022337
1759645039819997400,12.08399755859375,0.012762450939416884,-0.03526771273612976,-0.012097557289898395
1759645039829954300,12.093954345703125,-0.006967500925064087,-0.03633446518480778,-0.05799567737281322
1759645039839912400,12.103912353515625,0.0016179565906524658,-0.06897825915813445,-0.08911883765012026
