time,seconds_elapsed,z,y,x
1758278477850615600,234.21261547851563,-2.6431808471679688,-1.9271990060806277,0.3162086606025696
1758278477860699400,234.22269946289063,-2.5975053310394287,-2.3703410625457764,0.2433725595474243
1758278477870783200,234.232783203125,-2.550379753112793,-2.86657190322876,0.1591209024190902
1758278477880867600,234.24286767578124,-2.513166666030884,-3.3701987266540527,0.062778390944004
1758278477890952400,234.25295239257807,-2.473475456237793,-3.8436803817749023,-0.0442494228482246
1758278477901036500,234.26303662109376,-2.4341390132904053,-4.251325607299805,-0.1553170830011367
1758278477911120400,234.27312036132813,-2.3998055458068848,-4.579298973083496,-0.2555106580257416
1758278477921204200,234.28320434570315,-2.3654677867889404,-4.805502414703369,-0.3349913656711578
1758278477931288600,234.2932885742188,-2.3416378498077397,-4.873510360717773,-0.3890323340892792
1758278477941372400,234.30337231445316,-2.332533121109009,-4.726512432098389,-0.4201143682003021
1758278477951456300,234.31345629882813,-2.3192992210388184,-4.341849327087402,-0.4090520739555359
1758278477961540400,234.32354028320316,-2.255305528640747,-3.7395756244659424,-0.3509578704833984
1758278477971624400,234.33362451171877,-2.0763347148895264,-3.007514953613281,-0.2423643767833709
1758278477981708300,234.34370825195316,-1.7931965589523315,-2.229055166244507,-0.1075666099786758
1758278477991793400,234.3537934570313,-1.453665018081665,-1.4461973905563354,0.0090252049267292
1758278478001877200,234.3638771972656,-1.1062713861465454,-0.7054422497749329,0.0824078097939491
1758278478011961300,234.3739614257813,-0.7777553200721741,-0.0408150553703308,0.111846886575222
1758278478022045400,234.38404541015623,-0.450869083404541,0.5076480507850647,0.0965704619884491
1758278478032129300,234.3941293945313,-0.1154054328799247,0.9401443600654602,0.0592890232801437
1758278478042213400,234.40421337890623,0.2168564051389694,1.2334742546081543,0.0153138423338532
1758278478052297500,234.4142973632813,0.5180132389068604,1.3826199769973757,-0.0092690214514732
1758278478062381600,234.42438159179687,0.7626144289970398,1.4633995294570925,-0.0006459719152189
1758278478072465400,234.43446533203124,0.9598856568336488,1.5408904552459717,0.0412830784916877
1758278478082549200,234.44454931640624,1.137762427330017,1.6059540510177612,0.1017916947603225
1758278478092634400,234.45463427734376,1.3295583724975586,1.6398717164993286,0.1815357357263565
1758278478102718500,234.46471850585937,1.538200855255127,1.648289442062378,0.2493954747915268
1758278478112802600,234.4748024902344,1.7395665645599363,1.6532105207443235,0.2890735268592834
1758278478122886400,234.48488647460937,1.9078117609024048,1.6539719104766846,0.3036916255950928
1758278478132970200,234.49497021484376,2.04669189453125,1.6347845792770386,0.2982911169528961
1758278478143054600,234.5050546875,2.1736719608306885,1.5714819431304932,0.2834061682224273
1758278478153138400,234.5151384277344,2.2928988933563232,1.4482611417770386,0.254399687051773
1758278478163222300,234.5252221679688,2.418031692504883,1.281711220741272,0.225328117609024
1758278478173306400,234.5353063964844,2.5404884815216064,1.090968370437622,0.2216086834669113
1758278478183390500,234.54539038085937,2.6735994815826416,0.917259395122528,0.2593315541744232
1758278478193474300,234.5554743652344,2.808886766433716,0.7779444456100464,0.3205922245979309
1758278478203559400,234.56555932617184,2.927152633666992,0.6971406936645508,0.4060882329940796
1758278478213643300,234.57564331054687,3.0129234790802,0.6846873164176941,0.4897581338882446
1758278478223727400,234.58572729492187,3.043505907058716,0.7442324161529541,0.5638299584388733
1758278478233811500,234.5958115234375,3.006209135055542,0.8424139022827148,0.5754740834236145
1758278478243895300,234.60589526367187,2.9155755043029785,0.924522876739502,0.5720282196998596
1758278478253979400,234.6159794921875,2.8060905933380127,1.0134856700897217,0.5793648958206177
1758278478264063200,234.62606323242187,2.6982853412628174,1.095515489578247,0.5982717275619507
1758278478274147600,234.6361477050781,2.601222515106201,1.1690495014190674,0.6094827651977539
1758278478284231400,234.6462314453125,2.5208754539489746,1.2927101850509644,0.6318261623382568
1758278478294315300,234.65631518554687,2.469800472259521,1.4495506286621094,0.657884418964386
1758278478304400400,234.666400390625,2.4491984844207764,1.6592538356781006,0.6906940340995789
1758278478314484500,234.676484375,2.463040590286255,1.888290286064148,0.6986079812049866
1758278478324568600,234.68656860351564,2.497642755508423,2.079545021057129,0.6882128715515137
1758278478334652400,234.69665234375,2.5379953384399414,2.204776763916016,0.6553683280944824
1758278478344736300,234.706736328125,2.5751936435699463,2.28064227104187,0.5978376269340515
1758278478354820600,234.7168205566406,2.6144700050354004,2.2832937240600586,0.5059472322463989
1758278478364904400,234.7269045410156,2.6392335891723637,2.234628200531006,0.3825774192810058
1758278478374988300,234.73698828125,2.65508770942688,2.160802364349365,0.2393686324357986
1758278478385072400,234.747072265625,2.648980140686035,2.0566651821136475,0.0850831866264343
1758278478395156700,234.75715673828125,2.62296724319458,1.94089937210083,-0.05887221544981
1758278478405241900,234.76724194335935,2.58314061164856,1.8110463619232176,-0.2087642401456833
1758278478415326000,234.7773259277344,2.5431947708129883,1.7222177982330322,-0.3441628813743591
1758278478425409800,234.78740991210935,2.511233329772949,1.7183839082717896,-0.4444040060043335
1758278478435494000,234.7974938964844,2.491753101348877,1.712982177734375,-0.5158558487892151
1758278478445578000,234.80757788085936,2.463855266571045,1.6444478034973145,-0.5791935324668884
1758278478455662000,234.817662109375,2.411566734313965,1.5878896713256836,-0.6288027763366699
1758278478465746000,234.82774584960936,2.32456374168396,1.5690717697143557,-0.6561214923858643
1758278478475829800,234.8378298339844,2.21236515045166,1.567623257637024,-0.6599520444869995
1758278478485914000,234.8479140625,2.08419132232666,1.6085786819458008,-0.632868766784668
1758278478495998000,234.857998046875,1.9405652284622192,1.6588938236236572,-0.5742179751396179
1758278478506083000,234.8680830078125,1.7991385459899902,1.673750877380371,-0.5439295768737793
1758278478516167000,234.8781669921875,1.6614346504211426,1.6874117851257324,-0.5542014837265015
1758278478526250800,234.88825073242188,1.5397896766662598,1.6957309246063232,-0.5613376498222351
1758278478536335000,234.89833520507813,1.3986766338348389,1.7297539710998535,-0.5793704986572266
1758278478546419000,234.9084189453125,1.225851058959961,1.7739546298980713,-0.5736809372901917
1758278478556502800,234.91850268554688,1.0493208169937134,1.7026208639144895,-0.525693416595459
1758278478566587000,234.9285869140625,0.8578975200653076,1.4752700328826904,-0.4726967513561249
1758278478576671000,234.9386708984375,0.6334941983222961,1.1737076044082642,-0.4560919404029846
1758278478586754800,234.9487548828125,0.3781269490718841,0.8434638977050781,-0.4281156957149505
1758278478596839000,234.9588388671875,0.1091278865933418,0.5295950770378113,-0.3582663238048553
1758278478606923800,234.968923828125,-0.1622703373432159,0.2244404703378677,-0.2585035264492035
1758278478617007900,234.9790078125,-0.4212675988674164,-0.1000006571412086,-0.1580532640218734
1758278478627092000,234.9890920410156,-0.6352552175521851,-0.4620182514190674,-0.0720209032297134
1758278478637175800,234.99917578125,-0.8042654395103455,-0.8908579349517822,-0.004061535000801
1758278478647260000,235.00926000976563,-0.9352948069572448,-1.4125522375106812,0.0483486764132976
1758278478657343700,235.01934375,-1.0634336471557615,-2.018514394760132,0.0908175036311149
1758278478667427800,235.029427734375,-1.2423192262649536,-2.6586594581604004,0.1150429546833038
1758278478677512000,235.03951196289063,-1.503738522529602,-3.2502849102020264,0.0949524864554405
1758278478687595800,235.049595703125,-1.8389852046966555,-3.703839302062988,0.0138640282675623
1758278478697680000,235.05967993164063,-2.192720890045166,-3.960272073745728,-0.1057388111948967
1758278478707764700,235.0697646484375,-2.4825727939605717,-4.03519868850708,-0.2219900637865066
1758278478717849000,235.07984912109376,-2.678234338760376,-3.9868667125701904,-0.2851662635803222
1758278478727933000,235.08993286132807,-2.7622969150543213,-3.852510690689087,-0.2979289293289184
1758278478738016800,235.10001684570312,-2.765143394470215,-3.65618896484375,-0.2822564244270324
1758278478748101000,235.1101010742188,-2.7081689834594727,-3.3766157627105717,-0.2637706100940704
1758278478758185000,235.12018505859376,-2.627658605575561,-3.006613254547119,-0.2392366379499435
1758278478768268800,235.13026879882813,-2.5279455184936523,-2.545609712600708,-0.2221356779336929
1758278478778353000,235.14035278320316,-2.422119379043579,-2.028263568878174,-0.2155256122350692
1758278478788437000,235.15043701171876,-2.306349515914917,-1.509310960769653,-0.2351693660020828
1758278478798520800,235.16052075195316,-2.198615074157715,-1.067891001701355,-0.2571307122707367
1758278478808605000,235.17060498046877,-2.127699136734009,-0.7470608353614807,-0.2713464200496673
1758278478818689800,235.1806896972656,-2.1200106143951416,-0.5390384197235107,-0.2713898122310638
1758278478828774000,235.1907739257813,-2.173240423202514,-0.3898715674877167,-0.2678976058959961
1758278478838858000,235.20085791015623,-2.2679569721221924,-0.25955531001091,-0.265176773071289
1758278478848941800,235.2109418945313,-2.3984591960906982,-0.1639246642589569,-0.2696394324302673
1758278478859026000,235.22102587890623,-2.558651924133301,-0.1240826249122619,-0.2939741611480713
1758278478869109800,235.2311098632813,-2.731934070587158,-0.16700080037117,-0.3502448797225952
1758278478879193900,235.24119384765623,-2.901086807250977,-0.2975848317146301,-0.4282172322273254
1758278478889278000,235.2512778320313,-3.0532708168029785,-0.4938153326511383,-0.556161105632782
1758278478899361800,235.26136181640624,-3.165292978286743,-0.7173595428466797,-0.7122299075126648
1758278478909446000,235.27144580078124,-3.209418773651123,-0.9382889866828918,-0.868838906288147
1758278478919530800,235.2815307617188,-3.189183473587036,-1.183983564376831,-0.987387716770172
1758278478929614800,235.29161474609376,-3.142011404037476,-1.4433892965316772,-1.0801730155944824
1758278478939699000,235.30169897460937,-3.095953941345215,-1.656854271888733,-1.1377696990966797
1758278478949782800,235.31178271484376,-3.0610194206237797,-1.787977695465088,-1.178085446357727
1758278478959867000,235.32186694335937,-3.037152051925659,-1.8634241819381716,-1.2141072750091553
1758278478969951000,235.3319509277344,-3.002033472061157,-1.9161629676818848,-1.2558281421661377
1758278478980034800,235.34203491210937,-2.958981990814209,-1.9680813550949097,-1.2737849950790403
1758278478990119000,235.3521188964844,-2.907871961593628,-2.0553395748138428,-1.2799936532974243
1758278479000203000,235.362203125,-2.8370890617370605,-2.1280479431152344,-1.2847747802734375
1758278479010286800,235.3722868652344,-2.782487154006958,-2.218514204025269,-1.2803499698638916
1758278479020372000,235.3823720703125,-2.7415127754211426,-2.337469577789306,-1.2746152877807615
1758278479030455800,235.3924558105469,-2.722520112991333,-2.460742473602295,-1.2471210956573486
1758278479040540000,235.40253979492184,-2.715691328048706,-2.562434196472168,-1.1897443532943726
1758278479050624000,235.4126240234375,-2.7201192378997803,-2.6531965732574463,-1.1090381145477295
1758278479060707800,235.42270776367187,-2.737596273422241,-2.695430994033813,-1.0125056505203247
1758278479070792000,235.4327919921875,-2.735116004943848,-2.6596851348876958,-0.9029515385627748
1758278479080875800,235.44287573242187,-2.702440023422241,-2.577042579650879,-0.7635956406593323
1758278479090960000,235.4529599609375,-2.6244747638702397,-2.451107978820801,-0.5954785346984863
1758278479101044000,235.4630439453125,-2.492283821105957,-2.2644739151000977,-0.4070414006710052
1758278479111127800,235.4731279296875,-2.3151164054870605,-1.990549921989441,-0.2257802635431289
1758278479121213000,235.483212890625,-2.0908970832824707,-1.5971816778182983,-0.0606743432581424
1758278479131296800,235.493296875,-1.832078456878662,-1.1176958084106443,0.0903639122843742
1758278479141380900,235.503380859375,-1.5366935729980469,-0.6049361228942871,0.2288042455911636
1758278479151465000,235.51346484375,-1.184529423713684,-0.1006452739238739,0.3564082682132721
1758278479161548800,235.523548828125,-0.7747523188591003,0.3612762689590454,0.4643291532993316
1758278479171633000,235.5336328125,-0.3407508134841919,0.7441816329956055,0.5482831597328186
1758278479181717000,235.5437170410156,0.0558367706835269,1.0249855518341064,0.6092058420181274
1758278479191800800,235.55380078125,0.3589412569999695,1.2141221761703491,0.6493923664093018
1758278479201885000,235.5638850097656,0.555511474609375,1.343211054801941,0.6810926795005798
1758278479211969000,235.5739689941406,0.6990161538124084,1.421900749206543,0.7139334678649902
1758278479222054000,235.58405395507813,0.8450862169265747,1.4368685483932495,0.7767155170440674
1758278479232138000,235.59413793945316,1.0240068435668943,1.4325315952301023,0.8737344741821289
1758278479242221800,235.6042219238281,1.2323890924453735,1.482395052909851,0.9898212552070618
1758278479252306000,235.61430590820316,1.4440044164657593,1.635031819343567,1.0863453149795532
1758278479262390000,235.62439013671877,1.6487436294555664,1.8686739206314087,1.1446090936660769
1758278479272473900,235.63447387695317,1.8331183195114136,2.1265883445739746,1.1672539710998535
1758278479282558000,235.6445578613281,1.9923222064971924,2.3609681129455566,1.156897783279419
1758278479292641800,235.6546418457031,2.1370835304260254,2.5433237552642822,1.1322898864746094
1758278479302726000,235.6647258300781,2.271646738052368,2.6849911212921143,1.1030724048614502
1758278479312810000,235.67481005859372,2.410358190536499,2.8089935779571533,1.0804195404052734
1758278479322893800,235.6848937988281,2.5658810138702397,2.9592294692993164,1.0762542486190796
1758278479332979000,235.69497900390624,2.754581451416016,3.171987295150757,1.0942609310150146
1758278479343062800,235.70506274414063,2.9754714965820312,3.422127723693848,1.1232939958572388
1758278479353147000,235.71514697265624,3.210608959197998,3.6769790649414062,1.1290227174758911
1758278479363231000,235.72523095703124,3.416100025177002,3.928684949874878,1.0881682634353638
1758278479373314800,235.73531469726564,3.5574216842651367,4.16208028793335,1.0126551389694214
1758278479383399000,235.74539892578125,3.609346866607666,4.334635257720947,0.8890646696090698
1758278479393482500,235.755482421875,3.5831897258758545,4.398761749267578,0.6981109380722046
1758278479403566600,235.76556665039064,3.534414768218994,4.39948320388794,0.5011002421379089
1758278479413650400,235.775650390625,3.5147056579589844,4.314751625061035,0.3081336915493011
1758278479423734500,235.7857346191406,3.510817766189575,4.095946788787842,0.1102960705757141
1758278479433819600,235.79581958007813,3.479682207107544,3.7202398777008057,-0.1038007736206054
1758278479443903500,235.80590356445316,3.421083211898804,3.2677695751190186,-0.3484328687191009
1758278479453987600,235.81598754882813,3.344562530517578,2.846506118774414,-0.5173385739326477
1758278479464071400,235.82607153320316,3.262049674987793,2.4664671421051025,-0.6140130758285522
1758278479474155500,235.8361555175781,3.1863198280334477,2.025146484375,-0.7282786965370178
1758278479484239600,235.84623950195316,3.111445903778076,1.5717198848724363,-0.8529871702194214
1758278479494323500,235.8563234863281,3.056811809539795,1.1739614009857178,-0.9206628799438475
1758278479504407300,235.8664072265625,3.0497748851776123,0.8001829385757446,-0.947577953338623
1758278479514491600,235.87649169921875,3.0930542945861816,0.3691327571868896,-0.970290184020996
1758278479524575500,235.8865754394531,3.1402618885040283,-0.1026897877454757,-0.997279942035675
1758278479534660600,235.89666064453124,3.182596206665039,-0.5894836187362671,-1.0496087074279783
1758278479544744400,235.90674438476563,3.1694648265838623,-0.8965601325035095,-1.0604327917099
1758278479554828300,235.91682836914063,3.12265419960022,-0.9487024545669556,-1.0624445676803589
1758278479564912600,235.92691259765624,3.0567877292633057,-0.8221593499183655,-1.0669225454330444
1758278479574996500,235.93699658203124,2.9766626358032227,-0.6414580345153809,-1.0786672830581665
1758278479585080600,235.94708056640624,2.9057466983795166,-0.4109302461147308,-1.0641199350357056
1758278479595164400,235.95716430664064,2.868096351623535,-0.1594263613224029,-1.0021306276321411
1758278479605248500,235.96724853515624,2.848956346511841,0.0798218846321106,-0.9085105657577516
1758278479615332600,235.97733251953125,2.8022310733795166,0.3652285933494568,-0.8061943054199219
1758278479625416400,235.98741650390625,2.6912312507629395,0.7526179552078247,-0.7084439992904663
1758278479635500500,235.99750048828125,2.505276918411255,1.2359089851379397,-0.6047106981277466
1758278479645585700,236.00758569335937,2.3004705905914307,1.7957606315612793,-0.4840295612812042
1758278479655669500,236.0176694335937,2.116703510284424,2.3303117752075195,-0.4374879002571106
1758278479665753600,236.02775366210935,1.917801141738892,2.7533559799194336,-0.5243828296661377
1758278479675837400,236.0378374023437,1.6439763307571411,3.0016329288482666,-0.7121133208274841
1758278479685921500,236.04792163085935,1.296575665473938,3.042880058288574,-0.8173208832740784
1758278479696005600,236.0580056152344,0.911388099193573,2.879732608795166,-0.7986279129981995
1758278479706089500,236.06808935546877,0.4989055693149566,2.53320837020874,-0.7232779264450073
1758278479716173300,236.07817333984372,0.0811855718493461,2.0362720489501958,-0.6815246343612671
1758278479726257700,236.08825756835935,-0.3077118992805481,1.397965669631958,-0.6699796915054321
1758278479736341500,236.0983415527344,-0.6056311726570129,0.677885890007019,-0.6534755229949951
1758278479746426600,236.10842651367187,-0.8061217069625854,-0.0141165116801857,-0.6266499757766724
1758278479756510500,236.11851049804687,-0.9199955463409424,-0.6057020425796509,-0.565037727355957
1758278479766594300,236.12859423828124,-0.9683313965797424,-1.0956544876098633,-0.4619604647159576
1758278479776678700,236.1386787109375,-1.007810115814209,-1.5044894218444824,-0.3194203674793243
1758278479786762500,236.14876245117188,-1.077716588973999,-1.847648024559021,-0.1719734370708465
1758278479796846600,236.1588466796875,-1.234019160270691,-2.1617271900177,-0.0435850918292999
1758278479806930400,236.16893041992188,-1.5232064723968506,-2.4579811096191406,0.0529855526983737
1758278479817014500,236.1790146484375,-1.9456408023834229,-2.6929006576538086,0.0963154509663581
1758278479827098600,236.1890986328125,-2.433530330657959,-2.7774391174316406,0.0773838758468627
1758278479837182500,236.19918237304688,-2.877157211303711,-2.676730155944824,0.0247470363974571
1758278479847267600,236.209267578125,-3.1726863384246826,-2.409822702407837,-0.0050411261618137
1758278479857351400,236.21935131835937,-3.2563183307647705,-2.0262787342071533,0.0511385239660739
1758278479867435500,236.229435546875,-3.144651412963867,-1.6119240522384644,0.1807689666748047
1758278479877519600,236.23951953125,-2.9132754802703857,-1.2276259660720823,0.3354813456535339
1758278479887603500,236.249603515625,-2.664360761642456,-0.8885204792022705,0.4641264975070953
1758278479897687600,236.2596875,-2.483781576156616,-0.5985238552093506,0.555341362953186
1758278479907771600,236.2697717285156,-2.383690118789673,-0.3605280518531799,0.6111459136009216
1758278479917855500,236.27985546875,-2.360158443450928,-0.1667138487100601,0.65998375415802
1758278479927939300,236.2899392089844,-2.4016354084014893,-0.0385199263691902,0.7017389535903931
1758278479938023700,236.30002368164065,-2.492982864379883,0.0030552169773727,0.7425768971443176
1758278479948107500,236.310107421875,-2.615729808807373,-0.0165439806878566,0.7834349870681763
1758278479958192600,236.32019262695312,-2.740858793258667,-0.0429420322179794,0.8226222991943359
1758278479968276500,236.3302763671875,-2.858346939086914,-0.0610178858041763,0.8599469661712646
1758278479978360300,236.3403603515625,-2.9663257598876958,-0.0656917318701744,0.8955259919166565
1758278479988444700,236.3504445800781,-3.0598318576812744,-0.0503862239420414,0.9450806975364684
1758278479998528500,236.36052856445312,-3.149174213409424,-0.0418641082942485,0.99353289604187
1758278480008612600,236.3706125488281,-3.244641065597534,-0.0607759654521942,1.0406485795974731
1758278480018696400,236.38069653320312,-3.340078830718994,-0.1287606209516525,1.064638376235962
1758278480028780500,236.3907805175781,-3.430553674697876,-0.242932990193367,1.0419999361038208
1758278480038864600,236.40086474609376,-3.510915279388428,-0.375052660703659,0.9604864716529846
1758278480048948500,236.41094848632807,-3.587249279022217,-0.522585928440094,0.8384915590286255
1758278480059033600,236.42103369140625,-3.659176588058472,-0.6938708424568176,0.6868804693222046
1758278480069117400,236.43111743164064,-3.686716079711914,-0.9251661896705629,0.536302924156189
1758278480079201500,236.4412014160156,-3.654365539550781,-1.2547953128814695,0.3983530104160309
1758278480089285600,236.45128564453125,-3.575592279434204,-1.676504135131836,0.2823661267757416
1758278480099369500,236.4613693847656,-3.4882612228393555,-2.1158275604248047,0.1905512362718582
1758278480109453300,236.47145336914065,-3.43371844291687,-2.5476503372192383,0.102000668644905
1758278480119537700,236.48153759765623,-3.41448712348938,-2.8961637020111084,0.0043817041441798
1758278480129621500,236.49162158203129,-3.4191527366638184,-3.178149700164795,-0.0829672217369079
1758278480139705300,236.5017053222656,-3.411339044570923,-3.395305156707764,-0.1679122149944305
1758278480149789700,236.51178979492187,-3.373230457305908,-3.5409884452819824,-0.2401208877563476
1758278480159873500,236.52187353515623,-3.299675226211548,-3.668374538421631,-0.3087281882762909
1758278480169958700,236.5319587402344,-3.2121076583862305,-3.7962803840637207,-0.3771390616893768
1758278480180042500,236.54204248046875,-3.1472935676574707,-3.8566622734069824,-0.4256221652030945
1758278480190126300,236.55212622070312,-3.097872495651245,-3.8441178798675537,-0.4598461985588074
1758278480200210700,236.56221069335936,-3.0494225025177,-3.723790407180786,-0.465403139591217
1758278480210294500,236.57229443359373,-2.9615161418914795,-3.5102367401123047,-0.444868266582489
1758278480220378600,236.58237866210936,-2.8107950687408447,-3.203878164291382,-0.3800463676452636
1758278480230462500,236.59246240234376,-2.5922858715057373,-2.823899984359741,-0.2779445946216583
1758278480240546600,236.60254663085936,-2.336801290512085,-2.382655143737793,-0.1715321540832519
1758278480250630700,236.6126306152344,-2.07470440864563,-1.866207242012024,-0.078458733856678
1758278480260714500,236.62271459960937,-1.7944211959838867,-1.3147989511489868,-0.008414402604103
1758278480270799600,236.63279956054689,-1.4790374040603638,-0.780883252620697,0.0548725873231887
1758278480280883500,236.6428835449219,-1.1038614511489868,-0.3129442632198334,0.1211445480585098
1758278480290967600,236.6529675292969,-0.6878305673599243,0.0693673193454742,0.1912391930818557
1758278480301051600,236.6630517578125,-0.2515600025653839,0.305901825428009,0.2595399618148803
1758278480311135500,236.6731354980469,0.132679745554924,0.3915228843688965,0.2969975471496582
1758278480321219300,236.68321923828125,0.4203647971153259,0.4170474112033844,0.3281536102294922
1758278480331303700,236.6933037109375,0.609254002571106,0.4658985435962677,0.3493070304393768
1758278480341387500,236.70338745117184,0.768309473991394,0.6336124539375305,0.3943259119987488
1758278480351471400,236.7134714355469,0.9885419607162476,0.9076157212257384,0.4483847916126251
1758278480361555500,236.7235554199219,1.2980395555496216,1.2503455877304075,0.5255318284034729
1758278480371639600,236.7336396484375,1.646779179573059,1.6217936277389526,0.5916255712509155
1758278480381724700,236.743724609375,1.9712622165679927,1.9704821109771729,0.613707423210144
1758278480391809300,236.75380932617188,2.213022232055664,2.236480951309204,0.5873214602470398
1758278480401893000,236.76389306640624,2.3874518871307373,2.3903605937957764,0.5362721085548401
1758278480411977000,236.77397705078124,2.5095293521881104,2.417041063308716,0.4755148291587829
1758278480422061300,236.78406127929688,2.6145212650299072,2.369701385498047,0.4236257970333099
1758278480432145200,236.79414526367188,2.708319187164306,2.2943172454833984,0.3834127783775329
1758278480442229000,236.80422900390624,2.794377565383911,2.259812831878662,0.3696093261241913
1758278480452313000,236.81431298828124,2.895266056060791,2.306790590286255,0.3792357742786407
1758278480462397200,236.82439721679688,3.025753736495972,2.4419994354248047,0.3992025554180145
1758278480472481300,236.83448120117188,3.1982929706573486,2.653608798980713,0.4312039017677307
1758278480482565000,236.84456518554688,3.4078876972198486,2.927165508270264,0.4522031843662262
1758278480492650000,236.8546499023437,3.620140314102173,3.281447649002075,0.4250027537345886
1758278480502734000,236.86473413085935,3.7903122901916495,3.629564046859741,0.3298698663711548
1758278480512818200,236.8748181152344,3.877802610397339,3.866615295410156,0.1646877080202102
1758278480522902300,236.88490234375,3.890468120574951,3.981368064880371,0.0153104839846491
1758278480532986000,236.8949860839844,3.861895799636841,3.93585205078125,-0.1221118569374084
1758278480543070000,236.90507006835935,3.806840181350708,3.731421709060669,-0.2504226863384247
1758278480553154300,236.915154296875,3.7285172939300537,3.425915479660034,-0.3647171556949615
1758278480563238100,236.92523803710935,3.650073528289795,3.031068086624145,-0.4835593998432159
1758278480573322000,236.9353220214844,3.588254690170288,2.6381452083587646,-0.5884488821029663
1758278480583406300,236.94540625,3.563718795776367,2.2419703006744385,-0.6689815521240234
1758278480593491200,236.9554912109375,3.5663375854492188,1.846064209938049,-0.7412819266319275
1758278480603575300,236.9655751953125,3.58768892288208,1.4072381258010864,-0.7983177900314331
1758278480613659100,236.9756591796875,3.6163365840911865,0.9844699501991272,-0.8510315418243408
1758278480623743000,236.98574291992188,3.642802238464356,0.5720395445823669,-0.890399694442749
1758278480633827300,236.9958273925781,3.657562017440796,0.1701262891292572,-0.9193577766418456
1758278480643911200,237.0059111328125,3.660360813140869,-0.1077362298965454,-0.9407333731651306
1758278480653995000,237.0159951171875,3.651277303695679,-0.3229754567146301,-0.972919762134552
1758278480664079000,237.0260791015625,3.61704421043396,-0.4887574911117553,-0.9959928393363952
1758278480674163200,237.0361630859375,3.5613691806793213,-0.5711824297904968,-1.0043354034423828
1758278480684247300,237.04624731445315,3.487218379974365,-0.5399008989334106,-0.9981135129928588
1758278480694331100,237.0563310546875,3.414818048477173,-0.4616554081439972,-0.9801878333091736
1758278480704416000,237.066416015625,3.337754011154175,-0.3753343820571899,-0.940414011478424
1758278480714500000,237.0765,3.26254940032959,-0.2934727370738983,-0.8682147264480591
1758278480724584200,237.0865842285156,3.190653085708618,-0.1981986910104751,-0.7565252184867859
1758278480734668300,237.09666821289065,3.1112544536590576,-0.0557921975851058,-0.5861825346946716
1758278480744752000,237.1067521972656,2.982126474380493,0.1671924144029617,-0.3610135912895202
1758278480754836000,237.1168359375,2.778270959854126,0.4602690637111664,-0.1290122866630554
1758278480764920300,237.12692041015623,2.537238121032715,0.8119053840637207,0.0705365091562271
1758278480775004200,237.13700415039065,2.2871651649475098,1.1433550119400024,0.0898480340838432
1758278480785088000,237.147087890625,1.950124263763428,1.4246697425842283,-0.1177480369806289
1758278480795172000,237.15717211914065,1.525157451629639,1.6516530513763428,-0.354152649641037
1758278480805257000,237.1672570800781,1.1250195503234863,1.847399115562439,-0.5028731822967529
1758278480815341300,237.17734130859372,0.8239575624465942,1.912784218788147,-0.55580073595047
1758278480825425200,237.1874250488281,0.5775339603424072,1.812702298164368,-0.5274623036384583
1758278480835509000,237.19750903320312,0.3471388816833496,1.5857110023498535,-0.4866032600402832
1758278480845593000,237.2075930175781,0.1293921619653701,1.29616117477417,-0.4285540580749511
1758278480855677200,237.21767724609376,-0.0693471729755401,0.9701199531555176,-0.3401671350002289
1758278480865761000,237.2277609863281,-0.2535870671272278,0.5723968148231506,-0.1968618780374527
1758278480875845000,237.23784521484376,-0.4587136209011078,0.1067301481962204,-0.0291212536394596
1758278480885929200,237.2479291992188,-0.70918869972229,-0.369804173707962,0.0965764820575714
1758278480896013300,237.2580134277344,-1.045939803123474,-0.8185520172119141,0.1321640908718109
1758278480906097200,237.2680971679688,-1.4774783849716189,-1.22320818901062,0.1039295345544815
1758278480916182000,237.27818212890625,-1.9796056747436523,-1.525234937667847,0.0334891974925994
1758278480926266000,237.28826611328125,-2.48704195022583,-1.626290202140808,-0.0753070563077926
1758278480936350200,237.29835009765625,-2.917436361312866,-1.4635552167892456,-0.1934090256690979
1758278480946434300,237.30843432617183,-3.159721612930298,-1.110499620437622,-0.2160110026597976
1758278480956518100,237.31851806640623,-3.161873340606689,-0.6609651446342468,-0.0994211807847023
1758278480966602000,237.32860205078129,-2.993005990982056,-0.2065510153770446,0.0694706365466117
1758278480976686300,237.3386862792969,-2.7869584560394287,0.1968496292829513,0.2190227061510086
1758278480986770200,237.34877026367187,-2.669166088104248,0.4942019581794739,0.3225435018539428
1758278480996854000,237.35885400390623,-2.6853702068328857,0.6894629597663879,0.388010174036026
1758278481006938000,237.36893823242187,-2.812999725341797,0.7681931853294373,0.4431706368923187
1758278481017022200,237.37902221679687,-3.025221824645996,0.7056255340576172,0.5049576759338379
1758278481027107300,237.389107421875,-3.250353574752808,0.487207680940628,0.599845290184021
1758278481037191200,237.3991911621094,-3.4281210899353027,0.1719511300325393,0.7112228870391846
1758278481047275000,237.40927490234372,-3.528656482696533,-0.1864640116691589,0.819691002368927
1758278481057359000,237.41935913085936,-3.574601173400879,-0.4898055493831634,0.9064467549324036
1758278481067443200,237.4294431152344,-3.5937459468841557,-0.6894912123680115,0.9748303294181824
1758278481077527000,237.43952709960936,-3.5974972248077397,-0.8140804767608643,1.0456401109695437
1758278481087611100,237.4496110839844,-3.595590353012085,-0.8933920860290527,1.12671959400177
1758278481097695200,237.4596953125,-3.60993242263794,-0.9110282063484192,1.216688871383667
1758278481107779300,237.469779296875,-3.672195434570313,-0.8637102246284485,1.3157267570495603
1758278481117863200,237.47986328125,-3.791586399078369,-0.7625029683113098,1.4089895486831665
1758278481127947000,237.4899470214844,-3.950428485870361,-0.6006216406822205,1.4389979839324951
1758278481138032000,237.5000322265625,-4.147852420806885,-0.4871919155120849,1.375270962715149
1758278481148116200,237.5101162109375,-4.37238359451294,-0.3665541708469391,1.2538353204727173
1758278481158200300,237.52020043945316,-4.572144508361816,-0.2995851039886474,1.0900288820266724
1758278481168284200,237.5302841796875,-4.68048620223999,-0.4020081162452698,0.921056032180786
1758278481178368000,237.54036791992183,-4.659533500671387,-0.7445093393325806,0.76018226146698
1758278481188452400,237.5504523925781,-4.548974990844727,-1.3314998149871826,0.6097930073738098
1758278481198536200,237.5605361328125,-4.413370609283447,-2.0506887435913086,0.4674781262874603
1758278481208620000,237.5706201171875,-4.308631896972656,-2.811115503311157,0.3612984120845794
1758278481218704100,237.5807041015625,-4.2699971199035645,-3.546760320663452,0.2624207437038421
1758278481228788200,237.5907883300781,-4.279075622558594,-4.179412841796875,0.1532508581876754
1758278481238872000,237.6008720703125,-4.300541400909424,-4.542837142944336,0.017407352104783
1758278481248957200,237.61095727539063,-4.265462875366211,-4.5845794677734375,-0.1241479143500328
1758278481259041000,237.621041015625,-4.156830310821533,-4.503459930419922,-0.2485258430242538
1758278481269125000,237.631125,-3.984004020690918,-4.2862629890441895,-0.3376940786838531
1758278481279209200,237.64120922851563,-3.766072988510132,-3.8573596477508554,-0.368038922548294
1758278481289293000,237.65129296875,-3.508260726928711,-3.1699531078338623,-0.3509694039821625
1758278481299377200,237.66137719726564,-3.207626342773437,-2.2853574752807617,-0.2967974245548248
1758278481309461000,237.6714609375,-2.845290184020996,-1.2814781665802002,-0.2284370064735412
1758278481319545000,237.68154516601564,-2.426908493041992,-0.3311464190483093,-0.1454218626022339
1758278481329629200,237.6916291503906,-2.001219749450684,0.4455741047859192,-0.0448233447968959
1758278481339713000,237.7017131347656,-1.5828598737716677,0.9924599528312684,0.0460468493402004
1758278481349798100,237.71179809570316,-1.159705400466919,1.3146175146102903,0.1361250728368759
1758278481359882200,237.72188232421877,-0.7357671856880188,1.4210246801376345,0.2186064720153808
1758278481369966000,237.73196606445316,-0.2833552658557892,1.414567232131958,0.2872257530689239
1758278481380050200,237.74205029296877,0.1524385064840316,1.335354924201965,0.3222052156925201
1758278481390134000,237.75213403320316,0.5646487474441528,1.2112393379211426,0.3287446200847626
1758278481400217600,237.7622175292969,0.9387651085853576,1.010529637336731,0.3371349573135376
1758278481410301700,237.7723017578125,1.309864163398743,0.7994778156280518,0.3578282594680786
1758278481420385500,237.7823854980469,1.6815533638000488,0.7068566083908081,0.3799242973327636
1758278481430469600,237.7924697265625,2.044267416000366,0.7350205779075623,0.3829499185085296
1758278481440553700,237.8025537109375,2.379472494125366,0.8461156487464905,0.3641536235809326
1758278481450637600,237.81263745117187,2.672456741333008,1.0007851123809814,0.3320654630661011
1758278481460721700,237.8227216796875,2.922415971755981,1.182203769683838,0.2993683516979217
1758278481470806500,237.832806640625,3.113530397415161,1.362890124320984,0.2594030797481537
1758278481480890600,237.842890625,3.2513620853424072,1.5264992713928225,0.2425796240568161
1758278481490974700,237.852974609375,3.3403797149658203,1.6688666343688965,0.2420192956924438
1758278481501058600,237.86305859375,3.400319099426269,1.8004977703094482,0.2552774548530578
1758278481511142700,237.873142578125,3.4452126026153564,1.9337760210037231,0.2615715861320495
1758278481521226800,237.88322680664064,3.519083023071289,2.121798515319824,0.2464645951986313
1758278481531310600,237.893310546875,3.6378562450408936,2.4016518592834477,0.2033426910638809
1758278481541394700,237.90339477539064,3.802724599838257,2.729534387588501,0.1242511272430419
1758278481551478500,237.913478515625,3.98565411567688,3.054672241210937,0.0226920135319232
1758278481561562600,237.9235627441406,4.1797051429748535,3.2785627841949463,-0.1397875994443893
1758278481571647700,237.93364770507813,4.391955375671387,3.3675339221954346,-0.2913153171539306
1758278481581731600,237.94373168945316,4.609364986419678,3.3519487380981445,-0.40621417760849
1758278481591815700,237.95381567382813,4.808669090270996,3.1499218940734863,-0.5173987746238708
1758278481601899500,237.9638994140625,4.937301635742188,2.7743492126464844,-0.6136370897293091
1758278481611983600,237.97398364257813,4.957858085632324,2.2965075969696045,-0.6670811176300049
1758278481622067700,237.98406762695316,4.871392726898193,1.7189393043518066,-0.6850641369819641
1758278481632151600,237.9941516113281,4.729664325714111,1.0508131980895996,-0.6694425940513611
1758278481642235600,238.00423559570316,4.571436882019043,0.3498334288597107,-0.6478514671325684
1758278481652319700,238.01431982421877,4.429282188415527,-0.3263799250125885,-0.6124474406242371
1758278481662403600,238.02440356445317,4.336189270019531,-0.8719930648803711,-0.5719162225723267
1758278481672487700,238.03448779296875,4.298552989959717,-1.2262846231460571,-0.5105106830596924
1758278481682571800,238.04457177734372,4.282971858978272,-1.4140572547912598,-0.4197509884834289
1758278481692656600,238.05465673828124,4.252994537353516,-1.517539381980896,-0.298367828130722
1758278481702740700,238.06474072265624,4.189418792724609,-1.523864507675171,-0.1729071736335754
1758278481712824600,238.07482446289063,4.089301109313965,-1.410739779472351,-0.0465822480618953
1758278481722908700,238.08490869140624,3.978723764419556,-1.191153049468994,0.038539569824934
1758278481732992800,238.09499267578124,3.873751640319824,-0.8023757338523865,0.0963850244879722
1758278481743076600,238.10507666015624,3.78205943107605,-0.2740114331245422,0.1332172900438308
1758278481753160700,238.11516064453124,3.6727511882781982,0.2800152897834778,0.153223767876625
1758278481763244500,238.12524462890624,3.543219566345215,0.8496093153953552,0.1677688807249069
1758278481773328600,238.13532861328125,3.391386032104492,1.3842540979385376,0.1853635758161544
1758278481783412700,238.14541284179688,3.228336811065674,1.9244335889816284,0.1905715614557266
1758278481793496600,238.15549658203125,3.0541751384735107,2.390932559967041,0.1892873793840408
1758278481803581700,238.16558178710935,2.8753814697265625,2.7471625804901123,0.1706946045160293
1758278481813665500,238.1756655273437,2.703863859176636,3.0164830684661865,0.1306510418653488
1758278481823749600,238.18574951171877,2.544808387756348,3.1684367656707764,0.0616053231060504
1758278481833833700,238.1958337402344,2.394231081008911,3.197829008102417,-0.0208160504698753
1758278481843917600,238.20591748046877,2.2446413040161133,3.1057701110839844,-0.1174383088946342
1758278481854001700,238.2160017089844,2.091596841812134,2.88167142868042,-0.2059016078710556
1758278481864085800,238.22608569335935,1.9387942552566528,2.5309786796569824,-0.288991242647171
1758278481874169600,238.2361696777344,1.7747677564620972,2.0622189044952397,-0.3455035090446472
1758278481884253700,238.24625366210935,1.6009011268615725,1.4926996231079102,-0.3866190016269684
1758278481894337500,238.2563376464844,1.423625946044922,0.8366073369979858,-0.3854575753211975
1758278481904421600,238.26642163085936,1.2463767528533936,0.1605171859264373,-0.3414300680160522
1758278481914506800,238.2765068359375,1.045681715011597,-0.5001009702682495,-0.256677895784378
1758278481924590600,238.28659057617188,0.79927659034729,-1.1037139892578125,-0.1565717458724975
1758278481934674700,238.2966748046875,0.498205155134201,-1.6145291328430176,-0.0599623844027519
1758278481944758500,238.30675854492188,0.1774912476539611,-2.005786180496216,0.0189438220113515
1758278481954842600,238.31684252929688,-0.1887165606021881,-2.26608681678772,0.074590303003788
1758278481964926700,238.3269267578125,-0.5506446361541748,-2.399399280548096,0.1125578209757804
1758278481975010600,238.33701049804688,-0.8846524357795715,-2.41460919380188,0.1387039422988891
1758278481985094700,238.3470947265625,-1.199030876159668,-2.3004486560821533,0.1799440532922744
1758278481995178800,238.3571787109375,-1.495678186416626,-2.043363571166992,0.1129298657178878
1758278482005262600,238.3672626953125,-1.8022770881652832,-1.6421984434127808,-0.0690216273069381
1758278482015346700,238.3773466796875,-2.0621817111968994,-1.1258597373962402,-0.2330744713544845
1758278482025431600,238.387431640625,-2.2448415756225586,-0.5614835619926453,-0.3245483636856079
1758278482035515600,238.397515625,-2.3503334522247314,-0.0369409658014774,-0.3379022479057312
1758278482045599700,238.4075998535156,-2.415907382965088,0.3707500398159027,-0.2836039364337921
1758278482055683600,238.41768359375,-2.506385087966919,0.656855583190918,-0.1742047369480133
1758278482065767700,238.427767578125,-2.64937162399292,0.877291202545166,-0.058377169072628
1758278482075851800,238.43785180664065,-2.792890787124634,1.0794813632965088,0.0264303982257843
1758278482085935600,238.447935546875,-2.843780279159546,1.2933810949325562,0.0823702961206436
1758278482096019700,238.45801977539065,-2.7772133350372314,1.467769980430603,0.1362316608428955
1758278482106103600,238.468103515625,-2.598560333251953,1.5874173641204834,0.1867410689592361
1758278482116187600,238.47818774414063,-2.354106903076172,1.6380698680877686,0.2637532949447632
1758278482126271700,238.48827172851563,-2.09353256225586,1.5974904298782349,0.3461737930774688
1758278482136356600,238.49835668945312,-1.8824751377105715,1.4902281761169434,0.4253924489021301
1758278482146440700,238.5084406738281,-1.763213038444519,1.3514463901519775,0.4893027544021606
1758278482156524500,238.51852465820312,-1.7546395063400269,1.2174659967422483,0.5340701937675476
1758278482166608600,238.5286086425781,-1.8545100688934328,1.1036701202392578,0.5734570026397705
1758278482176692700,238.53869262695312,-2.0395772457122803,1.028051257133484,0.6359301805496216
1758278482186776600,238.5487766113281,-2.2805960178375244,0.9975006580352784,0.730328381061554
1758278482196860700,238.55886059570312,-2.549070119857788,1.0132766962051392,0.8594599962234497
1758278482206944800,238.5689448242188,-2.823528528213501,1.0605074167251587,1.0130963325500488
1758278482217028600,238.57902856445315,-3.09524154663086,1.1033995151519775,1.178658366203308
1758278482227112400,238.58911254882813,-3.3552913665771484,1.0952388048171997,1.339000225067139
1758278482237196800,238.59919677734376,-3.5948939323425293,0.9962138533592224,1.4735490083694458
1758278482247281700,238.60928173828125,-3.796846866607666,0.7905558943748474,1.558892846107483
1758278482257365800,238.61936572265623,-3.952644109725952,0.4395874440670013,1.5941299200057983
1758278482267449600,238.62944970703128,-4.056256771087647,-0.0641073510050773,1.553890347480774
1758278482277533400,238.6395334472656,-4.101970195770264,-0.6768823862075806,1.4482616186141968
1758278482287617800,238.6496176757813,-4.10776948928833,-1.3937883377075195,1.269068956375122
1758278482297701600,238.65970166015623,-4.098521709442139,-2.2244503498077397,0.9713895320892334
1758278482307785700,238.6697856445313,-4.075549602508545,-3.105430126190185,0.5850538611412048
1758278482317869600,238.67986962890623,-4.036888599395752,-3.992727279663086,0.2173709422349929
1758278482327953700,238.6899536132813,-3.983148097991944,-4.859366893768311,-0.0973129794001579
1758278482338037800,238.70003784179687,-3.912484884262085,-5.709632396697998,-0.3844046592712402
1758278482348121600,238.7101215820313,-3.847467184066773,-6.4636430740356445,-0.6655413508415222
1758278482358206700,238.72020678710936,-3.780879020690918,-7.030702114105225,-0.9131037592887878
1758278482368290600,238.73029052734373,-3.693051815032959,-7.355102062225342,-1.1486200094223022
1758278482378374700,238.74037475585936,-3.584481000900269,-7.393204689025879,-1.3622534275054932
1758278482388458800,238.7504587402344,-3.440992593765259,-7.151820182800293,-1.5640567541122437
1758278482398543000,238.76054321289064,-3.299394369125366,-6.6794939041137695,-1.727014422416687
1758278482408627000,238.770626953125,-3.1802725791931152,-6.000404357910156,-1.8382586240768437
1758278482418711000,238.7807109375,-3.081518650054932,-5.183775424957275,-1.887516975402832
1758278482428795100,238.7907951660156,-2.9825260639190674,-4.303179264068604,-1.8489314317703247
1758278482438879000,238.80087890625,-2.875828266143799,-3.404402494430542,-1.7002335786819458
1758278482448963000,238.8109631347656,-2.7577295303344727,-2.5314958095550537,-1.484027862548828
1758278482459047200,238.82104711914064,-2.598820447921753,-1.7770346403121948,-1.2171764373779297
1758278482469132000,238.8311320800781,-2.402507781982422,-1.153994083404541,-0.9228805899620056
1758278482479216000,238.84121606445316,-2.171461820602417,-0.6181058883666992,-0.6249452829360962
1758278482489300000,238.8513000488281,-1.93193519115448,-0.183444544672966,-0.3909003138542175
1758278482499384000,238.86138403320317,-1.6951905488967896,0.1371073722839355,-0.2400756627321243
1758278482509468200,238.87146826171875,-1.4778070449829102,0.3622447252273559,-0.1435706317424774
1758278482519552000,238.88155200195317,-1.2811933755874634,0.5191424489021301,-0.0606501884758472
1758278482529636000,238.8916359863281,-1.0764555931091309,0.6058632731437683,0.0035376907326281
1758278482539720000,238.9017199707031,-0.843896746635437,0.6032674908638,0.0536117739975452
1758278482549804000,238.9118039550781,-0.5800466537475586,0.5200742483139038,0.0968894958496093
1758278482559888100,238.92188818359372,-0.3089812695980072,0.3620310425758362,0.1474924981594085
1758278482569972000,238.9319719238281,-0.0561689287424087,0.1983165442943573,0.2284121513366699
1758278482580056000,238.94205615234372,0.1430887877941131,0.0724262595176696,0.359601080417633
1758278482590141200,238.95214111328124,0.3136183321475982,0.0287945661693811,0.4956710934638977
1758278482600225000,238.96222509765624,0.4824377298355102,0.037568349391222,0.6027048826217651
1758278482610309000,238.97230908203124,0.645551860332489,0.0757518336176872,0.7015958428382874
1758278482620393000,238.98239306640625,0.7906097173690796,0.1734957098960876,0.7887760400772095
1758278482630477000,238.99247705078125,0.912514328956604,0.3545351326465606,0.861942708492279
1758278482640561200,239.00256103515625,1.015397548675537,0.562576174736023,0.9277336597442628
1758278482650645000,239.01264501953125,1.1150262355804443,0.7807601094245911,0.9990184307098388
1758278482660729000,239.02272900390625,1.2283507585525513,0.9827680587768556,1.080963134765625
1758278482670813200,239.0328132324219,1.3648319244384766,1.1864924430847168,1.162796139717102
1758278482680897000,239.04289697265625,1.545246720314026,1.4343243837356567,1.2323083877563477
1758278482690981000,239.0529812011719,1.7715545892715454,1.7371374368667605,1.2860794067382812
1758278482701066000,239.06306591796877,2.053144216537476,2.0913960933685303,1.3266880512237549
1758278482711150000,239.0731501464844,2.387913227081299,2.468604564666748,1.353225588798523
1758278482721234200,239.08323413085935,2.76276969909668,2.810356616973877,1.3749420642852783
1758278482731318000,239.0933181152344,3.173812866210937,3.1010642051696777,1.3716907501220703
1758278482741402000,239.10340209960935,3.5749526023864746,3.343940258026123,1.3446465730667114
1758278482751486000,239.11348583984372,3.921315908432007,3.551908493041992,1.301653265953064
1758278482761570000,239.12357006835936,4.198550224304199,3.693991184234619,1.235985279083252
1758278482771654100,239.1336540527344,4.402314186096191,3.755459785461426,1.1541272401809692
1758278482781738000,239.1437380371094,4.53451681137085,3.778891086578369,1.0470598936080933
1758278482791822000,239.1538220214844,4.5936689376831055,3.758350372314453,0.9319475293159484
1758278482801906200,239.16390625,4.589771270751953,3.713714122772217,0.8163359761238098
1758278482811990000,239.1739899902344,4.523897647857666,3.651524782180786,0.6876603364944458
1758278482822075100,239.1840751953125,4.408381462097168,3.582826614379883,0.5117705464363098
1758278482832159000,239.19415893554688,4.263086318969727,3.6522178649902335,0.3409051299095154
