time,seconds_elapsed,z,y,x
1759585027621699600,0.035699462890625,2.520495797729492,9.329455681610106,-1.1979986557006834
1759585027631683600,0.04568359375,2.5311200675964356,9.345616542816161,-1.2336124053955078
1759585027641668600,0.055668701171875,2.55371534576416,9.280823460388183,-1.3230956924438475
1759585027651652600,0.065652587890625,2.5100211654663083,9.17473039932251,-1.3928268157958983
1759585027661636600,0.07563671875,2.401683540344238,9.18759923324585,-1.3699322624206542
1759585027671620600,0.08562060546875,2.41320563583374,9.260173471069335,-1.209221475982666
1759585027681605600,0.095605712890625,2.523787825012207,9.34696328125,-0.9114426445007323
1759585027691589600,0.105589599609375,2.652476164245605,9.478195459747313,-0.6670844375610351
1759585027701573600,0.11557373046875,2.654421453094482,9.516502686309813,-0.7363666481018066
1759585027711558700,0.12555859375,2.5354595581054684,9.402179557037353,-1.0507552536010742
1759585027721542700,0.135542724609375,2.428618309020996,9.35953283996582,-1.3016975151062011
1759585027731526700,0.145526611328125,2.430563597869873,9.369109646606445,-1.402553260040283
1759585027741511700,0.15551171875,2.4341549003601073,9.425971936035156,-1.3506290115356445
1759585027751495700,0.16549560546875,2.5005939964294432,9.436895481109618,-1.2521674682617188
1759585027761479700,0.175479736328125,2.5763106239318847,9.363273780059814,-1.2384008087158203
1759585027771464700,0.185464599609375,2.479195819091797,9.304166926574707,-1.172859538269043
1759585027781448700,0.19544873046875,2.408866145324707,9.315539384460449,-1.0660182891845702
1759585027791432700,0.2054326171875,2.436848377227783,9.3715038482666,-0.9183259742736816
1759585027801417500,0.21541748046875,2.4904186393737793,9.360729940795897,-0.8198644309997558
1759585027811401700,0.225401611328125,2.464980246734619,9.336039736175536,-0.8586205703735351
1759585027821385700,0.2353857421875,2.501940734863281,9.335141910552977,-1.0664672019958497
1759585027831370500,0.24537060546875,2.5393501358032227,9.390058911132812,-1.294065997314453
1759585027841354500,0.2553544921875,2.586186705780029,9.400234268188475,-1.500865165710449
1759585027851338800,0.2653388671875,2.564788528442383,9.308805692291259,-1.5714941146850585
1759585027861323500,0.275323486328125,2.4980501571655274,9.362824867248534,-1.32144967880249
1759585027871307500,0.2853076171875,2.4896704513549803,9.409212524414063,-1.0034697708129883
1759585027881291500,0.29529150390625,2.5104700782775877,9.40457375869751,-0.7697358337402344
1759585027891276500,0.305276611328125,2.51540811920166,9.437643669128418,-0.7018003616333007
1759585027901260500,0.315260498046875,2.524984925842285,9.490465743255614,-0.7835024932861328
1759585027911244500,0.32524462890625,2.5240871002197265,9.440636421203612,-0.987009634399414
1759585027921229600,0.3352294921875,2.440888592529297,9.39769042892456,-1.3093290328979492
1759585027931213600,0.345213623046875,2.422932080078125,9.350255308532715,-1.591695191192627
1759585027941197600,0.355197509765625,2.4657284347534176,9.350554583740234,-1.6114473548889159
1759585027951182600,0.3651826171875,2.497750881958008,9.39813934173584,-1.3848960227966307
1759585027961166600,0.37516650390625,2.5176526832580564,9.369259284210205,-1.1315595596313477
1759585027971150600,0.385150634765625,2.524984925842285,9.323769452667236,-0.9457096557617187
1759585027981135600,0.395135498046875,2.513462830352783,9.34022958908081,-0.877175633239746
1759585027991119600,0.40511962890625,2.5432407135009765,9.408015423583985,-0.939125601196289
1759585028001103600,0.415103515625,2.5623943267822265,9.433753091430663,-1.0676643028259276
1759585028011088600,0.425088623046875,2.543539988708496,9.413701652526855,-1.1921627891540527
1759585028021072600,0.43507275390625,2.3778911613464353,9.403376657867431,-1.3007996894836424
1759585028031056600,0.445056640625,2.2732944763183593,9.31479119644165,-1.3385083656311034
1759585028041041700,0.455041748046875,2.351704580688476,9.341127414703369,-1.1903671379089356
1759585028051025700,0.465025634765625,2.4657284347534176,9.481936399841308,-1.0723030685424804
1759585028061009700,0.475009765625,2.5617957763671875,9.496600885009766,-1.045069024658203
1759585028070994700,0.48499462890625,2.5604490379333495,9.424325922393798,-1.093701245880127
1759585028080978700,0.494978759765625,2.4999954460144043,9.39813934173584,-1.1095628318786621
1759585028090962700,0.504962646484375,2.4727614021301267,9.362076679229736,-1.1405378158569335
1759585028100947700,0.51494775390625,2.409315058135986,9.285312588500975,-1.1764508407592773
1759585028110931700,0.524931640625,2.3713071067810056,9.22545754699707,-1.191264963531494
1759585028120915700,0.534915771484375,2.360832474517822,9.26316622314453,-1.1305120964050293
1759585028130900700,0.544900634765625,2.354398057556152,9.394548039245604,-1.0854711776733397
1759585028140884700,0.554884765625,2.38776724319458,9.475501982879639,-1.0850222648620604
1759585028150868700,0.56486865234375,2.492363928222656,9.449913952636718,-1.1315595596313477
1759585028160853500,0.574853515625,2.4561516281127926,9.44198315963745,-1.1815385192871093
1759585028170837800,0.584837646484375,2.4254759193420408,9.388712172698973,-1.214309154510498
1759585028180821800,0.59482177734375,2.4543559768676757,9.347262556457519,-1.2457330513000489
1759585028190806500,0.604806640625,2.475155603790283,9.374945513153076,-1.2198457458496093
1759585028200790500,0.61479052734375,2.498349432373047,9.373449137115477,-1.1605892547607422
1759585028210774800,0.62477490234375,2.497601244354248,9.37838717803955,-1.1007342132568358
1759585028220759600,0.634759521484375,2.4537574264526367,9.383325218963623,-1.0945990715026854
1759585028230743600,0.64474365234375,2.352452768707275,9.396194052886962,-1.1546037506103515
1759585028240727600,0.6547275390625,2.3874679679870603,9.334842635345458,-1.1966519172668457
1759585028250712600,0.664712646484375,2.4389433036804196,9.34127705230713,-1.2349591438293457
1759585028260696600,0.674696533203125,2.4800936447143553,9.396343690490722,-1.2777554985046387
1759585028270680600,0.6846806640625,2.4666262603759765,9.367912545776367,-1.2801497001647948
1759585028280665600,0.69466552734375,2.457348728942871,9.308805692291259,-1.1828852577209472
1759585028290649600,0.704649658203125,2.469619012451172,9.341875602722167,-1.0170867927551268
1759585028300633600,0.714633544921875,2.4634838706970212,9.372700949096679,-0.9183259742736816
1759585028310618600,0.72461865234375,2.45151286239624,9.408913249206542,-1.0205284576416016
1759585028320602600,0.7346025390625,2.4028806411743164,9.371054935455321,-1.1953051788330078
1759585028330586600,0.744586669921875,2.442235330963135,9.367313995361327,-1.283890640258789
1759585028340571600,0.754571533203125,2.5104700782775877,9.432256715393066,-1.2892775939941405
1759585028350555600,0.7645556640625,2.533963182067871,9.438092581939697,-1.2250830619812012
1759585028360539600,0.77453955078125,2.5248352882385254,9.394398401641846,-1.1403881782531737
1759585028370524700,0.784524658203125,2.464980246734619,9.400683180999755,-1.0956465347290039
1759585028380508700,0.7945087890625,2.388365793609619,9.376441889190673,-1.1586439659118652
1759585028390492700,0.80449267578125,2.358438272857666,9.386617246246338,-1.2541127571105957
1759585028400477700,0.814477783203125,2.408566870117187,9.399037167358397,-1.260247898864746
1759585028410461700,0.824461669921875,2.4486697479248045,9.380182829284667,-1.218798282623291
1759585028420445700,0.83444580078125,2.488772625732422,9.39769042892456,-1.1770493911743163
1759585028430430700,0.8444306640625,2.457348728942871,9.37195276107788,-1.188122573852539
1759585028440414700,0.854414794921875,2.4631845954895017,9.339481401062011,-1.191264963531494
1759585028450398700,0.864398681640625,2.486528061676025,9.39095673675537,-1.0959458099365234
1759585028460383700,0.8743837890625,2.529474053955078,9.385869058227538,-1.0085574493408203
1759585028470367500,0.884367431640625,2.516754857635498,9.367463632965087,-1.0212766456604003
1759585028480351500,0.8943515625,2.5137621055603026,9.351751684570312,-1.1595417915344237
1759585028490335500,0.90433544921875,2.412008535003662,9.235782541656494,-1.4722843833923338
1759585028500320500,0.914320556640625,2.2882582366943356,9.198223503112793,-1.5945383056640625
1759585028510304500,0.924304443359375,2.350058567047119,9.305812940216065,-1.38549457321167
1759585028520288500,0.93428857421875,2.505083124542236,9.437793306732177,-1.1731588134765625
1759585028530273500,0.9442734375,2.5445874519348144,9.539846152496338,-1.0449193870544433
1759585028540257500,0.954257568359375,2.5629928771972654,9.591471125793456,-0.9735422500610351
1759585028550241500,0.964241455078125,2.5296236915588377,9.571569324493408,-1.0019733947753906
1759585028560226600,0.9742265625,2.4486697479248045,9.470414304351806,-1.1851298217773436
1759585028570210600,0.98421044921875,2.2994810569763184,9.248950650787354,-1.445499252319336
1759585028580194600,0.994194580078125,2.2774843292236326,9.172485835266112,-1.4661492416381836
1759585028590179300,1.004179443359375,2.392854921722412,9.324218365478515,-1.256357321166992
1759585028600163600,1.01416357421875,2.5712229454040525,9.424325922393798,-1.0708066925048827
1759585028610147600,1.024147705078125,2.6696844886779783,9.448417576599121,-1.058536408996582
1759585028620132400,1.03413232421875,2.57286895904541,9.43599765548706,-1.167023671722412
1759585028630116400,1.044116455078125,2.5118168167114256,9.421183532714844,-1.3428478561401367
1759585028640100400,1.054100341796875,2.398990063476562,9.335740460968017,-1.4475941787719726
1759585028650085400,1.06408544921875,2.3217770599365233,9.302820188140869,-1.4118307914733885
1759585028660069400,1.0740693359375,2.3904607200622556,9.313145182800293,-1.2609960868835448
1759585028670053400,1.084053466796875,2.448370472717285,9.399785355377198,-1.158793603515625
1759585028680038400,1.094038330078125,2.5149592063903805,9.444377361297606,-1.09160631942749
1759585028690022400,1.1040224609375,2.544886727142334,9.382427393341064,-1.0601824226379395
1759585028700006400,1.11400634765625,2.5377041221618653,9.326313291931152,-1.1243769546508788
1759585028709991400,1.123991455078125,2.5281273155212403,9.393949488830566,-1.1876736610412597
1759585028719975400,1.133975341796875,2.5302222419738767,9.46757118988037,-1.189918225097656
1759585028729959400,1.14395947265625,2.456750178527832,9.44303062286377,-1.169717148590088
1759585028739944400,1.1539443359375,2.2972364929199216,9.298181422424316,-1.2141595169067383
1759585028749928400,1.163928466796875,2.221070952606201,9.234735078430175,-1.271769994354248
1759585028759912400,1.173912353515625,2.330904953765869,9.319280324554443,-1.2204442962646485
1759585028769897500,1.1838974609375,2.4959552307128905,9.386467608642578,-1.1285668075561524
1759585028779881500,1.193881591796875,2.6069863327026366,9.466673364257812,-1.1620856307983398
1759585028789865500,1.203865478515625,2.6204537170410154,9.444826274108886,-1.2642881141662596
1759585028799850500,1.2138505859375,2.5602994003295896,9.395595502471924,-1.3147159866333007
1759585028809834500,1.22383447265625,2.452859600830078,9.395296227264403,-1.2882301307678221
1759585028819818500,1.233818603515625,2.3511060302734372,9.36551834411621,-1.3166612754821776
1759585028829803500,1.243803466796875,2.3220763351440428,9.360430665588378,-1.3385083656311034
1759585028839787500,1.25378759765625,2.406322306060791,9.35354733581543,-1.2018892333984375
1759585028849771500,1.263771484375,2.4883237129211424,9.372850586700439,-1.0452186622619628
1759585028859756500,1.273756591796875,2.559251937103271,9.444078086090087,-1.0667664772033691
1759585028869740500,1.283740478515625,2.55371534576416,9.46802010269165,-1.2933178092956543
1759585028879724500,1.293724609375,2.5254338386535644,9.385420145416258,-1.5719430274963377
1759585028889709600,1.30370947265625,2.450315761566162,9.405172309112547,-1.6183306846618652
1759585028899693600,1.313693603515625,2.3939023849487304,9.446173012542724,-1.4727332962036133
1759585028909677600,1.323677490234375,2.423680268096924,9.396044415283203,-1.2792518745422363
1759585028919662600,1.33366259765625,2.47710089263916,9.35354733581543,-1.054645831298828
1759585028929646600,1.343646484375,2.553116795349121,9.32137525100708,-0.845302823638916
1759585028939630600,1.353630615234375,2.5068787757873534,9.195230751037597,-0.9274538681030273
1759585028949615400,1.363615478515625,2.3939023849487304,9.181464091491698,-1.1468225952148436
1759585028959599600,1.373599609375,2.401833177947998,9.346215093231201,-1.2928688964843749
1759585028969583600,1.38358349609375,2.4971523315429685,9.466523726654053,-1.3651438591003417
1759585028979568400,1.393568359375,2.5317186180114746,9.504531678009032,-1.372027188873291
1759585028989552400,1.403552490234375,2.552967157745361,9.496301609802245,-1.2961609237670897
1759585028999536600,1.41353662109375,2.540098323822021,9.399785355377198,-1.2630910133361815
1759585029009521400,1.423521484375,2.4703672004699704,9.299228885650635,-1.2431892120361328
1759585029019505400,1.43350537109375,2.420986791229248,9.28351693725586,-1.1972504676818847
1759585029029489400,1.443489501953125,2.4335563499450683,9.345616542816161,-1.1414356414794922
1759585029039474400,1.453474365234375,2.499546533203125,9.455450543975829,-1.1029787773132325
1759585029049458400,1.46345849609375,2.520495797729492,9.477147996520996,-1.112106671142578
1759585029059442400,1.4734423828125,2.421435704040527,9.41011035003662,-1.219995383453369
1759585029069427500,1.483427490234375,2.320729596710205,9.315838659667968,-1.3991115951538085
1759585029079411500,1.493411376953125,2.3240216239929197,9.325864379119873,-1.4263456390380858
1759585029089395500,1.5033955078125,2.41964005279541,9.329455681610106,-1.3114239593505859
1759585029099380500,1.51338037109375,2.469619012451172,9.337835387420654,-1.1725602630615233
1759585029109364500,1.523364501953125,2.5248352882385254,9.354594799041747,-1.0754454582214354
1759585029119348500,1.533348388671875,2.6050410438537597,9.30296982574463,-1.09160631942749
1759585029129333500,1.54333349609375,2.559251937103271,9.277082520294188,-1.1999439445495605
1759585029139317500,1.5533173828125,2.482787121582031,9.386317971038817,-1.3082815696716308
1759585029149301500,1.563301513671875,2.4775498054504395,9.39739115371704,-1.3652934967041015
1759585029159286500,1.57328662109375,2.4557027153015136,9.40457375869751,-1.3453916954040526
1759585029169270500,1.5832705078125,2.410811434173584,9.437045118713378,-1.2892775939941405
1759585029179254500,1.593254638671875,2.354547695159912,9.395745140075682,-1.3658920471191405
1759585029189239600,1.603239501953125,2.2911013511657714,9.274987593841551,-1.5370774658203123
1759585029199223600,1.6132236328125,2.3063643867492676,9.220220230865477,-1.4876970565795897
1759585029209207600,1.62320751953125,2.3708581939697266,9.338134662628173,-1.3512275619506835
1759585029219192600,1.633192626953125,2.442235330963135,9.433154541015625,-1.2378022583007813
1759585029229176600,1.643176513671875,2.531419342803955,9.497049797821044,-1.1176432624816894
1759585029239160600,1.65316064453125,2.6027964797973633,9.493308857727051,-1.025915411376953
1759585029249145600,1.6631455078125,2.5737667846679684,9.46787046508789,-1.059134959411621
1759585029259129600,1.673129638671875,2.465429159545898,9.398588254547118,-1.2381015335083008
1759585029269113600,1.683113525390625,2.3536498695373536,9.329006768798827,-1.3938742790222167
1759585029279098600,1.6930986328125,2.318784307861328,9.240870220184325,-1.4267945518493652
1759585029289082600,1.70308251953125,2.396745499420166,9.221417331695555,-1.2732663703918456
1759585029299066600,1.713066650390625,2.4824878463745117,9.332598071289063,-1.0926537826538085
1759585029309051400,1.723051513671875,2.5068787757873534,9.415646941375732,-1.0726023437499999
1759585029319035600,1.73303564453125,2.5248352882385254,9.412803826904296,-1.2101193016052245
1759585029329019600,1.74301953125,2.494309217071533,9.34741219406128,-1.3798083442687987
1759585029339004400,1.75300439453125,2.429965047454834,9.318831411743163,-1.4718354705810546
1759585029348988400,1.762988525390625,2.397942600250244,9.367912545776367,-1.418714121246338
1759585029358972700,1.77297265625,2.390759995269775,9.396343690490722,-1.2517185554504393
1759585029368957400,1.78295751953125,2.416946575927734,9.413701652526855,-1.111508120727539
1759585029378941400,1.79294140625,2.41949041519165,9.393500576019287,-1.2319663917541503
1759585029388925400,1.802925537109375,2.3611317497253417,9.334393722534179,-1.4502876556396485
1759585029398910500,1.812910400390625,2.371756019592285,9.35205095977783,-1.4826093780517577
1759585029408894500,1.82289453125,2.4200889656066895,9.413402377319336,-1.4419079498291014
1759585029418878500,1.83287841796875,2.4666262603759765,9.455450543975829,-1.3792097938537597
1759585029428863500,1.842863525390625,2.513313192749023,9.396343690490722,-1.2779051361083984
1759585029438847500,1.852847412109375,2.4914661026000977,9.343970529174804,-1.1804910560607909
1759585029448831500,1.86283154296875,2.403628829193115,9.353696973419188,-1.1176432624816894
1759585029458816800,1.872816650390625,2.363525951385498,9.377040439605713,-1.1561001266479491
1759585029468800800,1.88280078125,2.4172458511352537,9.427468312072753,-1.2183493698120116
1759585029478784800,1.89278466796875,2.4814403831481933,9.426570486450196,-1.3160627250671386
1759585029488769800,1.902769775390625,2.4594436553955075,9.335441185760498,-1.5363292778015136
1759585029498753800,1.91275390625,2.3823802894592285,9.242067321014403,-1.7366940292358397
1759585029508737800,1.92273779296875,2.353949144744873,9.216778565979004,-1.7085621597290037
1759585029518722800,1.932722900390625,2.35574479598999,9.222315157318114,-1.5307926864624022
1759585029528706800,1.942706787109375,2.359036823272705,9.31464155883789,-1.3468880714416502
1759585029538690800,1.95269091796875,2.49011936416626,9.53790086364746,-1.042525185394287
1759585029548675800,1.96267578125,2.633472188568115,9.60194575805664,-0.8710404914855957
1759585029558659800,1.972659912109375,2.5827450408935544,9.479242922973633,-0.9708487731933593
1759585029568643800,1.982643798828125,2.447771922302246,9.341875602722167,-1.3045406295776367
1759585029578628900,1.99262890625,2.3898621696472166,9.217077841186523,-1.5255553703308105
1759585029588612900,2.00261279296875,2.3952491233825683,9.17981807785034,-1.4908394462585448
1759585029598596900,2.012596923828125,2.4158991127014158,9.258677095031738,-1.402553260040283
1759585029608582000,2.022581787109375,2.3965958618164063,9.363573055267333,-1.3807061698913574
1759585029618566000,2.03256591796875,2.4064719436645507,9.417143317413329,-1.3334206871032714
1759585029628550000,2.0425498046875,2.4904186393737793,9.457994383239745,-1.303044253540039
1759585029638535000,2.052534912109375,2.5240871002197265,9.482534950256348,-1.2810475257873535
1759585029648519000,2.062518798828125,2.5477298416137693,9.484180963897705,-1.3531728507995604
1759585029658503000,2.0725029296875,2.5225907241821286,9.409661437225342,-1.4074913009643555
1759585029668487700,2.08248779296875,2.417096213531494,9.361927041625975,-1.4378677345275879
1759585029678471700,2.0924716796875,2.346167989349365,9.313594095611572,-1.3952210174560546
1759585029688456000,2.1024560546875,2.347664365386963,9.300126711273192,-1.256357321166992
1759585029698440700,2.112440673828125,2.365321602630615,9.3730002243042,-1.125574055480957
1759585029708424700,2.1224248046875,2.4289175842285156,9.426420848846435,-1.0465654006958007
1759585029718408700,2.13240869140625,2.5386019477844237,9.416095854187011,-1.0809820495605469
1759585029728393700,2.142393798828125,2.5745149726867673,9.385869058227538,-1.2638392013549804
1759585029738377700,2.152377685546875,2.4753052413940426,9.229198487091065,-1.5955857688903807
1759585029748361700,2.16236181640625,2.360832474517822,9.1293902053833,-1.7902642913818358
1759585029758346800,2.1723466796875,2.319382858276367,9.217826029205321,-1.6288053169250487
1759585029768330800,2.182330810546875,2.3609821121215817,9.304316564178466,-1.313219610595703
1759585029778314800,2.192314697265625,2.428618309020996,9.398588254547118,-1.0947487091064452
1759585029788299800,2.2022998046875,2.5101708030700682,9.451709603881836,-1.0660182891845702
1759585029798283800,2.21228369140625,2.457199091339111,9.418639693450928,-1.2701239807128906
1759585029808267500,2.222267578125,2.3870190551757813,9.3730002243042,-1.5270517463684081
1759585029818252800,2.232252685546875,2.3153426429748536,9.383325218963623,-1.562964771270752
1759585029828236800,2.24223681640625,2.334795531463623,9.394398401641846,-1.3901333389282227
1759585029838220500,2.252220458984375,2.4268226577758787,9.36566798171997,-1.1945569908142089
1759585029848205800,2.262205810546875,2.5049334869384765,9.405022671508789,-1.000477018737793
1759585029858189800,2.27218994140625,2.5740660598754883,9.459341121673583,-1.0537480056762694
1759585029868173600,2.282173583984375,2.580500476837158,9.457246195220947,-1.3792097938537597
1759585029878158800,2.292158935546875,2.4417864181518554,9.382577030944823,-1.7809867599487303
1759585029888142800,2.302142822265625,2.3509563926696777,9.293243381500243,-1.883937431335449
1759585029898126600,2.312126708984375,2.3753473220825194,9.338433937835692,-1.6256629272460936
1759585029908112000,2.32211181640625,2.4283190338134766,9.361927041625975,-1.2912228828430174
1759585029918096000,2.332095947265625,2.4889222633361814,9.33978067626953,-1.0550947441101073
1759585029928079600,2.34207958984375,2.5082255142211913,9.345616542816161,-0.929548794555664
1759585029938065000,2.35206494140625,2.5043349365234375,9.315838659667968,-0.9383774131774901
1759585029948048600,2.362048583984375,2.484133860015869,9.317484673309325,-1.1795932304382324
1759585029958032600,2.37203271484375,2.5095722526550293,9.382427393341064,-1.3962684806823729
1759585029968018000,2.382017822265625,2.4664766227722166,9.386916521453857,-1.6289549545288085
1759585029978001700,2.392001708984375,2.3777415237426758,9.2948893951416,-1.754351266479492
1759585029987985700,2.401985595703125,2.3594857360839843,9.321973801422118,-1.5734394035339354
1759585029997971000,2.411970947265625,2.3759458724975584,9.334842635345458,-1.303044253540039
1759585030007954700,2.42195458984375,2.4220342544555664,9.381230292510987,-1.145326219177246
1759585030017938700,2.431938720703125,2.484732410430908,9.437494031524658,-1.07245270614624
1759585030027923700,2.441923828125,2.5279776779174803,9.414150565338135,-1.1067197174072265
1759585030037907700,2.45190771484375,2.405574118041992,9.355642262268066,-1.260247898864746
1759585030047891700,2.4618916015625,2.3036709098815917,9.290400267028808,-1.3383587280273437
1759585030057876700,2.471876708984375,2.310404602050781,9.326163654327392,-1.2936170845031738
1759585030067860500,2.481860595703125,2.392106733703613,9.401880281829833,-1.246780514526367
1759585030077844700,2.4918447265625,2.4438813446044922,9.451111053466796,-1.3189058395385742
1759585030087829800,2.501829833984375,2.4727614021301267,9.386766883850097,-1.406443837738037
1759585030097813500,2.5118134765625,2.4404396797180175,9.372700949096679,-1.448492004394531
1759585030107797500,2.521797607421875,2.438045478057861,9.425822298431395,-1.432630418395996
1759585030117782500,2.531782470703125,2.4863784240722655,9.444676636505127,-1.3082815696716308
1759585030127766500,2.5417666015625,2.5086744270324703,9.427318674468994,-1.1846809089660644
1759585030137750500,2.55175048828125,2.4392425788879395,9.376441889190673,-1.1145008728027344
1759585030147735600,2.561735595703125,2.3855226791381834,9.306261853027344,-1.152359186553955
1759585030157719600,2.571719482421875,2.329707852935791,9.292046280670165,-1.331774673461914
1759585030167703600,2.58170361328125,2.307112574768066,9.265710062408447,-1.502211904144287
1759585030177688600,2.5916884765625,2.3738509460449215,9.292195918273926,-1.5059528442382812
1759585030187672600,2.601672607421875,2.4250270065307618,9.377190077209471,-1.3543699516296386
1759585030197656600,2.611656494140625,2.4486697479248045,9.42402664718628,-1.2451345008850097
1759585030207641600,2.6216416015625,2.415300562286377,9.384522319793701,-1.1733084510803222
1759585030217625600,2.63162548828125,2.3261165504455565,9.339631038665772,-1.177947216796875
1759585030227609600,2.641609619140625,2.3253683624267576,9.338284300231933,-1.2648866645812988
1759585030237594600,2.6515947265625,2.4396914916992185,9.326762204742431,-1.2765583976745605
1759585030247578600,2.66157861328125,2.529324416351318,9.312546632385253,-1.294065997314453
1759585030257562600,2.671562744140625,2.5472809288024902,9.334992272949219,-1.3097779457092285
1759585030267547600,2.681547607421875,2.513612467956543,9.411008175659179,-1.395071379852295
1759585030277531600,2.69153173828125,2.4003368019104,9.422829546356201,-1.6114473548889159
1759585030287515600,2.701515625,2.31758720703125,9.459640396881102,-1.6162357582092284
1759585030297500700,2.711500732421875,2.316240468597412,9.489418280029296,-1.4170681076049805
1759585030307484700,2.721484619140625,2.4064719436645507,9.457395832824707,-1.2282254516601563
1759585030317468700,2.73146875,2.5011925468444822,9.356091175079346,-1.0682628532409668
1759585030327453700,2.74145361328125,2.564638890838623,9.293841931915283,-0.9147346717834473
1759585030337437700,2.751437744140625,2.537105571746826,9.293841931915283,-0.8295908752441405
1759585030347421700,2.761421630859375,2.465429159545898,9.339182125854492,-1.0006266563415527
1759585030357406700,2.77140673828125,2.4082675949096677,9.375693701171874,-1.3130699729919433
1759585030367390700,2.781390625,2.3377882835388184,9.392752388000488,-1.6699556579589843
1759585030377374700,2.791374755859375,2.463633508300781,9.430909976959228,-1.8415899894714354
1759585030387359700,2.80135986328125,2.486827336883545,9.498396536254882,-1.7378911300659179
1759585030397343700,2.81134375,2.476352704620361,9.4864255279541,-1.4841057540893554
1759585030407327700,2.82132763671875,2.5377041221618653,9.344419441986084,-1.2632406509399414
1759585030417312500,2.8313125,2.5686791061401366,9.288305340576171,-1.0992378372192382
1759585030427296500,2.841296630859375,2.460042205810547,9.277830708312989,-1.1137526847839354
1759585030437280800,2.85128076171875,2.305316923522949,9.259874195861816,-1.2184990074157713
1759585030447265500,2.861265625,2.2704513618469235,9.356240812683104,-1.2358569694519042
1759585030457249500,2.87124951171875,2.3829788398742675,9.508571893310547,-1.2177508193969726
1759585030467234300,2.881234375,2.5739164222717283,9.532962822723388,-1.2885294059753418
1759585030477219300,2.89121923828125,2.6500819625854493,9.465176988220215,-1.3672387855529784
1759585030487203300,2.901203369140625,2.6153660385131836,9.411157813262939,-1.3736732025146483
1759585030497187300,2.911187255859375,2.506579500579834,9.40382557067871,-1.2814964385986327
1759585030507172400,2.92117236328125,2.429815409851074,9.434501279449462,-1.1736077262878417
1759585030517156400,2.93115625,2.455403440093994,9.412055638885498,-1.139639990234375
1759585030527140400,2.941140380859375,2.475155603790283,9.349207845306395,-1.2349591438293457
1759585030537125400,2.95112548828125,2.378190436553955,9.319429962158203,-1.3103764961242674
1759585030547109400,2.961109375,2.4091654205322266,9.30296982574463,-1.3781623306274413
1759585030557093400,2.97109326171875,2.5656863540649413,9.343970529174804,-1.36634095993042
1759585030567078400,2.981078369140625,2.572120771026611,9.3722520362854,-1.3111246841430664
1759585030577062400,2.9910625,2.4911668273925778,9.35354733581543,-1.237951895904541
1759585030587046400,3.00104638671875,2.4404396797180175,9.315689022064209,-1.1267711563110352
1759585030597031400,3.011031494140625,2.420837153625488,9.313444458007812,-1.0904092185974121
1759585030607015400,3.021015380859375,2.464980246734619,9.3086560546875,-1.1860276473999023
1759585030616999400,3.03099951171875,2.452261050415039,9.305364027404785,-1.3307272102355956
1759585030626984400,3.040984375,2.4341549003601073,9.310900618743895,-1.4335282440185546
1759585030636968400,3.050968505859375,2.4769512550354,9.368211820983886,-1.4432546882629393
1759585030646952400,3.060952392578125,2.4884733505249024,9.416095854187011,-1.3718775512695311
1759585030656937500,3.0709375,2.5035867485046386,9.415048390960694,-1.2282254516601563
1759585030666921500,3.08092138671875,2.4633342330932617,9.420285707092285,-1.1127052215576172
1759585030676905500,3.090905517578125,2.3880665184020993,9.374346962738036,-1.0818798751831054
1759585030686890200,3.10089013671875,2.440888592529297,9.368511096191405,-1.1637316444396972
1759585030696874500,3.11087451171875,2.480991470336914,9.376741164398192,-1.324143155670166
1759585030706858500,3.1208583984375,2.4494179359436035,9.361478128814698,-1.4435539634704588
1759585030716843300,3.13084326171875,2.4639327835083007,9.388412897491454,-1.5408184059143066
1759585030726827300,3.1408271484375,2.4334067123413083,9.389909273529053,-1.528997035217285
1759585030736811500,3.1508115234375,2.4064719436645507,9.37255131149292,-1.3814543579101561
1759585030746796300,3.16079638671875,2.3612813873291016,9.400084630584717,-1.1953051788330078
1759585030756780300,3.1707802734375,2.3183353950500485,9.402329194641112,-1.0842740768432617
1759585030766764300,3.180764404296875,2.3391350219726563,9.364021968078612,-1.0624269866943359
1759585030776749300,3.190749267578125,2.4218846168518064,9.368810371398926,-1.1385925270080566
1759585030786733300,3.2007333984375,2.4389433036804196,9.421183532714844,-1.2440870376586914
1759585030796717300,3.21071728515625,2.401683540344238,9.45530090637207,-1.4411597618103027
1759585030806702300,3.220702392578125,2.428019758605957,9.453654892730713,-1.5219640678405761
1759585030816686300,3.230686279296875,2.3933038345336914,9.508122980499268,-1.448641641998291
1759585030826670300,3.24067041015625,2.327612926483154,9.554809912872313,-1.2439374000549315
1759585030836655400,3.2506552734375,2.2780828796386716,9.540743978118895,-1.0134954902648925
1759585030846639400,3.260639404296875,2.316090830993652,9.492261394500732,-0.8087912483215332
1759585030856623400,3.270623291015625,2.372204932403564,9.411157813262939,-0.7618050407409668
1759585030866608400,3.2806083984375,2.441337505340576,9.384522319793701,-0.9466074813842773
1759585030876592400,3.29059228515625,2.41949041519165,9.351302771759032,-1.2006921325683593
1759585030886576400,3.300576416015625,2.41320563583374,9.342324515533447,-1.423053611755371
1759585030896561400,3.3105615234375,2.3395839347839353,9.370755660247802,-1.543062969970703
1759585030906545400,3.32054541015625,2.2246622550964354,9.381679205322266,-1.427542739868164
1759585030916529400,3.330529296875,2.1978771240234374,9.375693701171874,-1.1962030044555663
1759585030926514400,3.340514404296875,2.20236625213623,9.361927041625975,-0.9048585899353027
1759585030936498400,3.35049853515625,2.286013672637939,9.400832818603515,-0.6726210289001464
1759585030946482400,3.360482421875,2.3950994857788084,9.448866489410399,-0.6679822631835937
1759585030956467500,3.370467529296875,2.439541854095459,9.447370113372802,-0.9099462684631348
1759585030966451500,3.380451416015625,2.4054244804382323,9.462184236145019,-1.2683283294677734
1759585030976435500,3.390435546875,2.3054665611267087,9.411606726074218,-1.5527894142150878
1759585030986420500,3.40042041015625,2.191741982269287,9.399934992980956,-1.575683967590332
1759585030996404500,3.410404541015625,2.143857949066162,9.412504551696777,-1.3588590797424316
1759585031006388500,3.420388427734375,2.198176399230957,9.448267938995361,-1.1153986984252928
1759585031016373500,3.43037353515625,2.2430676803588865,9.45530090637207,-0.9112930068969726
1759585031026357500,3.440357421875,2.2885575119018555,9.452757067108154,-0.8794201972961425
1759585031036341500,3.450341552734375,2.309207501220703,9.504382040405273,-0.9792284790039062
1759585031046326300,3.460326171875,2.2706009994506835,9.469217203521728,-1.1614870803833006
1759585031056310500,3.470310546875,2.1918916198730467,9.39694224090576,-1.3699322624206542
1759585031066294500,3.48029443359375,2.1128829650878904,9.399186804962158,-1.4287398406982421
1759585031076279300,3.490279296875,2.1375731697082516,9.408314698791504,-1.3015478775024414
1759585031086263300,3.50026318359375,2.1869535789489745,9.446621925354004,-1.1525088241577148
1759585031096247600,3.51024755859375,2.222866603851318,9.440636421203612,-1.1186907257080076
1759585031106232300,3.520232421875,2.249651734924316,9.578901567077637,-0.9961375282287597
1759585031116216300,3.53021630859375,2.3412299484252928,9.789292037963866,-0.838269856262207
1759585031126200300,3.540200439453125,2.300229244995117,9.827898539733885,-0.8819640365600585
1759585031136185300,3.550185302734375,2.2753894027709958,9.885209741973876,-1.0378864196777342
1759585031146169300,3.56016943359375,2.268206797790527,9.980379257965087,-1.1577461402893066
1759585031156153300,3.5701533203125,2.1727380065917967,10.021080686187744,-1.2937667221069336
1759585031166138400,3.580138427734375,2.1871032165527344,9.970952088928222,-1.3346177879333496
1759585031176122400,3.590122314453125,2.2379800018310547,9.873837284088134,-1.259050798034668
1759585031186106400,3.6001064453125,2.2049100914001465,9.806500362396239,-1.1875240234375
1759585031196091400,3.61009130859375,2.1799206115722654,9.702502227783203,-1.1273697067260742
1759585031206075400,3.620075439453125,2.0642507438659665,9.656563483428954,-1.1082160934448242
1759585031216059400,3.630059326171875,1.9642928245544433,9.59610989151001,-1.0187328063964842
1759585031226044400,3.64004443359375,1.923591396331787,9.402927745056152,-0.8409633331298828
1759585031236028400,3.6500283203125,1.8403928886413574,9.087342038726806,-0.8096890739440917
1759585031246012400,3.660012451171875,1.6730980476379393,8.627954595184326,-0.8125321884155273
1759585031255997400,3.66999755859375,1.6671125434875487,8.167968601226805,-0.8233060958862304
1759585031265981400,3.6799814453125,1.610848804473877,7.8724343338012694,-0.7425017898559569
1759585031275965400,3.68996533203125,1.4775216995239258,7.68029965057373,-0.5756558616638183
1759585031285950500,3.699950439453125,1.552041226196289,7.345560330963134,-0.5382464607238769
1759585031295934500,3.7099345703125,1.5607202072143553,7.063643085479736,-0.5722141967773438
1759585031305918500,3.71991845703125,1.560869844818115,6.8320040748596185,-0.5591957252502441
1759585031315903500,3.729903564453125,1.4381670097351074,6.618022301483154,-0.5334580574035644
1759585031325887500,3.739887451171875,1.3801076194763182,6.420351026916504,-0.5078700271606446
1759585031335871500,3.74987158203125,1.34718734664917,6.277147840118408,-0.4041711677551269
1759585031345856500,3.7598564453125,1.2565069587707518,6.170156953430175,-0.4198831161499023
1759585031355840500,3.769840576171875,1.1572972274780273,5.837063647460937,-0.536899722290039
1759585031365824500,3.779824462890625,1.0806827743530272,5.475389559173584,-0.6178536659240722
1759585031375809500,3.7898095703125,0.8806172981262207,5.213523752593994,-0.6260837341308594
1759585031385793500,3.79979345703125,0.830638338470459,4.918887310791015,-0.591816722869873
1759585031395777500,3.809777587890625,0.817769504547119,4.590582408142089,-0.4186860153198242
1759585031405762600,3.819762451171875,0.8702923034667969,4.410119458007812,-0.1497872413635254
1759585031415746600,3.82974658203125,0.9701005851745604,4.260481854248047,0.027234043884277342
1759585031425730600,3.83973046875,0.805050308227539,4.003254813385009,0.17552490921020505
1759585031435715300,3.84971533203125,0.5141548065185546,3.6682162185668945,0.3087023765563965
1759585031445699300,3.85969921875,0.09846154327392577,3.2378584701538085,0.43664252777099605
1759585031455683600,3.86968359375,-0.23912089080810545,2.954744123840332,0.5264250900268554
1759585031465667300,3.879667236328125,-0.6194996795654296,2.760664151763916,0.500537784576416
1759585031475651300,3.8896513671875,-0.974290438079834,2.3035212722778318,0.4418798439025879
1759585031485635300,3.89963525390625,-1.2358569694519042,1.7733552421569823,0.34611177749633787
1759585031495620400,3.909620361328125,-1.4767735115051268,1.4791677131652832,0.32576106338500976
1759585031505604400,3.919604248046875,-1.6549918975830078,1.3332710494995117,0.39279870986938475
1759585031515588400,3.92958837890625,-1.882141780090332,1.4823101028442383,0.5779004257202148
1759585031525573400,3.939573486328125,-2.163460475158691,1.9265841484069823,0.8456020988464354
1759585031535557400,3.949557373046875,-2.384026303100586,2.446874096679687,1.0651204635620117
1759585031545541400,3.959541259765625,-2.8323405639648436,3.1967081291198727,1.214907704925537
1759585031555526100,3.969526123046875,-3.2989106124877927,4.09258846282959,1.4049474617004394
1759585031565510400,3.979510498046875,-3.585316986083984,5.292981320190429,1.6558897232055663
1759585031575494100,3.989494140625,-3.8365585227966306,6.525246987152099,1.5750854171752928
1759585031585479200,3.999479248046875,-4.019415674591064,7.5519105865478515,1.1348515869140625
1759585031595463200,4.009463134765625,-4.127603662109375,8.244283779144286,0.5108627792358398
1759585031605447200,4.019447265625,-4.413710760498047,8.744223013305664,0.11641805572509765
1759585031615432200,4.02943212890625,-4.97335539855957,9.26361513595581,0.2867056488037109
1759585031625416200,4.039416259765625,-5.709722046661376,9.930400298309326,1.0787374855041503
1759585031635401200,4.049401123046875,-6.231508370971679,10.862492932128905,2.1971289360046384
1759585031645385200,4.05938525390625,-6.293308701324462,11.790096437835693,2.8526912780761715
1759585031655369200,4.069369140625,-6.351966641998291,12.717999218749998,2.784157255554199
1759585031665354200,4.079354248046875,-6.6271501953125,13.423540520477294,2.2782325172424316
1759585031675338200,4.089338134765625,-6.840084505462646,13.548487919616699,1.4776713371276855
1759585031685322200,4.099322265625,-7.119308274078369,13.434464065551756,0.7387608497619629
1759585031695307300,4.109307373046875,-7.056460480499267,13.302184423828125,0.5199906730651855
1759585031705291300,4.119291259765625,-6.988375370788574,13.656975182342528,1.0555436569213867
1759585031715275300,4.129275146484375,-7.073070254516601,14.38960089035034,2.261922018432617
1759585031725260300,4.13926025390625,-7.289895142364501,15.400702178955077,3.666420567321777
1759585031735244300,4.149244384765625,-7.4868182289123535,16.212935092163086,4.516212519073486
1759585031745228000,4.15922802734375,-7.746888384246826,16.3939965927124,4.60943674621582
1759585031755213300,4.16921337890625,-7.971943340301514,15.861436360931396,4.190002542877197
1759585031765197300,4.179197265625,-8.236951536560058,14.791228218841551,3.4822166770935055
1759585031775181000,4.18918115234375,-8.52290899734497,13.620912519836425,2.8865093765258787
1759585031785166300,4.199166259765625,-8.84178673095703,13.11319213027954,3.0015806938171385
1759585031795150300,4.209150390625,-8.741230261230468,13.118429446411133,3.4427123497009275
1759585031805134000,4.219134033203125,-8.236352986145018,13.560608565521239,3.8902784225463867
1759585031815119400,4.229119384765625,-7.569717461395263,13.985878635406493,3.9995138732910154
1759585031825103400,4.239103271484375,-7.059453232574462,13.959392779541014,3.5761890922546384
1759585031835087000,4.249087158203125,-7.066935112762451,13.454665142059325,2.7884967460632324
1759585031845072400,4.259072265625,-7.430105577087402,12.82558865585327,2.147598889160156
1759585031855056400,4.269056396484375,-7.780706482696533,12.230180630493164,1.7465701110839842
1759585031865040100,4.2790400390625,-8.284237019348144,11.783213108062743,1.6472107421875
1759585031875025200,4.289025146484375,-8.856900128936767,11.608586024475096,1.9014450309753417
1759585031885009200,4.299009033203125,-8.891616053009033,11.492766519165038,2.223016241455078
1759585031894993200,4.3089931640625,-7.764695259094238,11.963376782989501,2.334645893859863
1759585031904978200,4.318978271484375,-5.172074136352538,13.851504067230223,2.332700605010986
1759585031914962200,4.328962158203125,-1.6823755790710448,17.465102560424803,2.5541642585754394
1759585031924946200,4.3389462890625,1.4630068519592285,20.79394069366455,2.7512369827270504
1759585031934931200,4.34893115234375,1.9384055191040037,22.139781301879882,2.5570073730468748
1759585031944915000,4.3589150390625,0.37918168792724605,23.02024896240234,1.662473777770996
1759585031954899200,4.368899169921875,-0.8364742050170898,20.04739868850708,-0.8810662109374999
1759585031964884200,4.37888427734375,-2.5406968742370606,15.349825393676756,-3.031957127380371
1759585031974868000,4.388867919921875,-3.031208939361572,11.731737772369383,-4.040664214324951
1759585031984852000,4.39885205078125,-1.7322049011230467,7.334487148284912,-5.1511248718261715
1759585031994837200,4.408837158203125,-0.429011009979248,3.790320503234863,-5.294028783416747
1759585032004821000,4.418821044921875,-0.4370914405822754,1.8755577255249023,-4.1666590766906735
1759585032014805000,4.428804931640625,-0.8934861320495605,0.9403227020263671,-2.4911668273925778
1759585032024790300,4.438790283203125,-0.720804337310791,0.7453449043273925,-0.33324294357299805
1759585032034774000,4.44877392578125,0.09127893829345703,1.4701894569396972,2.143259398651123
1759585032044758000,4.458758056640625,1.2744634712219238,3.705475981903076,3.9323265892028805
1759585032054743000,4.468742919921875,1.5945383056640625,5.06867455215454,3.118746937561035
1759585032064727000,4.47872705078125,1.0440215614318846,5.793070191955566,1.3054384552001952
1759585032074711000,4.4887109375,0.15592238311767578,7.06753366317749,0.028131869506835935
1759585032084696000,4.498696044921875,-0.19572598571777342,9.08524711227417,-0.2715922508239746
1759585032094680000,4.50868017578125,0.6890811653137207,11.863867776489258,-0.07392097625732422
1759585032104664000,4.5186640625,2.4537574264526367,14.234725970458983,-0.5753565864562988
1759585032114649000,4.528649169921875,3.8064813644409177,15.212158798217773,-1.9017443061828612
1759585032124633000,4.538633056640625,3.326743206787109,14.29413209915161,-3.6721067962646483
1759585032134617000,4.5486171875,1.6326958946228027,12.196212894439697,-5.3764791030883785
1759585032144602000,4.55860205078125,0.41689036407470703,10.275314974975585,-6.287921747589111
1759585032154586000,4.568586181640625,0.10354922180175781,8.842385281372069,-6.368576416015625
1759585032164570000,4.578570068359375,0.9246107536315917,8.162581647491455,-5.017199216461181
1759585032174555100,4.58855517578125,2.456001990509033,8.150610639190674,-2.597858438873291
1759585032184539100,4.5985390625,3.7395933555603027,8.365041325378417,-0.16086042404174802
1759585032194523100,4.608523193359375,4.230255058288574,8.539369133758544,0.9552864624023437
1759585032204508200,4.618508056640625,4.025850091552734,8.550591954040527,0.2819172454833984
1759585032214492200,4.6284921875,3.7050270690917966,8.385541677093505,-1.172111350250244
1759585032224476200,4.63847607421875,3.603273498535156,8.409034780883788,-2.4996961708068848
1759585032234461200,4.648461181640625,3.849277719116211,8.582165488433837,-3.444358363342285
1759585032244445200,4.658445068359375,4.238784401702881,8.934113132476806,-3.9104794990539546
1759585032254429200,4.66842919921875,4.533869756317139,9.287557152557373,-3.978714246368408
1759585032264414000,4.6784140625,4.742165300750732,9.226654647827148,-3.8232407760620113
1759585032274398200,4.688398193359375,4.824615620422363,8.996811288452149,-3.1712697364807125
1759585032284382200,4.69838232421875,4.837634091949463,8.846724771881103,-2.3873183303833008
1759585032294367000,4.708366943359375,4.8397290184021,8.75290199432373,-1.9952678085327147
1759585032304351000,4.71835107421875,5.083787950134277,8.80347950439453,-1.924189946746826
1759585032314335200,4.728335205078125,5.580584794616699,9.095272831726074,-1.7833809616088867
1759585032324320000,4.738320068359375,5.721992330169678,9.330353507232665,-1.6876128952026366
1759585032334304000,4.748303955078125,5.497685562133789,9.256731806182861,-1.8388965126037597
1759585032344288000,4.7582880859375,5.11356583328247,9.157222799682616,-1.8376994117736816
1759585032354273000,4.76827294921875,4.662109182739258,8.960748625946044,-1.8122610191345214
1759585032364257000,4.778257080078125,4.338592683410644,8.8489693359375,-1.9479823257446287
1759585032374241000,4.788240966796875,4.255843088531494,8.703820860290527,-2.3439234252929686
1759585032384226000,4.79822607421875,4.2521021484374995,8.424597091674805,-2.945017679595947
1759585032394210000,4.8082099609375,4.389319831085205,8.24188957748413,-3.45393516998291
1759585032404194000,4.818194091796875,4.576516473388671,8.008903828430176,-3.655497022247314
1759585032414179000,4.828178955078125,4.67931750717163,7.77591807937622,-3.4706945816040036
1759585032424163000,4.8381630859375,4.5702316940307615,7.654113069915771,-2.9966426528930663
1759585032434147000,4.84814697265625,4.095730852508544,7.582586295318603,-2.6135703872680662
1759585032444132000,4.858132080078125,3.6207810981750486,7.855974197387694,-1.8166005096435547
1759585032454116000,4.8681162109375,3.324498642730713,8.016535346221923,-0.9913491249084472
1759585032464101000,4.87810107421875,3.1784523414611816,8.153603391265868,-0.3194762840270996
1759585032474085000,4.888085205078125,3.163338943481445,8.22258632659912,-0.08469488372802735
1759585032484069000,4.898069091796875,3.199850518798828,8.325985910797119,-0.4261678955078125
1759585032494053000,4.90805322265625,3.349787397766113,8.514230016326904,-0.8693944778442382
1759585032504038100,4.9180380859375,3.569605037689209,8.691400939178466,-1.1462240447998047
1759585032514022100,4.928022216796875,3.699041564941406,8.883834897613525,-1.1870751106262207
1759585032524007200,4.938007080078125,3.5582325798034664,8.990227233886719,-1.253963119506836
1759585032533991200,4.9479912109375,3.1802479927062985,9.117119921875,-1.0242693977355957
1759585032543975200,4.95797509765625,2.8571804061889647,9.285312588500975,-0.6675333503723144
1759585032553960200,4.967960205078125,2.944419129180908,9.23159268875122,-0.38367081604003905
1759585032563944200,4.977944091796875,3.104082452392578,9.044096771240234,-0.6263830093383789
1759585032573928200,4.98792822265625,3.169025172424316,9.068487700653076,-1.2752116592407226
1759585032583913000,4.997912841796875,3.4433109001159665,9.04634133529663,-1.7800889343261719
1759585032593897200,5.007897216796875,3.782240072631836,9.049633362579344,-1.9315221893310546
1759585032603881200,5.017881103515625,3.923198695373535,9.128642017364502,-1.85131643371582
1759585032613866000,5.027865966796875,3.8615480026245117,9.008483021545409,-1.6385317611694334
1759585032623850000,5.03785009765625,3.707421270751953,8.89969648361206,-1.3420996681213377
1759585032633834200,5.047834228515625,3.4822166770935055,8.985289192962647,-1.1869254730224608
1759585032643819000,5.057819091796875,3.290979819488525,9.058162705993652,-1.4671967048645018
1759585032653803000,5.067802978515625,3.118148387145996,9.088988052368164,-1.7305588874816893
1759585032663787000,5.077787109375,2.9577368759155274,9.135674984741211,-1.8625392539978027
1759585032673772000,5.08777197265625,3.233668617248535,8.926331977081299,-2.2111948707580567
1759585032683756000,5.097756103515625,3.4391210472106932,8.710554552459715,-2.451063949584961
1759585032693740000,5.107739990234375,3.4798224754333495,8.883236347198485,-1.7073650588989258
1759585032703725000,5.11772509765625,3.6586394119262695,8.922890312194824,-0.9721955116271972
1759585032713709000,5.127708984375,3.677942662811279,9.085995300292968,-0.24570494537353516
1759585032723693000,5.137693115234375,3.658938687133789,9.213636176300048,-0.04115034103393554
1759585032733678000,5.147677978515625,3.5538930892944336,9.056367054748534,-0.5072714767456055
1759585032743662000,5.157662109375,3.238157745361328,8.99561418762207,-1.2642881141662596
1759585032753646000,5.16764599609375,2.9673136825561524,9.211092337036133,-1.6635212409973144
1759585032763631000,5.177631103515625,3.1138088966369626,9.568875847625732,-1.4968249504089355
1759585032773615000,5.187614990234375,3.7503672630310056,9.630526540374754,-1.467645617675781
1759585032783599000,5.19759912109375,3.9824551864624023,9.486126252746581,-1.4595651870727537
1759585032793584000,5.207584228515625,3.7223850311279296,9.443629173278808,-1.35990654296875
1759585032803568000,5.217568115234375,3.3668460845947266,9.430760339355468,-1.4354735328674315
1759585032813552000,5.22755224609375,3.005920184326172,9.238775293731688,-1.6461632789611815
1759585032823537200,5.237537109375,2.874837643432617,8.983942454528808,-1.9744681816101073
1759585032833521200,5.247521240234375,2.9602807151794432,9.02045402984619,-2.046743144226074
1759585032843505200,5.257505126953125,3.2519244049072262,9.095721744537354,-1.9056348838806152
1759585032853490200,5.267490234375,3.56242243270874,9.012972149658202,-1.5626654960632322
1759585032863474200,5.27747412109375,3.789123402404785,8.796147261810303,-1.182436344909668
1759585032873458200,5.287458251953125,3.921702319335937,8.582315126037598,-0.8417115211486816
1759585032883443200,5.297443115234375,3.9891888786315914,8.520814070892333,-0.5481225425720214
1759585032893427200,5.30742724609375,4.086752596282959,8.450933309936524,-0.4499602745056152
1759585032903411200,5.3174111328125,4.228160131835938,8.436268824768065,-0.4655225852966308
1759585032913396200,5.327396240234375,4.275595252227783,8.577077809906005,-0.5738602104187012
1759585032923380200,5.337380126953125,4.370615130615234,8.566303902435303,-1.0519523544311522
1759585032933364200,5.3473642578125,4.294150315093994,8.551938692474364,-1.6647183418273925
1759585032943349200,5.357349365234375,4.140771771240234,8.56106658630371,-1.9750667320251463
1759585032953333200,5.367333251953125,4.058171813964844,8.569745567321776,-1.8366519485473631
1759585032963317200,5.377317138671875,4.030937770080566,8.636035025787352,-1.3859434860229491
1759585032973302000,5.387302001953125,4.011634519195557,8.611195183563233,-0.8939350448608397
1759585032983286000,5.3972861328125,4.035426898193359,8.681674494934082,-0.6169558403015136
1759585032993270300,5.407270263671875,4.019116399383544,8.817844714355468,-0.6376058296203613
1759585033003255000,5.417255126953125,3.930231662750244,9.042001844787597,-0.7806593788146973
1759585033013239000,5.427239013671875,3.930680575561523,9.15497823562622,-1.0263643241882323
1759585033023223000,5.43722314453125,3.9076363845825193,9.094524643707274,-1.3762170417785644
1759585033033208000,5.4472080078125,3.7579987808227537,8.94443812713623,-1.6680103691101074
1759585033043192000,5.457192138671875,3.6400843490600585,8.807669357299805,-1.641374875640869
1759585033053175800,5.46717578125,3.610755378723144,8.922441399383544,-1.2722189071655272
1759585033063161000,5.4771611328125,3.629908992004394,9.05262611465454,-0.8319850769042968
1759585033073145000,5.48714501953125,3.6809354148864744,9.226953923034667,-0.5518634826660156
1759585033083128800,5.49712890625,3.755305303955078,9.307907866668701,-0.5593453628540038
1759585033093114000,5.507114013671875,3.6638767280578612,9.19986951675415,-0.8421604339599609
1759585033103098000,5.51709814453125,3.67734411239624,9.076119218444823,-1.1227309410095214
1759585033113081900,5.527081787109375,3.5933974166870115,8.952518557739257,-1.3204022155761719
1759585033123067100,5.537067138671875,3.4823663146972654,8.974964198303223,-1.4426561378479004
1759585033133051100,5.547051025390625,3.4659061782836913,8.901043222045898,-1.3637971206665038
1759585033143035000,5.557034912109375,3.53683440246582,8.876951567840576,-1.1270704315185547
1759585033153020200,5.567020263671875,3.4769793609619137,8.987683394622803,-0.8264484855651855
1759585033163004200,5.577004150390625,3.5206735412597654,9.101407973480224,-0.5922656356811523
1759585033172988000,5.58698779296875,3.543867369842529,9.200617704772949,-0.5994482406616211
1759585033182973200,5.59697314453125,3.647865504455566,9.243264421844481,-0.7076362281799315
1759585033192957200,5.606957275390625,3.782240072631836,9.192986186981202,-0.8116343627929687
1759585033202941000,5.61694091796875,3.850624457550049,8.940397911834717,-0.9307458953857422
1759585033212926200,5.62692626953125,3.9845501129150387,8.570344117736816,-1.0266635993957518
1759585033222910000,5.636909912109375,3.932027313995361,8.61897633895874,-1.0411784469604493
1759585033232894000,5.64689404296875,3.9501334640502925,8.78447552871704,-1.0218751960754393
1759585033242879200,5.656879150390625,3.993827644348144,8.869768962860107,-0.8858546142578124
1759585033252863000,5.666863037109375,3.9529765785217283,9.087192401123046,-0.8132803764343262
1759585033262848300,5.67684814453125,3.9456443359374997,9.209595960998534,-0.8750807067871094
1759585033272832300,5.686832275390625,4.0066964782714845,9.306112215423584,-0.9862614463806152
1759585033282816000,5.69681591796875,3.9864954017639156,9.17413184890747,-1.1213842025756835
1759585033292801000,5.706801025390625,3.9323265892028805,8.913612780761719,-1.2886790435791016
1759585033302785300,5.716785400390625,3.775656018066406,8.26777688293457,-1.7247230209350586
1759585033312769000,5.72676904296875,3.7919665168762204,7.915679601287842,-1.6350900962829589
1759585033322754000,5.736754150390625,3.9064392837524413,8.442553604125976,-0.9364321243286132
1759585033332738000,5.746738037109375,4.080916729736328,8.862885633087158,-0.4976946701049804
1759585033342722000,5.75672216796875,3.9866450393676756,8.940846824645996,-0.21562778701782226
1759585033352707000,5.76670703125,4.02210915145874,8.883535622406006,-0.20814590682983397
1759585033362690800,5.77669091796875,4.078223252868652,8.864382009124755,-0.5264250900268554
1759585033372674800,5.7866748046875,4.051438121795654,8.836699052429198,-1.2886790435791016
1759585033382660000,5.79666015625,3.8811505287170407,8.790760308074951,-2.194884371948242
1759585033392643800,5.806643798828125,3.8666356811523435,8.856151940917968,-2.87917713394165
1759585033402627800,5.8166279296875,3.8775592262268064,9.137470635986327,-2.541594699859619
1759585033412613000,5.826613037109375,4.055029424285888,9.114725720214842,-1.833509558868408
1759585033422596900,5.836596923828125,4.117129029846192,9.050680825805664,-1.0538976432800293
1759585033432580900,5.846580810546875,4.080916729736328,9.118616297912597,-0.43409868850708005
1759585033442566100,5.856566162109375,4.105756571960449,8.928576541137694,-0.4574421546936035
1759585033452550000,5.8665498046875,4.1301475013732905,8.799140013885497,-0.7658452560424804
1759585033462534100,5.8765341796875,3.976619319915771,8.71399621734619,-1.2096703887939453
1759585033472519400,5.88651953125,3.9471407119750976,8.781482776641845,-1.5910966407775877
1759585033482503200,5.896503173828125,3.879205239868164,8.849418248748778,-1.7805378471374511
1759585033492487200,5.906487060546875,3.922600144958496,8.735544032287597,-1.6481085678100584
1759585033502472400,5.916472412109375,3.920505218505859,8.793453784942626,-1.2536638442993164
1759585033512456200,5.926456298828125,3.882796542358398,8.894758442687987,-0.8538321670532226
1759585033522440200,5.936440185546875,3.9362171669006347,8.946832328796386,-0.6479308242797851
1759585033532425500,5.946425537109375,3.976020769500732,8.998158026885985,-0.6914753669738769
1759585033542409200,5.9564091796875,3.9297827499389646,9.088539139556884,-0.7912836486816406
1759585033552393200,5.966393310546875,4.081066367340088,9.056367054748534,-0.9790788414001464
1759585033562378500,5.97637841796875,4.055478337097168,8.840589630126953,-1.818246523284912
1759585033572362200,5.9863623046875,3.815758895874023,8.761580975341797,-2.344222700500488
1759585033582346200,5.99634619140625,3.8052842636108397,8.63124662246704,-2.206556105041504
1759585033592331500,6.00633154296875,3.8922237113952636,8.77175633239746,-1.3664905975341797
1759585033602315300,6.016315185546875,4.076726876831055,8.744821563720702,-0.7010521736145019
1759585033612299300,6.02629931640625,4.1386768447875975,8.699182094573974,-0.36107553787231444
1759585033622284300,6.0362841796875,4.102165269470214,8.772953433227539,-0.5713163711547852
1759585033632268300,6.046268310546875,4.010587055969238,8.84268455657959,-1.141585279083252
1759585033642252300,6.056252197265625,3.9079356597900388,9.036764528656006,-1.4049474617004394
1759585033652237000,6.066237060546875,3.8943186378479,9.132083682250975,-1.4661492416381836
1759585033662221300,6.07622119140625,3.9056910957336424,9.067889150238036,-1.4909890838623046
1759585033672205300,6.086205322265625,3.9912838050842283,8.957905511474609,-1.3667898727416992
1759585033682190000,6.096190185546875,3.926939635467529,8.871863889312744,-1.0229226593017577
1759585033692174000,6.106174072265625,3.8817490791320797,8.737788596343993,-0.6319196006774902
1759585033702158300,6.116158447265625,3.905990370941162,8.622268366241455,-0.42886137237548827
1759585033712143000,6.12614306640625,3.8853403816223144,8.700379195404052,-0.5969044013977051
1759585033722127000,6.136127197265625,3.9579146194458006,8.873060990142822,-0.7659948936462402
1759585033732111000,6.146111083984375,4.0161236473083495,9.00923120956421,-0.7855974197387695
1759585033742096100,6.15609619140625,3.922001594543457,8.76592046585083,-1.4651017784118652
1759585033752080100,6.166080078125,3.7693712387084957,8.790161757659911,-1.9615993476867675
1759585033762064100,6.176064208984375,3.828777367401123,8.859743243408202,-2.2539912254333494
1759585033772049200,6.186049072265625,3.863642929077148,8.748113591003417,-2.291550263977051
1759585033782033200,6.196033203125,3.7351042274475095,8.852111725616455,-1.5994763465881348
1759585033792017200,6.20601708984375,3.812017955780029,8.897900832366943,-1.0345943923950194
1759585033802002200,6.216002197265625,3.878606689453125,8.864382009124755,-0.9136872085571288
1759585033811986200,6.225986083984375,3.9528269409179684,8.821286379241943,-1.0799345863342285
1759585033821970200,6.23597021484375,4.0614638412475585,8.853608101654052,-1.4651017784118652
1759585033831955200,6.245955078125,4.070741372680664,8.831312098693846,-1.85775085067749
1759585033841939200,6.255939208984375,3.9324762268066404,8.859892881011962,-1.9131167640686033
1759585033851923200,6.265923095703125,3.914968627166748,8.866626573181152,-1.7051204948425291
1759585033861908200,6.275908203125,3.982006273651123,8.820388553619384,-1.4767735115051268
1759585033871892200,6.285892333984375,3.974674031066894,8.790461032867432,-1.1071686302185058
1759585033881876200,6.295876220703125,3.946691799163818,8.757241484832763,-0.8237550086975097
1759585033891861200,6.305861328125,4.061613478851318,8.773252708435058,-0.7508814956665039
1759585033901845200,6.31584521484375,4.131494239807129,8.82263311767578,-1.049558152770996
1759585033911829200,6.325829345703125,4.043956241607666,8.840589630126953,-1.594089392852783
1759585033921814300,6.335814208984375,3.909132760620117,8.788964656829833,-1.9868881027221679
1759585033931798300,6.34579833984375,3.8001965850830075,8.661323780822753,-1.8969559028625487
1759585033941783300,6.355783203125,3.8166567214965816,8.481309743499756,-1.7398364189147948
1759585033951767300,6.365767333984375,3.8519711959838867,8.425794192504883,-1.4661492416381836
1759585033961751300,6.375751220703125,3.7591958816528317,8.604162216186523,-0.9069535163879394
1759585033971736300,6.385736328125,3.779995508575439,8.786420817565917,-0.5268740028381347
1759585033981720300,6.39572021484375,3.9064392837524413,8.862735995483398,-0.4860229370117187
1759585033991704300,6.405704345703125,3.9993642356872554,8.815151237487793,-0.8400655075073241
1759585034001689000,6.415689208984375,4.049792108154296,8.806023343658447,-1.4110826034545898
1759585034011673000,6.425673095703125,4.018817124176025,8.762029888153076,-1.8237831146240233
1759585034021657300,6.4356572265625,4.048894282531738,8.8865283744812,-1.9297265380859374
1759585034031642000,6.44564208984375,3.984999025726318,8.996960926055907,-1.7332523643493651
1759585034041626000,6.455626220703125,3.956268605804443,8.917652996063232,-1.377713417816162
1759585034051610000,6.465610107421875,3.9995138732910154,8.974365647888183,-0.9473556694030761
1759585034061595100,6.47559521484375,4.186860153198242,9.09706848297119,-0.706139852142334
1759585034071579100,6.4855791015625,4.316895230865478,9.074323567199707,-0.865054987335205
1759585034081563100,6.495563232421875,4.223072453308105,9.056815967559814,-1.1742062767028807
1759585034091548200,6.505548095703125,4.154987343597412,8.909572565460204,-1.4475941787719726
1759585034101532200,6.5155322265625,4.049941745758057,8.724321212005615,-1.6505027694702148
1759585034111516200,6.52551611328125,3.916165727996826,8.603563665771484,-1.638980673980713
1759585034121501200,6.535501220703125,3.86244582824707,8.504204296874999,-1.398812319946289
1759585034131485200,6.545485107421875,3.90718747177124,8.585457515716552,-1.0455179374694823
1759585034141469200,6.55546923828125,3.9636008483886718,8.74616830215454,-0.8524854286193847
1759585034151454200,6.5654541015625,4.018068936157226,8.892364241027831,-0.9317933586120605
1759585034161438200,6.575438232421875,4.0529344978332515,8.978256225585938,-1.2036848846435546
1759585034171422200,6.585422119140625,4.12431163482666,8.948927255249023,-1.434575707244873
1759585034181407200,6.5954072265625,4.159326834106445,8.850016799163818,-1.5988777961730956
1759585034191391200,6.60539111328125,4.103212732696533,8.802132765960692,-1.6527473335266112
1759585034201375200,6.615375244140625,4.049792108154296,8.73344910583496,-1.4525322196960448
1759585034211360300,6.6253603515625,4.019266036987305,8.684816884613037,-1.2020388710021972
1759585034221344300,6.63534423828125,3.939808469390869,8.498667705535889,-1.2324153045654296
1759585034231328300,6.645328369140625,3.897760302734375,8.572738319396972,-1.314566349029541
1759585034241313300,6.655313232421875,3.9823055488586423,8.93770443496704,-1.3564648780822752
1759585034251297300,6.66529736328125,4.139125757598877,9.025840983581542,-1.4459481651306152
1759585034261281300,6.67528125,4.126556198883057,8.960898263549804,-1.4592659118652342
1759585034271266300,6.685266357421875,4.049043920135498,8.853308826446533,-1.3992612327575682
1759585034281250300,6.695250244140625,3.9835026496887203,8.75260271911621,-1.3207014907836914
1759585034291234300,6.705234375,3.987692502593994,8.710404914855957,-1.2384008087158203
1759585034301219300,6.71521923828125,3.9733272926330563,8.743774100494385,-1.233462767791748
1759585034311203300,6.725203369140625,4.043656966400146,8.775796547698974,-1.2752116592407226
1759585034321187300,6.735187255859375,3.9975685844421385,8.707262525177,-1.3792097938537597
1759585034331172400,6.74517236328125,3.9202059432983396,8.665962546539307,-1.4504372932434082
1759585034341156400,6.75515625,3.909581673431396,8.71474440536499,-1.3661913223266602
1759585034351140400,6.765140380859375,3.9453450607299803,8.760832787322997,-1.3105261337280272
1759585034361125000,6.775125,4.006247565460205,8.755445833587647,-1.1742062767028807
1759585034371109000,6.785109130859375,3.999064960479736,8.7455697517395,-1.0453682998657226
1759585034381093400,6.79509326171875,3.962852660369873,8.761281700134276,-1.138293251800537
1759585034391078100,6.805078125,3.9887399658203124,8.807220444488525,-1.334917063140869
1759585034401062100,6.815062255859375,3.9559693305969237,8.865878385162352,-1.4398130233764648
1759585034411046100,6.825046142578125,3.966443962860107,8.781632414245605,-1.4864999557495115
1759585034421031200,6.83503125,3.9178117416381832,8.688557824707031,-1.684769780731201
1759585034431015200,6.84501513671875,3.9299323875427246,8.801983128356934,-1.661875227355957
1759585034440999200,6.854999267578125,4.068646446228027,8.879345769500732,-1.5218144302368164
1759585034450984200,6.864984130859375,4.120869969940185,8.89924757080078,-1.3356652511596678
1759585034460968200,6.87496826171875,4.189254354858398,8.932916031646728,-1.1658265708923339
1759585034470953000,6.884952880859375,4.299088356018066,8.868871137237548,-1.2018892333984375
1759585034480938000,6.89493798828125,4.1834184883117675,8.79824218826294,-1.4648025032043457
1759585034490922000,6.904921875,4.071938473510742,8.729708165740966,-1.631798069000244
1759585034500906000,6.914906005859375,3.969735990142822,8.665962546539307,-1.5140332748413086
1759585034510891000,6.92489111328125,3.8750153869628905,8.640374516296387,-1.236006607055664
