time,seconds_elapsed,z,y,x
1757954198252287700,20.05828784179688,-0.8932763934135437,1.5751817226409912,0.4816814064979553
1757954198262243800,20.068243896484372,-0.9054715633392334,1.5769588947296145,0.5179315805435181
1757954198272199700,20.07819970703125,-0.9160323143005372,1.5641593933105469,0.5579532980918884
1757954198282155800,20.08815576171875,-0.930445909500122,1.5289974212646484,0.58249831199646
1757954198292111600,20.098111572265623,-0.9445337653160096,1.4569075107574463,0.5938252806663513
1757954198302067700,20.10806762695313,-0.9614232778549194,1.3364524841308594,0.5981124043464661
1757954198312023600,20.1180234375,-0.9848183393478394,1.19464373588562,0.5918684005737305
1757954198321980700,20.127980712890626,-1.013624906539917,1.0554946660995483,0.5785586833953857
1757954198331936500,20.1379365234375,-1.0339163541793823,0.9393903613090516,0.5757450461387634
1757954198341892600,20.147892578125,-1.043809413909912,0.8340227007865906,0.5909671783447266
1757954198351848700,20.1578486328125,-1.0397745370864868,0.718039333820343,0.6135765910148621
1757954198361804800,20.1678046875,-1.0295703411102295,0.5988306999206543,0.6125723123550415
1757954198371760600,20.1777607421875,-1.0161725282669067,0.5359662175178528,0.5976463556289673
1757954198381716700,20.187716796875,-1.006226658821106,0.5054839253425598,0.5813590288162231
1757954198391672600,20.197672607421875,-0.9965457916259766,0.4841978251934051,0.5575844645500183
1757954198401629700,20.207629638671875,-0.9806166291236876,0.4773652255535126,0.5380184650421143
1757954198411585800,20.21758569335937,-0.9612067341804504,0.5002870559692383,0.5307589173316956
1757954198421541600,20.227541748046875,-0.9353000521659852,0.5496817827224731,0.5369337797164917
1757954198431497500,20.23749755859375,-0.9049692749977112,0.5853915810585022,0.5515084266662598
1757954198441453600,20.24745361328125,-0.882262110710144,0.6443853974342346,0.5708328485488892
1757954198451409700,20.25740966796875,-0.8722707629203796,0.7235568761825562,0.5932856798171997
1757954198461365800,20.26736572265625,-0.8686347007751465,0.7808111310005188,0.5988234877586365
1757954198471323000,20.277322998046877,-0.8659228086471558,0.7995227575302124,0.5988091230392456
1757954198481278700,20.28727880859375,-0.8696123957633972,0.7517645359039307,0.5919780731201172
1757954198491234800,20.29723486328125,-0.8830554485321045,0.632490873336792,0.5744941830635071
1757954198501190700,20.307190673828124,-0.8999814391136169,0.4834375083446502,0.5373870134353638
1757954198511146800,20.317146728515624,-0.9142608046531676,0.3064121305942535,0.4786573946475982
1757954198521102600,20.3271025390625,-0.9323926568031312,0.1408577859401703,0.4208327233791351
1757954198531058700,20.33705859375,-0.9639724493026732,-0.0156119829043746,0.3630921840667724
1757954198541014800,20.347014892578127,-1.007319688796997,-0.160675436258316,0.3196650743484497
1757954198550971600,20.3569716796875,-1.0743926763534546,-0.2951930165290832,0.2765202820301056
1757954198560927700,20.366927734375,-1.1397370100021362,-0.3792929947376251,0.2472279071807861
1757954198570883800,20.3768837890625,-1.1768285036087036,-0.4213754534721374,0.2487309873104095
1757954198580839700,20.38683959960937,-1.180911660194397,-0.4268895387649536,0.2772726118564605
1757954198590795800,20.396795654296877,-1.176889181137085,-0.3480655550956726,0.3058241009712219
1757954198600751600,20.406751708984373,-1.1824238300323486,-0.2057752609252929,0.3031867742538452
1757954198610707700,20.41670776367188,-1.171339988708496,0.0259304009377956,0.3026126027107239
1757954198620663600,20.42666357421875,-1.1483787298202517,0.3099695742130279,0.3449510037899017
1757954198630620700,20.43662060546875,-1.114640474319458,0.5976964235305786,0.411620557308197
1757954198640576500,20.446576416015624,-1.0552469491958618,0.8479904532432556,0.4892604947090149
1757954198650532600,20.45653271484375,-0.9730237126350404,1.004936933517456,0.5581721663475037
1757954198660488700,20.46648876953125,-0.8894832730293274,1.129571557044983,0.5997470617294312
1757954198670444800,20.47644482421875,-0.8308095932006836,1.2694032192230225,0.5814296007156372
1757954198680400600,20.486400634765623,-0.7793362736701965,1.4064148664474487,0.5504812598228455
1757954198690356700,20.49635668945313,-0.7092509269714355,1.5457156896591189,0.5448287129402161
1757954198700313900,20.50631396484375,-0.6068305373191833,1.6858030557632446,0.5641190409660339
1757954198710269700,20.516269775390622,-0.4666742384433746,1.842081069946289,0.5865519046783447
1757954198720225800,20.52622583007813,-0.3125547170639038,1.984427809715271,0.6033681631088257
1757954198730181600,20.536181640625,-0.1756336092948913,2.071240186691284,0.6106127500534058
1757954198740137500,20.54613745117188,-0.0756833106279373,2.0762243270874023,0.5999417304992676
1757954198750093800,20.55609375,-0.0082304989919066,1.9993572235107424,0.5652303695678711
1757954198760049700,20.56604956054688,0.036440297961235,1.862289905548096,0.5038149356842041
1757954198770005800,20.576005859375,0.0668157786130905,1.690689206123352,0.4279595911502838
1757954198779963000,20.585962890625,0.0893740877509117,1.5080668926239014,0.3412236273288727
1757954198789918700,20.595918701171875,0.0987151265144348,1.3327981233596802,0.2591902911663055
1757954198799874800,20.60587475585937,0.0902404114603996,1.1691738367080688,0.1902935057878494
1757954198809830700,20.61583056640625,0.0682568177580833,1.021610975265503,0.1406239569187164
1757954198819786800,20.62578686523437,0.0297491066157817,0.9038417339324952,0.1156432405114173
1757954198829742600,20.63574267578125,-0.0152679020538926,0.8149624466896057,0.1024611294269561
1757954198839698700,20.64569873046875,-0.0653824657201767,0.759723424911499,0.1006672233343124
1757954198849654800,20.65565478515625,-0.115046426653862,0.726170003414154,0.1048718243837356
1757954198859611400,20.665611328125,-0.1616948843002319,0.7069757580757141,0.1052116379141807
1757954198869567700,20.675567626953125,-0.2091881036758422,0.7023562788963318,0.1056942045688629
1757954198879523600,20.685523681640625,-0.2536588907241821,0.70293790102005,0.1162850633263588
1757954198889479700,20.695479736328124,-0.2988990843296051,0.699948251247406,0.1341447532176971
1757954198899435500,20.705435546875,-0.3421935737133026,0.6858555674552917,0.1639599055051803
1757954198909391600,20.7153916015625,-0.3823817372322082,0.6671378016471863,0.1986198872327804
1757954198919347500,20.72534741210937,-0.4218673408031463,0.6453284025192261,0.2339941263198852
1757954198929303600,20.735303466796875,-0.4581252336502075,0.6236335039138794,0.2663256824016571
1757954198939260700,20.7452607421875,-0.4920315146446228,0.60251784324646,0.2896603047847748
1757954198949216500,20.75521655273437,-0.5269418358802795,0.578004777431488,0.3088904619216919
1757954198959172600,20.765172607421874,-0.5582147836685181,0.545070230960846,0.3361969292163849
1757954198969128700,20.77512866210937,-0.5864381790161133,0.4962819218635559,0.3698755204677582
1757954198979084500,20.78508447265625,-0.6109022498130798,0.4236966669559479,0.4040294885635376
1757954198989040600,20.79504052734375,-0.6274897456169128,0.3177558481693268,0.4354281723499298
1757954198998996500,20.80499658203125,-0.6293259859085083,0.1964731067419052,0.446588933467865
1757954199008952600,20.81495263671875,-0.63352370262146,0.0578750185668468,0.4321351647377014
1757954199018909700,20.82490966796875,-0.6422295570373535,-0.1050835400819778,0.3873093724250793
1757954199028865500,20.834865478515624,-0.6527876257896423,-0.2936369478702545,0.3217785656452179
1757954199038821600,20.844821533203124,-0.6392313838005066,-0.4807349145412445,0.2508660554885864
1757954199048777500,20.854777587890624,-0.5921980738639832,-0.6233469247817993,0.188730239868164
1757954199058733800,20.86473388671875,-0.5183622241020203,-0.7037789225578308,0.1324211508035659
1757954199068689700,20.874689697265627,-0.4212478995323181,-0.7029594779014587,0.07112717628479
1757954199078645800,20.884645751953126,-0.3123344779014587,-0.6495766639709473,-0.0011353056179359
1757954199088601600,20.8946015625,-0.1946725398302078,-0.5416011810302734,-0.0701252892613411
1757954199098558700,20.904558837890622,-0.0877061486244201,-0.4130469560623169,-0.1298898160457611
1757954199108514600,20.9145146484375,-0.0061513693071901,-0.2691848576068878,-0.1792376637458801
1757954199118470700,20.924470703125,0.0419842004776001,-0.1087941229343414,-0.2090158015489578
1757954199128426500,20.934426513671877,0.0656746178865432,0.0717112049460411,-0.2323554754257202
1757954199138382600,20.944382568359377,0.0811031088232994,0.2868283092975616,-0.2603849768638611
1757954199148338400,20.95433837890625,0.106967993080616,0.5052290558815002,-0.3053146302700043
1757954199158294800,20.964294677734376,0.1607246994972229,0.6885035634040833,-0.3439933359622955
1757954199168250600,20.97425073242188,0.2420035749673843,0.7944960594177246,-0.364021897315979
1757954199178207700,20.98420776367188,0.3318471908569336,0.8017094731330872,-0.3663175404071808
1757954199188163600,20.99416357421875,0.4189029932022095,0.7349962592124939,-0.3533316850662231
1757954199198119700,21.00411962890625,0.4772840142250061,0.6138285398483276,-0.3495470881462097
1757954199208075500,21.014075439453126,0.4823163151741028,0.4430344104766845,-0.3737600147724151
1757954199218031600,21.024031494140623,0.4443995654582977,0.223364382982254,-0.4190247058868408
1757954199227987500,21.03398754882813,0.3865793943405151,-0.0153640424832701,-0.4571137428283691
1757954199237943600,21.043943603515626,0.33461394906044,-0.2420594990253448,-0.4777873456478119
1757954199247899600,21.053899658203125,0.30731201171875,-0.4277473390102386,-0.4789516627788543
1757954199257855700,21.063855712890625,0.3204712271690368,-0.5830234885215759,-0.4751529395580292
1757954199267812600,21.0738125,0.3740732073783874,-0.7233587503433228,-0.4710663259029388
1757954199277768700,21.083768798828125,0.4559283852577209,-0.878008246421814,-0.4732924699783325
1757954199287724500,21.093724609375,0.5480670928955078,-1.0692354440689087,-0.4750850200653076
1757954199297680600,21.1036806640625,0.6250604391098022,-1.310379147529602,-0.4549251794815063
1757954199307636500,21.113636474609372,0.6796533465385437,-1.567870020866394,-0.4196164608001709
1757954199317592600,21.123592529296875,0.7149293422698975,-1.7838928699493408,-0.3804810345172882
1757954199327548400,21.13354833984375,0.7392407655715942,-1.9196778535842896,-0.3490312397480011
1757954199337504500,21.14350439453125,0.7568399906158447,-1.9588990211486816,-0.322740226984024
1757954199347461600,21.153461669921874,0.7657725214958191,-1.9245719909667969,-0.29426971077919
1757954199357417500,21.16341748046875,0.7571049928665161,-1.8271093368530276,-0.2622776925563812
1757954199367373800,21.173373779296877,0.7281047701835632,-1.6816695928573608,-0.2218772768974304
1757954199377329700,21.18332958984375,0.6755052208900452,-1.5061297416687012,-0.1955718994140625
1757954199387285800,21.19328564453125,0.6086121797561646,-1.3038266897201538,-0.172017827630043
1757954199397241600,21.20324169921875,0.5268435478210449,-1.0989071130752563,-0.1440383940935135
1757954199407197700,21.21319775390625,0.4390463232994079,-0.919705867767334,-0.1089946627616882
1757954199417153500,21.223153564453124,0.3533964157104492,-0.7607077360153198,-0.0726504996418953
1757954199427110700,21.233110595703124,0.287098079919815,-0.6244313716888428,-0.0331198684871196
1757954199437066500,21.24306640625,0.2395452111959457,-0.505161464214325,-0.0133781237527728
1757954199447022600,21.253022705078124,0.2092211246490478,-0.3821116685867309,-0.0093045523390173
1757954199456978400,21.262978515625,0.1981975138187408,-0.3010123074054718,-0.0163965504616498
1757954199466934800,21.272934814453127,0.2082370966672897,-0.3014530539512634,-0.0411330536007881
1757954199476890600,21.282890625,0.2295522391796112,-0.3757589757442474,-0.0474673844873905
1757954199486846700,21.2928466796875,0.2547806203365326,-0.5172399282455444,-0.0219590943306684
1757954199496802600,21.30280249023437,0.2652830779552459,-0.7054362297058105,0.018262892961502
1757954199506758700,21.312758544921877,0.2401241809129715,-0.9433310627937316,0.089034266769886
1757954199516715500,21.322715576171877,0.1745859235525131,-1.2073744535446167,0.1850963532924652
1757954199526671600,21.332671630859377,0.1077677458524704,-1.4718306064605713,0.2757231891155243
1757954199536627500,21.34262744140625,0.0759152695536613,-1.6996517181396484,0.3508397936820984
1757954199546583600,21.35258349609375,0.0708565935492515,-1.8349419832229612,0.4000922739505768
1757954199556539600,21.36253955078125,0.0753456205129623,-1.8503738641738887,0.4255648851394653
1757954199566495700,21.372495849609376,0.0740430653095245,-1.7698569297790527,0.4284972846508026
1757954199576451600,21.38245166015625,0.0577730201184749,-1.623538613319397,0.4286805093288421
1757954199586407700,21.39240771484375,0.0127919614315032,-1.4558430910110474,0.4407710134983063
1757954199596364500,21.402364501953127,-0.0642242580652237,-1.2950457334518433,0.4653216302394867
1757954199606320600,21.412320556640623,-0.1586426347494125,-1.1477254629135132,0.4939764440059662
1757954199616276500,21.4222763671875,-0.2393398880958557,-1.0197142362594604,0.5080879926681519
1757954199626232600,21.432232666015626,-0.3005568981170654,-0.9345335960388184,0.5000697374343872
1757954199636188400,21.4421884765625,-0.3419554829597473,-0.9009511470794678,0.4720034897327423
1757954199646144500,21.45214453125,-0.3767872154712677,-0.8859098553657532,0.4321791231632232
1757954199656100600,21.4621005859375,-0.4199815690517425,-0.8125975728034973,0.3833223581314087
1757954199666056700,21.472056640625,-0.4587971270084381,-0.6488911509513855,0.2986476719379425
1757954199676013800,21.482013916015624,-0.4756229817867279,-0.332972377538681,0.1762605160474777
1757954199685969700,21.4919697265625,-0.4920408427715301,0.1592676788568496,0.0791882947087287
1757954199695925800,21.50192578125,-0.5511454343795776,0.6958152651786804,0.0635890960693359
1757954199705881600,21.511881591796875,-0.6848896741867065,1.1561280488967896,0.1100069284439086
1757954199715837700,21.52183764648437,-0.8582654595375061,1.540117263793945,0.1601782143115997
1757954199725793500,21.53179345703125,-1.0253984928131104,1.813876390457153,0.1899212002754211
1757954199735749600,21.54174951171875,-1.1439075469970703,1.9528651237487795,0.1913534551858902
1757954199745705700,21.551705810546878,-1.2084852457046509,1.9668339490890503,0.1695885062217712
1757954199755661800,21.56166186523437,-1.228958010673523,1.8827112913131716,0.1288972645998001
1757954199765618700,21.57161865234375,-1.1947811841964722,1.7316964864730835,0.0747267007827758
1757954199775574800,21.58157470703125,-1.0954338312149048,1.5407795906066897,0.0039452067576348
1757954199785530600,21.591530517578125,-0.9254412651062012,1.3341432809829712,-0.0814905986189842
1757954199795486700,21.60148681640625,-0.6936330795288086,1.1191940307617188,-0.1609795689582824
1757954199805442600,21.611442626953124,-0.4269766211509704,0.9109848141670228,-0.2369347810745239
1757954199815398700,21.621398681640624,-0.1728519350290298,0.7245302796363831,-0.3073383867740631
1757954199825354500,21.6313544921875,0.0256236046552658,0.5893692374229431,-0.3657841086387634
1757954199835310600,21.641310546875,0.1439574360847473,0.5203587412834167,-0.4059818685054779
1757954199845266700,21.6512666015625,0.17009237408638,0.5159352421760559,-0.4254109561443329
1757954199855223600,21.6612236328125,0.1152490973472595,0.565754234790802,-0.4270996749401092
1757954199865180000,21.671179931640623,0.0118494685739278,0.6562063694000244,-0.4105427861213684
1757954199875136000,21.68113598632813,-0.1127646341919899,0.7712938189506531,-0.3753848075866699
1757954199885091800,21.691091796875,-0.2365254610776901,0.9008080959320068,-0.3285246193408966
1757954199895048000,21.7010478515625,-0.3454737663269043,1.0240352153778076,-0.2716400325298309
1757954199905003800,21.711003662109373,-0.4379136860370636,1.1142481565475464,-0.2121500670909881
1757954199914960000,21.7209599609375,-0.5137053728103638,1.1603094339370728,-0.1522449254989624
1757954199924915700,21.730915771484376,-0.5781144499778748,1.1595070362091064,-0.0988195240497589
1757954199934871800,21.74087182617188,-0.6368566155433655,1.1191127300262451,-0.0472809635102748
1757954199944828700,21.75082861328125,-0.6813183426856995,1.0553697347640991,-0.0050104712136089
1757954199954784800,21.76078466796875,-0.7053158283233643,0.9804823994636536,0.0331395789980888
1757954199964740900,21.770740966796875,-0.7105433344841003,0.8983483910560608,0.0630308985710144
1757954199974697000,21.78069702148437,-0.6901088953018188,0.8084827065467834,0.0910052731633186
1757954199984652800,21.79065283203125,-0.6483010053634644,0.7080191969871521,0.11586694419384
1757954199994609000,21.80060888671875,-0.592219352722168,0.5915985703468323,0.1443699598312378
1757954200004564700,21.810564697265622,-0.520858883857727,0.464700311422348,0.1743544936180114
1757954200014520800,21.82052075195313,-0.4412679374217987,0.3306620717048645,0.200370118021965
1757954200024477700,21.83047778320313,-0.3579285740852356,0.1957053244113922,0.2205121368169784
1757954200034433800,21.840433837890625,-0.2610145509243011,0.0596739836037159,0.225722074508667
1757954200044389600,21.8503896484375,-0.1520851403474807,-0.0706302300095558,0.21634241938591
1757954200054345700,21.860345703125,-0.0306087750941514,-0.1961362212896347,0.1941894441843032
1757954200064301800,21.8703017578125,0.0895003229379654,-0.3170072436332702,0.1659926921129226
1757954200074258000,21.8802578125,0.2048325091600418,-0.4243925511837005,0.1365898102521896
1757954200084213800,21.8902138671875,0.2976205050945282,-0.5024554133415222,0.1158989071846008
1757954200094169900,21.900169921875,0.3566150963306427,-0.5442550182342529,0.1039122864603996
1757954200104125700,21.910125732421875,0.3828187584877014,-0.5443024635314941,0.0975619778037071
1757954200114082800,21.920082763671875,0.3891448378562927,-0.4903590679168701,0.0868422240018844
1757954200124039000,21.93003881835937,0.3770689964294433,-0.3994659185409546,0.0661585107445716
1757954200133994800,21.939994873046874,0.3487646579742431,-0.2942188382148742,0.0359422862529754
1757954200143950600,21.94995068359375,0.3061652481555938,-0.1999538540840149,0.0059018312022089
1757954200153907000,21.959906982421877,0.2440542131662368,-0.1077107489109039,-0.0156727023422718
1757954200163862800,21.96986279296875,0.1771651953458786,-0.0020583572331815,-0.0449352487921714
1757954200173819000,21.97981884765625,0.1350920349359512,0.1496201157569885,-0.0967513099312782
1757954200183774700,21.989774658203125,0.1384854465723037,0.3304820358753204,-0.1539389640092849
1757954200193730800,21.999730712890624,0.1740793883800506,0.4887973964214325,-0.2000622451305389
1757954200203688000,22.00968798828125,0.2341216802597046,0.5670408010482788,-0.219596266746521
1757954200213643800,22.019643798828124,0.2963456511497497,0.5247143507003784,-0.1980819255113601
1757954200223599900,22.029599853515624,0.3372291624546051,0.391961395740509,-0.1495002806186676
1757954200233555700,22.0395556640625,0.3415655791759491,0.2262896001338958,-0.1072220578789711
1757954200243511800,22.04951171875,0.3153877854347229,0.0539359375834465,-0.0872249156236648
1757954200253468000,22.059468017578126,0.2643810510635376,-0.1324174255132675,-0.0731370598077774
1757954200263424000,22.069424072265623,0.1973253190517425,-0.3188269734382629,-0.0525263249874115
1757954200273379800,22.0793798828125,0.1318270117044448,-0.4906682670116424,-0.0182919222861528
1757954200283336000,22.0893359375,0.0722739323973655,-0.6360433101654053,0.0252691376954317
1757954200293292800,22.099292724609374,0.0295027643442153,-0.7566142082214355,0.0752303078770637
1757954200303249000,22.109248779296877,0.0222062356770038,-0.8597062230110168,0.1242455169558525
1757954200313204700,22.119204833984377,0.0620916001498699,-0.9594264030456544,0.1681346744298935
1757954200323160800,22.12916088867188,0.1451244354248047,-1.0520961284637451,0.1958430111408233
1757954200333116700,22.13911669921875,0.2754203975200653,-1.1352925300598145,0.1965785771608352
1757954200343072800,22.14907275390625,0.4415712654590606,-1.2083313465118408,0.1632563024759292
1757954200353028900,22.15902880859375,0.6258175373077393,-1.2676790952682495,0.1020539328455925
1757954200362985000,22.16898486328125,0.8102220296859741,-1.326902151107788,0.0332096181809902
1757954200372940800,22.17894091796875,0.9581193327903748,-1.3860567808151243,-0.0245154630392789
1757954200382898000,22.18889794921875,1.0510990619659424,-1.4254100322723389,-0.0597030110657215
1757954200392853800,22.198853759765623,1.0869609117507937,-1.446155071258545,-0.0657630339264869
1757954200402809900,22.20880981445313,1.0604779720306396,-1.451374053955078,-0.0363084711134433
1757954200412765700,22.218765625,0.9605124592781068,-1.4491173028945925,0.0058613512665033
1757954200422721800,22.2287216796875,0.8038045763969421,-1.4322408437728882,0.0386597774922847
1757954200432677600,22.238677734375,0.6281059980392456,-1.3946125507354736,0.0628215745091438
1757954200442634000,22.248634033203125,0.4629937410354614,-1.306050181388855,0.0724137499928474
1757954200452589800,22.25858984375,0.327637255191803,-1.153571367263794,0.0537710860371589
1757954200462546000,22.2685458984375,0.2240613251924514,-0.956225574016571,0.0144207505509257
1757954200472502800,22.27850268554688,0.1314821243286132,-0.7344425916671753,-0.0247269179672002
1757954200482459000,22.288458984375,0.0268856771290302,-0.5251745581626892,-0.0519619993865489
1757954200492414700,22.298414794921875,-0.0858864113688469,-0.3515601754188537,-0.0687641501426696
1757954200502370800,22.30837084960937,-0.1907571703195572,-0.2061363905668258,-0.0838669389486312
1757954200512326700,22.31832666015625,-0.2702756822109222,-0.0778513848781585,-0.0979760959744453
1757954200522282800,22.32828271484375,-0.3279994428157806,0.0382528454065322,-0.1196851208806037
1757954200532238800,22.33823876953125,-0.3674187660217285,0.136762648820877,-0.1401834785938263
1757954200542195000,22.34819482421875,-0.3983500301837921,0.2326553463935852,-0.1498779058456421
1757954200552150800,22.35815087890625,-0.4454525709152221,0.3417333662509918,-0.1560844033956527
1757954200562108000,22.36810791015625,-0.5156316757202148,0.4725955128669739,-0.1538926213979721
1757954200572064000,22.37806396484375,-0.6061605215072632,0.621200680732727,-0.1426130682229995
1757954200582019800,22.388019775390624,-0.691054105758667,0.7871555685997009,-0.1304040849208831
1757954200591976000,22.397975830078124,-0.7542000412940979,0.9427723288536072,-0.1263416856527328
1757954200601931800,22.407931884765624,-0.7734853029251099,0.9587814211845398,-0.1492848247289657
1757954200611887900,22.417887939453124,-0.7414330840110779,0.8209415078163147,-0.212286964058876
1757954200621843700,22.42784375,-0.6597467660903931,0.6209807395935059,-0.2637626826763153
1757954200631800000,22.437800048828127,-0.5385545492172241,0.4261558353900909,-0.2833549976348877
1757954200641756000,22.447755859375,-0.394100159406662,0.2404032796621322,-0.2753194570541382
1757954200651712800,22.45771264648437,-0.2527489066123962,0.0585882104933261,-0.2468947321176529
1757954200661668900,22.4676689453125,-0.1353751420974731,-0.1137547940015792,-0.1942895799875259
1757954200671625000,22.477625,-0.0507566556334495,-0.2370029538869857,-0.1275989711284637
1757954200681580800,22.487580810546877,0.0129432287067174,-0.2489536255598068,-0.0963201448321342
1757954200691537000,22.497536865234373,0.0779690966010093,-0.1047804728150367,-0.09303779900074
1757954200701492700,22.50749267578125,0.1481918692588806,0.1585720628499984,-0.0826834291219711
1757954200711448800,22.51744873046875,0.2057169377803802,0.4760496318340301,-0.0648863241076469
1757954200721404700,22.52740478515625,0.2393942177295684,0.8042740821838379,-0.0606590844690799
1757954200731361000,22.537361083984376,0.2514625787734985,1.1274758577346802,-0.0736515820026397
1757954200741317600,22.547317626953124,0.2149146944284439,1.4019087553024292,-0.0718403682112693
1757954200751274000,22.55727392578125,0.0992259159684181,1.558993220329285,-0.0198618546128273
1757954200761229800,22.567229736328127,-0.0749794393777847,1.5624557733535769,0.0309272892773151
1757954200771186000,22.57718603515625,-0.2218897938728332,1.4277427196502686,0.0157107859849929
1757954200781141800,22.58714184570313,-0.276046484708786,1.1876307725906372,-0.0590518675744533
1757954200791097900,22.597097900390622,-0.229226529598236,0.8768883943557739,-0.1595531702041626
1757954200801053700,22.6070537109375,-0.1208201572299003,0.5474138259887695,-0.2536874115467071
1757954200811009800,22.617009765625,0.0062416507862508,0.2581577897071838,-0.3270817101001739
1757954200820966000,22.6269658203125,0.1117108166217804,0.0769661515951156,-0.3826291263103485
1757954200830922000,22.636921875,0.161083698272705,0.0296252705156803,-0.4222511053085327
1757954200840878800,22.64687890625,0.1518065780401229,0.0938958674669265,-0.4344145655632019
1757954200850835000,22.6568349609375,0.0906420201063156,0.2125825732946396,-0.4189493358135223
1757954200860791600,22.66679150390625,-0.00471779005602,0.3413818180561065,-0.3761941492557525
1757954200870747400,22.676747314453124,-0.1100000068545341,0.4479218423366546,-0.3235865831375122
1757954200880703500,22.686703369140623,-0.2072370797395706,0.5273721814155579,-0.2691382467746734
1757954200890659300,22.696659423828127,-0.2820431292057037,0.5675955414772034,-0.2079225778579712
1757954200900615400,22.706615478515623,-0.3335273563861847,0.5607301592826843,-0.1495788395404815
1757954200910571300,22.7165712890625,-0.3655644059181213,0.5084648132324219,-0.0911679938435554
1757954200920527400,22.72652734375,-0.3822989165782928,0.4253667294979095,-0.0362448245286941
1757954200930483500,22.7364833984375,-0.3843005299568176,0.322672575712204,0.0170863084495067
1757954200940440300,22.7464404296875,-0.3781904578208923,0.2207709997892379,0.0642229318618774
1757954200950396400,22.756396484375,-0.3608535230159759,0.1337809711694717,0.1005029082298278
1757954200960352500,22.7663525390625,-0.3351521492004394,0.0658085718750953,0.1292061954736709
1757954200970308600,22.77630859375,-0.3025409579277038,0.0209225919097661,0.1549059599637985
1757954200980264400,22.78626440429688,-0.2692762017250061,-0.004857872147113,0.1717160940170288
1757954200990220500,22.796220458984376,-0.2364159971475601,-0.0233508627861738,0.1773010194301605
1757954201000176400,22.80617626953125,-0.2049800455570221,-0.0290596149861812,0.1863507032394409
1757954201010132500,22.81613256835937,-0.1756450533866882,-0.0287791844457387,0.1992915272712707
1757954201020088300,22.82608837890625,-0.1448807567358017,-0.0230746921151876,0.2132270634174347
1757954201030045400,22.83604541015625,-0.1131598427891731,-0.0048996838741004,0.2247609347105026
1757954201040001300,22.84600122070313,-0.0789701789617538,0.0311933401972055,0.2271495312452316
1757954201049957600,22.85595751953125,-0.0379705503582954,0.0789667218923568,0.2164620012044906
1757954201059913500,22.86591357421875,0.0188623704016208,0.1303116679191589,0.1912149637937545
1757954201069869600,22.87586962890625,0.0939392820000648,0.1678896695375442,0.1549786627292633
1757954201079825400,22.885825439453125,0.1779966354370117,0.1672201454639434,0.1258993446826934
1757954201089781500,22.895781494140625,0.2513970732688904,0.1206313446164131,0.1042062938213348
1757954201099737300,22.9057373046875,0.3054153025150299,0.0396837629377841,0.0832530781626701
1757954201109693400,22.915693359375,0.3396840691566467,-0.0482037477195262,0.0695630982518196
1757954201119649500,22.9256494140625,0.3469297289848327,-0.1182613968849182,0.0572134889662265
1757954201129606400,22.9356064453125,0.3072246611118316,-0.1784709393978119,0.0390968024730682
1757954201139562500,22.9455625,0.2236706465482711,-0.2359139919281005,0.0182863287627697
1757954201149518600,22.9555185546875,0.1011761501431465,-0.2829872369766235,-0.0127008818089962
1757954201159474400,22.96547436523437,-0.0416276045143604,-0.3093951344490051,-0.0727146863937377
1757954201169430500,22.975430419921874,-0.1500536799430847,-0.3073692619800567,-0.1632637530565261
1757954201179386400,22.98538647460937,-0.1870063692331314,-0.289861649274826,-0.2534786164760589
1757954201189342500,22.995342529296877,-0.1582535505294799,-0.2725774645805359,-0.3127126395702362
1757954201199298300,23.00529833984375,-0.0836221948266029,-0.2661435306072235,-0.3133414089679718
1757954201209254400,23.01525439453125,0.010203368961811,-0.2587921321392059,-0.2637299001216888
1757954201219211300,23.025211181640625,0.0942961424589157,-0.2176918387413025,-0.1925305724143982
1757954201229167400,23.03516748046875,0.1296772956848144,-0.1371663808822631,-0.1393070220947265
1757954201239123500,23.04512353515625,0.0990485548973083,-0.0490873865783214,-0.1072095409035682
1757954201249079600,23.05507958984375,0.009402822703123,0.0140809314325451,-0.0857833474874496
1757954201259035400,23.065035400390624,-0.1122415885329246,0.050061035901308,-0.0658306777477264
1757954201268991500,23.074991455078123,-0.2257993072271347,0.0589975416660308,-0.0408502258360385
1757954201278947300,23.084947265625,-0.310486763715744,0.0354770347476005,-0.0217457748949527
1757954201288903400,23.0949033203125,-0.34922856092453,-0.0323150642216205,-0.0041414815932512
1757954201298859300,23.104859375,-0.3463883101940155,-0.1545048803091049,0.0204757135361433
1757954201308815400,23.1148154296875,-0.3010748922824859,-0.3258665204048157,0.048055674880743
1757954201318772500,23.1247724609375,-0.2214154750108719,-0.5243242383003235,0.0832932889461517
1757954201328728300,23.134728271484374,-0.1062233746051788,-0.7280699014663696,0.1179977431893348
1757954201338684700,23.1446845703125,0.031739555299282,-0.9267007112503052,0.1491103917360305
1757954201348640500,23.154640625,0.191609650850296,-1.1037026643753052,0.1665426343679428
1757954201358596400,23.16459643554688,0.3670022487640381,-1.2357985973358154,0.1710812002420425
1757954201368552400,23.174552490234376,0.5530000925064087,-1.3057126998901367,0.1544454991817474
1757954201378508300,23.18450830078125,0.7518564462661743,-1.290984869003296,0.1213732957839965
1757954201388464400,23.19446435546875,0.9638845324516296,-1.2058523893356323,0.0643702000379562
1757954201398420200,23.204420166015623,1.1734611988067627,-1.07826566696167,-0.0004812332044821
1757954201408376600,23.21437646484375,1.337300419807434,-0.9686886072158812,-0.0310615133494138
1757954201418333400,23.22433349609375,1.3831111192703247,-0.9332467317581176,0.0181174855679273
1757954201428289500,23.23428955078125,1.2581603527069092,-0.9541738629341124,0.1190763264894485
1757954201438245600,23.24424560546875,1.0030514001846311,-0.9809916019439696,0.2128227949142456
1757954201448201500,23.254201416015626,0.7121465802192688,-0.9745217561721802,0.2544503808021545
1757954201458157600,23.264157470703125,0.4802467823028564,-0.9382079243659972,0.2583362162113189
1757954201468113400,23.274113525390625,0.3437400460243225,-0.8828464150428772,0.2308896780014038
1757954201478069500,23.284069580078125,0.2722898423671722,-0.8567621111869812,0.1863134205341339
1757954201488025300,23.294025390625,0.2264656275510788,-0.8766351342201233,0.1414423435926437
1757954201497981400,23.3039814453125,0.1930123269557953,-0.8881437182426453,0.1058151125907898
1757954201507937500,23.3139375,0.1665258705615997,-0.8236472606658936,0.0881213396787643
1757954201517894400,23.323894287109376,0.1474291384220123,-0.6413456201553345,0.0681396424770355
1757954201527850500,23.3338505859375,0.118202805519104,-0.3360488414764404,0.0413189455866813
1757954201537806600,23.343806640625,0.0547442063689231,0.0350237637758255,0.0281783752143383
1757954201547762400,23.353762451171875,-0.071614533662796,0.4044968783855438,0.0339140258729457
1757954201557718500,23.36371850585937,-0.2445133328437805,0.7163668870925903,0.0686871856451034
1757954201567674400,23.37367431640625,-0.4431438744068146,0.9642603397369384,0.1119686141610145
1757954201577630500,23.38363037109375,-0.643608808517456,1.1251094341278076,0.1550260633230209
1757954201587586300,23.39358642578125,-0.8405287861824036,1.2065725326538086,0.2201693803071975
1757954201597542400,23.40354248046875,-1.0089577436447144,1.2077001333236694,0.2937144339084625
1757954201607498500,23.41349853515625,-1.1394726037979126,1.1822153329849243,0.3462511599063873
1757954201617455400,23.423455322265625,-1.2163634300231934,1.1565251350402832,0.3578010201454162
1757954201627411500,23.433411376953124,-1.2398511171340942,1.084992289543152,0.3290524482727051
1757954201637367600,23.443367431640624,-1.2129638195037842,0.966842234134674,0.2776742279529571
1757954201647323400,23.453323486328124,-1.1234158277511597,0.8227423429489136,0.2377097606658935
1757954201657279500,23.463279541015623,-0.9660236239433287,0.6823495626449585,0.2160779684782028
1757954201667235300,23.4732353515625,-0.7430427074432373,0.5482894778251648,0.2072695642709732
1757954201677191400,23.48319140625,-0.4720855057239532,0.388601541519165,0.2002710402011871
1757954201687147300,23.493147216796874,-0.1938243359327316,0.1923055350780487,0.1777239292860031
1757954201697103600,23.503103515625,0.053491186350584,-0.0001390170073136,0.1187538132071495
1757954201707059500,23.5130595703125,0.2479980885982513,-0.1207336112856864,0.0196559932082891
1757954201717016600,23.5230166015625,0.3894191384315491,-0.1182451471686363,-0.0926753431558609
1757954201726972400,23.532972412109373,0.5007155537605286,-0.0090028159320354,-0.1774874329566955
1757954201736928500,23.54292846679688,0.5978005528450012,0.1592003107070922,-0.2312390804290771
1757954201746884400,23.55288427734375,0.7071366310119629,0.3490080535411834,-0.2461157590150833
1757954201756840400,23.56284033203125,0.841759979724884,0.5466929078102112,-0.2009323090314865
1757954201766796300,23.57279638671875,0.8190264105796814,0.7469913959503174,-0.0604284554719924
1757954201776752400,23.58275244140625,0.4702348709106445,0.8627738952636719,0.1595955193042755
1757954201786708500,23.59270849609375,0.0111109744757413,1.0555588006973269,0.2573212683200836
1757954201796664600,23.60266455078125,-0.3434942364692688,1.2967660427093506,0.1780727952718734
1757954201806620400,23.612620361328126,-0.51966392993927,1.5238386392593384,0.0009571401169523
1757954201816577500,23.62257763671875,-0.5095247626304626,1.6726491451263428,-0.1939625442028045
1757954201826533600,23.63253369140625,-0.3717450499534607,1.6707866191864014,-0.333611786365509
1757954201836489500,23.64248950195313,-0.1944653540849685,1.5224764347076416,-0.3783757984638214
1757954201846445600,23.652445556640625,-0.0529295280575752,1.307128667831421,-0.3570025861263275
1757954201856401400,23.6624013671875,-0.0150386039167642,1.109050750732422,-0.3160043060779571
1757954201866356700,23.672356689453125,-0.079880453646183,0.9451020956039428,-0.2749831080436706
1757954201876313000,23.68231298828125,-0.1945415139198303,0.8062126040458679,-0.2328913062810897
1757954201886269000,23.69226904296875,-0.315192312002182,0.6708998084068298,-0.1823232024908065
1757954201896225000,23.70222509765625,-0.415611058473587,0.5415037274360657,-0.1154688075184822
1757954201906180900,23.712180908203123,-0.4927399158477783,0.431788682937622,-0.0427216291427612
1757954201916138000,23.722137939453123,-0.5497206449508667,0.3494589328765869,0.0309118423610925
1757954201926094000,23.732093994140627,-0.5824804902076721,0.2850985825061798,0.095152348279953
1757954201936050000,23.7420498046875,-0.5952790975570679,0.2374804615974426,0.1437635570764541
1757954201946006000,23.752006103515622,-0.5923149585723877,0.1889345049858093,0.1734644621610641
1757954201955961900,23.7619619140625,-0.5891618132591248,0.1272021532058715,0.186941385269165
1757954201965918000,23.77191796875,-0.5904108285903931,0.0516645275056362,0.1923151165246963
1757954201975874000,23.7818740234375,-0.5965595245361328,-0.0276286974549293,0.197640374302864
1757954201985830000,23.791829833984377,-0.6089325547218323,-0.1029620692133903,0.2080480009317398
1757954201995786000,23.80178588867188,-0.6155042052268982,-0.1672366559505462,0.2261058390140533
1757954202005741800,23.811741943359376,-0.6058443784713745,-0.2079462707042694,0.2462944686412811
1757954202015698000,23.82169799804688,-0.5801752209663391,-0.2202530056238174,0.2538365423679352
1757954202025655000,23.83165502929688,-0.5372517108917236,-0.2041616588830948,0.2608547508716583
1757954202035611000,23.84161083984375,-0.4776957333087921,-0.168573573231697,0.2661121189594269
1757954202045567000,23.85156689453125,-0.4160917401313782,-0.1319005042314529,0.2708695828914642
1757954202055522800,23.861522705078126,-0.3648828864097595,-0.0979995355010032,0.2788678407669067
1757954202065479200,23.871479248046874,-0.3192791938781738,-0.0622673705220222,0.2919463813304901
1757954202075435000,23.88143505859375,-0.2840250730514526,-0.0216152798384428,0.3022863566875458
1757954202085391000,23.89139111328125,-0.2434906810522079,0.0291003603488206,0.3060014545917511
1757954202095347000,23.901346923828125,-0.1845895498991012,0.0943134501576423,0.2963195443153381
1757954202105303000,23.911302978515625,-0.1017972007393837,0.177435502409935,0.2779349386692047
1757954202115259000,23.9212587890625,-0.0021880532149225,0.272418200969696,0.2524407804012298
1757954202125215000,23.931215087890624,0.0987750440835952,0.3555961847305298,0.2260749489068985
1757954202135171800,23.941171875,0.1879041194915771,0.3924157321453094,0.203394666314125
1757954202145128000,23.9511279296875,0.2457463890314102,0.3568952679634094,0.1722180992364883
1757954202155083800,23.961083740234372,0.2689526379108429,0.2537523806095123,0.1211567819118499
1757954202165040000,23.9710400390625,0.2593748569488525,0.0925341919064521,0.0520464219152927
1757954202174996000,23.98099584960937,0.2273250371217727,-0.0837180688977241,-0.0271527916193008
1757954202184952000,23.9909521484375,0.1872742921113968,-0.2433002740144729,-0.1152171343564987
1757954202194908000,24.00090795898437,0.1678981930017471,-0.3612650036811828,-0.1993930041790008
1757954202204864000,24.010864013671878,0.1788781434297561,-0.4097190797328949,-0.2678487598896026
1757954202214819800,24.02081982421875,0.2320508062839508,-0.4211632013320923,-0.3282654881477356
1757954202224776000,24.03077587890625,0.3133829534053802,-0.3701210618019104,-0.3664341866970062
1757954202234732800,24.04073291015625,0.4086498022079468,-0.2834911048412323,-0.3835497796535492
1757954202244689000,24.05068896484375,0.4924927949905395,-0.1837714314460754,-0.4017626047134399
1757954202254645000,24.06064501953125,0.5396552085876465,-0.1083517745137214,-0.4243376851081848
1757954202264601000,24.07060107421875,0.5146476030349731,-0.1099424809217453,-0.444157212972641
1757954202274557000,24.080556884765624,0.4109182953834533,-0.2115916162729263,-0.4389416873455047
1757954202284513000,24.090512939453124,0.2753394246101379,-0.382397711277008,-0.4242117404937744
1757954202294468900,24.10046875,0.1780901104211807,-0.5638425946235657,-0.4161191880702972
1757954202304425000,24.110425048828127,0.1468807905912399,-0.7506923675537109,-0.4135031700134277
1757954202314380800,24.120380859375,0.1743270605802536,-0.955921709537506,-0.4225744307041168
1757954202324337000,24.1303369140625,0.2425780147314071,-1.1705926656723022,-0.4389523267745971
1757954202334293800,24.140293701171878,0.3289690911769867,-1.3867225646972656,-0.451702743768692
1757954202344249900,24.15024975585937,0.4204649329185486,-1.5766347646713257,-0.4582940638065338
1757954202354206000,24.1602060546875,0.5130244493484497,-1.720910668373108,-0.4537869393825531
1757954202364162000,24.170162109375,0.5993247032165527,-1.8086882829666135,-0.4395637810230255
1757954202374118000,24.18011791992188,0.6782296299934387,-1.8334580659866333,-0.4099976420402527
1757954202384074000,24.190073974609376,0.7443010807037354,-1.7808691263198853,-0.3757592439651489
1757954202394029800,24.20002978515625,0.7921961545944214,-1.651843786239624,-0.3336637318134308
1757954202403986000,24.20998583984375,0.8171547651290894,-1.4544696807861328,-0.2813019752502441
1757954202413941800,24.219941650390624,0.8139688372612,-1.2079579830169678,-0.2294710129499435
1757954202423897900,24.22989794921875,0.7839118242263794,-0.9309327006340028,-0.1821492910385131
1757954202433854000,24.23985400390625,0.7328790426254272,-0.6613417267799377,-0.1386612057685852
1757954202443810800,24.249810791015623,0.6635478734970093,-0.4192366898059845,-0.097386211156845
1757954202453767200,24.25976708984375,0.5857718586921692,-0.2146987169981002,-0.0592263042926788
1757954202463723000,24.269722900390622,0.506511390209198,-0.0487622134387493,-0.0232352819293737
1757954202473678800,24.27967895507813,0.4339889883995056,0.0763317868113517,0.0094235958531498
1757954202483635000,24.289635009765625,0.3688856363296509,0.1587648838758468,0.0384608395397663
1757954202493590800,24.2995908203125,0.3154788613319397,0.1939034312963485,0.063843160867691
1757954202503547000,24.309546875,0.275852620601654,0.1801191717386245,0.0826815664768219
1757954202513502700,24.31950268554688,0.2513656616210937,0.1245358064770698,0.0835761204361915
1757954202523459000,24.329458984375,0.2464507967233657,0.0182021725922822,0.069484531879425
1757954202533415000,24.33941479492188,0.2581084966659546,-0.1246013194322586,0.0414049625396728
1757954202543371000,24.34937109375,0.2845425009727478,-0.2812074422836303,0.0018604843644425
1757954202553328000,24.359328125,0.3209287524223327,-0.4415651559829712,-0.040880586951971
1757954202563284000,24.369283935546875,0.3635659515857696,-0.5973103046417236,-0.0896675661206245
1757954202573240000,24.37923999023437,0.4064202308654785,-0.7395545244216919,-0.1406029164791107
1757954202583196000,24.38919580078125,0.4542686939239502,-0.8535580635070801,-0.1945756077766418
1757954202593152000,24.39915209960937,0.504494309425354,-0.952120840549469,-0.2529409229755401
1757954202603107800,24.40910791015625,0.5808796286582947,-1.0272773504257202,-0.3015465438365936
1757954202613064000,24.41906396484375,0.6875783801078796,-1.103423833847046,-0.3343724012374878
1757954202623020000,24.42902001953125,0.7778781652450562,-1.2291399240493774,-0.3332088589668274
1757954202632976100,24.43897607421875,0.7860908508300781,-1.4130187034606934,-0.3132140934467315
1757954202642932000,24.448931884765624,0.7181938290596008,-1.6007821559906006,-0.2915714085102081
1757954202652888000,24.45888818359375,0.6235727667808533,-1.7516601085662842,-0.2824298441410064
1757954202662845000,24.468844970703124,0.5303224325180054,-1.8552008867263796,-0.2993550300598144
1757954202672801000,24.478801025390624,0.445468544960022,-1.9057610034942627,-0.339665949344635
1757954202682756900,24.4887568359375,0.3629734218120575,-1.8845702409744265,-0.3829487264156341
1757954202692713000,24.498712890625,0.2745061218738556,-1.7737147808074951,-0.4123694598674774
1757954202702668800,24.508668701171874,0.1725587248802185,-1.5792601108551023,-0.4270786345005035
1757954202712625200,24.518625244140622,0.0606649443507194,-1.3278148174285889,-0.4191360175609588
1757954202722581000,24.5285810546875,-0.0640444979071617,-1.061969518661499,-0.3832693696022033
1757954202732537000,24.538537109375,-0.1939287185668945,-0.8071577548980713,-0.3281168937683105
1757954202742493000,24.548492919921877,-0.2805328667163849,-0.524217963218689,-0.3010663688182831
1757954202752449000,24.558448974609377,-0.2882256805896759,-0.1696667969226837,-0.2888184785842895
1757954202762404900,24.56840478515625,-0.2665339410305023,0.2331107556819915,-0.229881927371025
1757954202772362000,24.57836206054688,-0.318775326013565,0.602901041507721,-0.0957997590303421
1757954202782317800,24.58831787109375,-0.4821714460849762,0.9081512689590454,0.0612987764179706
1757954202792274000,24.59827392578125,-0.6894596219062805,1.182079195976257,0.1686076521873474
1757954202802229800,24.608229736328123,-0.8502306938171387,1.4217945337295532,0.2134986966848373
1757954202812186000,24.61818603515625,-0.9226207137107848,1.585431694984436,0.2164303064346313
1757954202822142000,24.628141845703126,-0.9230343103408812,1.6304596662521362,0.1985748708248138
1757954202832098000,24.63809814453125,-0.868887722492218,1.5471397638320925,0.1662723273038864
1757954202842054000,24.64805395507813,-0.7622909545898438,1.365849256515503,0.124459370970726
1757954202852010000,24.658010009765626,-0.6003065705299377,1.1162011623382568,0.0807145535945892
1757954202861966000,24.667966064453125,-0.3861077427864074,0.8434489369392395,0.0463467240333557
1757954202871922000,24.677921875,-0.1572460830211639,0.5822476744651794,0.0295512340962886
1757954202881879000,24.687879150390625,0.0361361652612686,0.3807500004768371,0.038727156817913
1757954202891835000,24.6978349609375,0.1428868472576141,0.2640010118484497,0.0712688565254211
1757954202901791000,24.707791015625,0.1445358693599701,0.2469330877065658,0.1224465519189834
1757954202911747000,24.7177470703125,0.0724896490573883,0.3277360498905182,0.171178936958313
1757954202921703200,24.727703125,-0.0262249466031789,0.5071290135383606,0.2053257226943969
1757954202931659000,24.737658935546875,-0.1083621606230735,0.7617695331573486,0.2194854915142059
1757954202941615000,24.74761499023437,-0.1716913282871246,1.0477666854858398,0.2240557372570037
1757954202951571000,24.757571044921875,-0.2219856530427932,1.3231273889541626,0.2277476787567138
1757954202961527000,24.76752709960937,-0.2768568992614746,1.5536245107650757,0.2361739128828048
1757954202971483000,24.77748291015625,-0.3445150256156921,1.7283422946929932,0.2581055760383606
1757954202981439200,24.78743920898437,-0.4208787977695465,1.846482753753662,0.2924031019210815
1757954202991395000,24.79739501953125,-0.5014292597770691,1.9180421829223635,0.3310002982616424
1757954203001352200,24.807352294921877,-0.5797693729400635,1.969106912612915,0.3718864619731903
1757954203011308000,24.81730810546875,-0.6518643498420715,2.009286642074585,0.4167878925800323
1757954203021264100,24.82726416015625,-0.7108525633811951,2.03297758102417,0.4591111242771148
1757954203031220000,24.837219970703124,-0.7575113773345947,2.03507924079895,0.4946084022521972
1757954203041176000,24.847176025390624,-0.7957554459571838,2.0043773651123047,0.520478367805481
1757954203051132000,24.8571318359375,-0.8223002552986145,1.9332256317138672,0.5397137999534607
1757954203061088000,24.867087890625,-0.8370237946510315,1.8210450410842896,0.5485773682594299
1757954203071044000,24.877044189453127,-0.8419354557991028,1.6776881217956543,0.553650438785553
1757954203081000200,24.887000244140623,-0.8266667723655701,1.502357840538025,0.5569015741348267
1757954203090956000,24.8969560546875,-0.7992756366729736,1.2899731397628784,0.5584899187088013
1757954203100912000,24.906912109375,-0.7595042586326599,1.0431420803070068,0.5569345951080322
1757954203110869200,24.916869140625,-0.7073702216148376,0.773766815662384,0.5462172627449036
1757954203120825000,24.9268251953125,-0.6502975821495056,0.496799111366272,0.5246480703353882
1757954203130781200,24.93678125,-0.5909498333930969,0.227731168270111,0.4887118935585022
1757954203140737000,24.94673706054688,-0.5282840728759766,-0.0168860387057065,0.4366292655467987
1757954203150693000,24.956693115234376,-0.4581933915615082,-0.2315831631422042,0.3710403740406036
1757954203160649000,24.96664892578125,-0.3774314522743225,-0.4306251406669616,0.2908065319061279
1757954203170605000,24.97660498046875,-0.2820258140563965,-0.6270186305046082,0.2080496102571487
1757954203180561200,24.98656103515625,-0.1746266633272171,-0.8192014098167419,0.1356851309537887
1757954203190517200,24.99651733398437,-0.0755126029253006,-1.0068037509918213,0.0791547372937202
1757954203200473000,25.00647314453125,0.0014170679496601,-1.1730077266693115,0.0364922322332859
1757954203210429000,25.016428955078126,0.0498144291341304,-1.294467210769653,-0.0095418393611907
1757954203220385000,25.026385009765622,0.0785589888691902,-1.3536940813064575,-0.0601059459149837
1757954203230342100,25.036342041015622,0.0954801812767982,-1.3535447120666504,-0.1110788509249687
