time,seconds_elapsed,z,y,x
1759601926431080200,0.051080078125,0.017413543537259102,0.011234834790229797,0.1609741747379303
1759601926441034000,0.061033935546875,0.009564408101141453,0.030221307650208473,0.17841042578220367
1759601926450988000,0.070988037109375,0.006394547410309315,0.04159350320696831,0.19017460942268372
1759601926460942000,0.080942138671875,0.011736049316823483,0.024118907749652863,0.18865075707435608
1759601926470896000,0.090896240234375,0.019653474912047386,-0.0018333601765334606,0.19813963770866394
1759601926480851000,0.100850830078125,0.009850645437836647,0.02155718207359314,0.22431451082229614
1759601926490805200,0.11080517578125,0.0009248929563909769,0.05689613148570061,0.2523530423641205
1759601926500759000,0.120759033203125,-0.009388198144733906,0.08791663497686386,0.2821628749370575
1759601926510713000,0.130713134765625,-0.007890473119914532,0.11011738330125809,0.30442437529563904
1759601926520667100,0.140667236328125,-0.000148664228618145,0.06763676553964615,0.30764734745025635
1759601926530622000,0.1506220703125,0.011212863959372044,-0.02227846346795559,0.3052433431148529
1759601926540576000,0.160575927734375,0.01471785083413124,-0.07645248621702194,0.30407261848449707
1759601926550530000,0.170530029296875,0.021431270986795425,-0.11003019660711288,0.29970282316207886
1759601926560483800,0.18048388671875,0.02417006716132164,-0.10449854284524918,0.2823249101638794
1759601926570438100,0.190438232421875,0.019676463678479195,-0.09479743242263794,0.23812711238861084
1759601926580393000,0.20039306640625,0.010763663798570633,-0.05767775699496269,0.19831177592277527
1759601926590347000,0.210346923828125,-0.006969269830733538,0.0068358164280653,0.16553641855716705
1759601926600301000,0.220301025390625,-0.01811087131500244,0.0659734383225441,0.15661004185676575
1759601926610255000,0.230255126953125,-0.02431047335267067,0.11221053451299667,0.17327821254730225
1759601926620209000,0.240208984375,-0.013067672960460186,0.09332872182130814,0.18730135262012482
1759601926630164200,0.250164306640625,0.0067198555916547775,0.029034966602921486,0.1936306357383728
1759601926640118000,0.260117919921875,0.025893284007906914,-0.09455248713493347,0.19545304775238037
1759601926650072000,0.270072021484375,0.03978339582681656,-0.19294708967208862,0.19800643622875214
1759601926660026000,0.280026123046875,0.040613770484924316,-0.23476724326610565,0.1906081736087799
1759601926669980200,0.289980224609375,0.03945781663060188,-0.2252560704946518,0.16740797460079193
1759601926679935000,0.29993505859375,0.04015662893652916,-0.19928839802742004,0.13579759001731873
1759601926689889000,0.309888916015625,0.04195774346590042,-0.18165364861488342,0.10524780303239822
1759601926699842800,0.3198427734375,0.04217558726668358,-0.18774668872356415,0.07556873559951782
1759601926709797000,0.329797119140625,0.03889189288020134,-0.2061212658882141,0.057263098657131195
1759601926719751200,0.339751220703125,0.04165678843855858,-0.21717604994773865,0.059121452271938324
1759601926729705200,0.349705322265625,0.05398125946521759,-0.2597534656524658,0.06634628772735596
1759601926739660000,0.359659912109375,0.062195248901844025,-0.3099108934402466,0.0839117020368576
1759601926749614000,0.369614013671875,0.05681753158569336,-0.296178936958313,0.1224040761590004
1759601926759568000,0.37956787109375,0.043983493000268936,-0.21750225126743317,0.16143615543842316
1759601926769522000,0.38952197265625,0.03463983163237572,-0.12243877351284027,0.1874133050441742
1759601926779476000,0.39947607421875,0.025060711428523064,-0.04520736634731293,0.19619640707969666
1759601926789431000,0.40943115234375,0.013479813002049923,-0.022090639919042587,0.19307483732700348
1759601926799385000,0.419385009765625,0.009087993763387203,-0.022852836176753044,0.19581176340579987
1759601926809339100,0.429339111328125,0.007466438226401806,-0.008313761092722416,0.20910079777240753
1759601926819293000,0.43929296875,0.008286957629024982,0.03144882991909981,0.2342149317264557
1759601926829247000,0.4492470703125,-0.0024093592073768377,0.10495766252279282,0.2940325438976288
1759601926839202000,0.4592021484375,-0.03509806469082832,0.22739090025424957,0.3897590637207031
1759601926849156000,0.469156005859375,-0.08470270782709122,0.39171984791755676,0.504744827747345
1759601926859110100,0.479110107421875,-0.12642565369606018,0.5828192830085754,0.621071994304657
1759601926869064200,0.489064208984375,-0.1518835872411728,0.6785058975219727,0.7168565392494202
1759601926879018000,0.49901806640625,-0.17130707204341888,0.6343855261802673,0.7769206762313843
1759601926888973000,0.50897314453125,-0.16964346170425415,0.5759202241897583,0.836065948009491
1759601926898926800,0.5189267578125,-0.1403801143169403,0.6360152363777161,0.8758647441864014
1759601926908881000,0.528880859375,-0.15094664692878723,0.773722231388092,0.903550922870636
1759601926918835000,0.5388349609375,-0.14710664749145508,0.8891082406044006,0.9194046854972839
1759601926928789200,0.548789306640625,-0.14034269750118256,0.9245067834854126,0.8990646600723267
1759601926938743000,0.558742919921875,-0.1649463176727295,0.8948026895523071,0.8332821726799011
1759601926948698000,0.568697998046875,-0.15679308772087097,0.8720037341117859,0.7603181600570679
1759601926958652000,0.57865185546875,-0.12182153761386871,0.8285036683082581,0.6800840497016907
1759601926968606000,0.58860595703125,-0.09679147601127625,0.7354013323783875,0.5934870839118958
1759601926978560000,0.59856005859375,-0.07741138339042664,0.6090713739395142,0.5325129628181458
1759601926988514000,0.60851416015625,-0.044863246381282806,0.46071547269821167,0.48568013310432434
1759601926998469000,0.61846923828125,-0.020894262939691544,0.3564697504043579,0.4514896869659424
1759601927008423200,0.628423095703125,-0.01579173095524311,0.3772422671318054,0.4487423896789551
1759601927018377000,0.638376953125,-0.013851617462933064,0.49821582436561584,0.48535045981407166
1759601927028331000,0.6483310546875,-0.006226911675184965,0.668986439704895,0.5512018799781799
1759601927038285000,0.65828515625,0.0031245120335370302,0.7677058577537537,0.5875606536865234
1759601927048239900,0.668239990234375,0.004750728607177734,0.735916018486023,0.5751723051071167
1759601927058194000,0.67819384765625,-0.0053751422092318535,0.6462963819503784,0.5206219553947449
1759601927068148200,0.688148193359375,-0.006965341046452522,0.5810068845748901,0.4674452841281891
1759601927078102000,0.69810205078125,0.0016260163392871618,0.5683959722518921,0.4449104368686676
1759601927088056000,0.70805615234375,0.006247391924262047,0.5331428050994873,0.4474320411682129
1759601927098010000,0.718010009765625,0.032167673110961914,0.442535936832428,0.44494253396987915
1759601927107965000,0.72796484375,0.05718940868973732,0.3458675742149353,0.43945786356925964
1759601927117919000,0.7379189453125,0.09169678390026093,0.2701736390590668,0.44119903445243835
1759601927127873000,0.747873046875,0.11343394964933395,0.19164681434631348,0.4463961124420166
1759601927137826800,0.757826904296875,0.11338548362255096,0.13554440438747406,0.45603835582733154
1759601927147781000,0.767781005859375,0.09635019302368164,0.15015463531017303,0.48881569504737854
1759601927157736000,0.77773583984375,0.07647582143545151,0.18536268174648285,0.5202849507331848
1759601927167690000,0.78768994140625,0.051178861409425735,0.18472836911678314,0.5235359072685242
1759601927177644000,0.79764404296875,0.0223940871655941,0.16945940256118774,0.5058059096336365
1759601927187598000,0.80759814453125,-0.007028000894933939,0.15295010805130005,0.4773038327693939
1759601927197551900,0.8175517578125,-0.018664417788386345,0.10918797552585602,0.44385239481925964
1759601927207507200,0.827507080078125,-0.018768737092614174,0.0496191643178463,0.4054490327835083
1759601927217461000,0.8374609375,-0.0077309999614953995,0.02459663338959217,0.3880476653575897
1759601927227415000,0.8474150390625,0.00028119562193751335,-0.002923432271927595,0.3861922323703766
1759601927237369000,0.857369140625,0.010383897460997105,-0.04040715843439102,0.3888431191444397
1759601927247323100,0.8673232421875,0.017845824360847473,-0.0626031905412674,0.39383959770202637
1759601927257278000,0.87727783203125,0.025959409773349762,-0.05828860029578209,0.4004245400428772
1759601927267232000,0.88723193359375,0.03368569165468216,-0.08481968194246292,0.40241333842277527
1759601927277186000,0.89718603515625,0.03740879148244858,-0.1380498856306076,0.38874679803848267
1759601927287140000,0.90714013671875,0.044872432947158813,-0.19618523120880127,0.3672196865081787
1759601927297094100,0.91709423828125,0.04133868217468262,-0.20408523082733154,0.35706451535224915
1759601927307048200,0.927048095703125,0.03126624971628189,-0.18579231202602386,0.35922905802726746
1759601927317003000,0.9370029296875,0.028096023947000504,-0.1692649871110916,0.3576796054840088
1759601927326957000,0.94695703125,0.03437066078186035,-0.15742526948451996,0.34759122133255005
1759601927336910800,0.956910888671875,0.04718126729130745,-0.16102853417396545,0.3352080285549164
1759601927346865000,0.966864990234375,0.038140274584293365,-0.1452416330575943,0.3261047303676605
1759601927356819200,0.976819091796875,0.01655641943216324,-0.10790812224149704,0.31739646196365356
1759601927366774000,0.98677392578125,0.002986983163282275,-0.10556051135063171,0.2943021059036255
1759601927376728000,0.99672802734375,-0.011618590913712978,-0.12536883354187012,0.2669977843761444
1759601927386682000,1.00668212890625,-0.025952057912945747,-0.0926213413476944,0.2550661861896515
1759601927396636000,1.016635986328125,-0.043572064489126205,-0.04541974514722824,0.2602183520793915
1759601927406590000,1.02658984375,-0.04145607352256775,-0.047051575034856796,0.25754743814468384
1759601927416545300,1.036545166015625,-0.01853957213461399,-0.07377693057060242,0.2395862638950348
1759601927426499000,1.0464990234375,0.0031962513457983732,-0.09883111715316772,0.2256651669740677
1759601927436453000,1.056453125,0.01949266716837883,-0.12418387085199356,0.21010512113571167
1759601927446407200,1.0664072265625,0.031211182475090027,-0.13422508537769318,0.1944936215877533
1759601927456361000,1.07636083984375,0.04170936346054077,-0.14099884033203125,0.1775255650281906
1759601927466315000,1.08631494140625,0.04306350275874138,-0.15519441664218903,0.16342540085315704
1759601927476270000,1.09627001953125,0.029635580256581306,-0.13087256252765656,0.1492648422718048
1759601927486224000,1.106223876953125,0.013539135456085205,-0.07271260768175125,0.14278492331504822
1759601927496178200,1.11617822265625,0.0040510911494493484,-0.049862951040267944,0.12377660721540451
1759601927506132200,1.12613232421875,-0.0010166214779019356,-0.04976779222488403,0.09459196776151657
1759601927516086000,1.1360859375,-0.008671078830957413,-0.045567985624074936,0.06605911999940872
1759601927526041000,1.146041015625,-0.02418150193989277,-0.03362124785780907,0.04803868383169174
1759601927535995000,1.155994873046875,-0.047529436647892,0.008055358193814754,0.044388819485902786
1759601927545949000,1.165948974609375,-0.05969693511724472,0.048935964703559875,0.04350068420171738
1759601927555903000,1.175903076171875,-0.06076086685061455,0.06535488367080688,0.03520840033888817
1759601927565857000,1.18585693359375,-0.057275060564279556,0.09337969869375229,0.034202951937913895
1759601927575811000,1.19581103515625,-0.054252106696367264,0.11725759506225586,0.040649667382240295
1759601927585766100,1.20576611328125,-0.05360112711787224,0.1319919377565384,0.047267667949199677
1759601927595720000,1.215719970703125,-0.05151933431625366,0.14136067032814026,0.0525287427008152
1759601927605674000,1.225674072265625,-0.054132137447595596,0.16424307227134705,0.061188794672489166
1759601927615628000,1.2356279296875,-0.057064544409513474,0.18028141558170319,0.05993311479687691
1759601927625582000,1.24558203125,-0.05254455283284187,0.17467303574085236,0.047656431794166565
1759601927635537200,1.255537109375,-0.0562300980091095,0.17037709057331085,0.03433849662542343
1759601927645491200,1.2654912109375,-0.05951779708266258,0.17094729840755463,0.02185973711311817
1759601927655445000,1.275445068359375,-0.054544877260923386,0.1694290190935135,0.011065677739679813
1759601927665399000,1.28539892578125,-0.04412802681326866,0.15947863459587097,0.003761274041607976
1759601927675353000,1.29535302734375,-0.036747075617313385,0.16219985485076904,0.008192242123186588
1759601927685308000,1.305307861328125,-0.026658393442630768,0.1618882268667221,0.015867678448557854
1759601927695262000,1.315261962890625,-0.013280803337693214,0.14629222452640533,0.02066429704427719
1759601927705216000,1.325216064453125,0.004167612642049789,0.11502031981945038,0.0233446154743433
1759601927715170000,1.335170166015625,0.015409613959491253,0.10675600171089172,0.032401759177446365
1759601927725124000,1.3451240234375,0.025114115327596664,0.10821738839149475,0.04571935161948204
1759601927735078400,1.355078369140625,0.03165164217352867,0.10316936671733856,0.056453488767147064
1759601927745033200,1.365033203125,0.03779703006148338,0.08453723788261414,0.057944294065237045
1759601927754987300,1.3749873046875,0.03983621299266815,0.05323977395892143,0.05927906930446625
1759601927764941300,1.38494140625,0.039809197187423706,0.038289159536361694,0.07841682434082031
1759601927774895400,1.394895263671875,0.036492496728897095,0.0315372496843338,0.10416293889284134
1759601927784849400,1.404849365234375,0.03995753079652786,0.027400130406022072,0.1120511144399643
1759601927794804200,1.41480419921875,0.033348631113767624,0.018569087609648705,0.1070379763841629
1759601927804758300,1.42475830078125,0.026610231027007103,0.01321206521242857,0.10063216090202332
1759601927814712300,1.43471240234375,0.023853858932852745,0.010042371228337288,0.10614064335823059
1759601927824666400,1.444666259765625,0.025455167517066002,0.007031685672700405,0.11118710041046143
1759601927834620200,1.4546201171875,0.02953939326107502,0.0002448858576826751,0.11489102244377136
1759601927844574200,1.46457421875,0.03227143734693527,-0.006925739347934723,0.11290206760168076
1759601927854529300,1.474529296875,0.032220568507909775,-0.020291347056627274,0.11145224422216415
1759601927864483300,1.4844833984375,0.02870393544435501,-0.014789980836212635,0.12145839631557465
1759601927874437400,1.494437255859375,0.02622799389064312,0.001064882380887866,0.14037056267261505
1759601927884391400,1.504391357421875,0.02929704077541828,-0.0006490335799753666,0.14725418388843536
1759601927894345200,1.51434521484375,0.03283930942416191,-0.014236747287213802,0.13644547760486603
1759601927904300300,1.52430029296875,0.03494521975517273,-0.03604649379849434,0.12480470538139343
1759601927914254300,1.53425439453125,0.030516648665070534,-0.05043182522058487,0.11966560781002045
1759601927924208400,1.54420849609375,0.023326002061367035,-0.03831007331609726,0.13094545900821686
1759601927934162400,1.554162353515625,0.02185327373445034,-0.03301304578781128,0.1407940834760666
1759601927944116500,1.564116455078125,0.024517519399523735,-0.05104681849479675,0.13800589740276337
1759601927954070300,1.5740703125,0.030906710773706436,-0.06462973356246948,0.12789733707904816
1759601927964025300,1.584025390625,0.03122490830719471,-0.07391030341386795,0.11945647746324539
1759601927973979100,1.593979248046875,0.02574012614786625,-0.07899214327335358,0.1093527153134346
1759601927983933400,1.603933349609375,0.023869404569268227,-0.0666966512799263,0.10565456002950668
1759601927993887500,1.613887451171875,0.024094974622130394,-0.060648344457149506,0.10214797407388687
1759601928003841300,1.62384130859375,0.020187707617878914,-0.055825673043727875,0.09407399594783783
1759601928013796400,1.63379638671875,0.017599115148186684,-0.046145614236593246,0.08347035199403763
1759601928023750400,1.64375048828125,0.008974168449640274,-0.046744611114263535,0.07672517001628876
1759601928033704200,1.6537041015625,-0.0043320488184690475,-0.06108493730425835,0.07192482054233551
1759601928043658200,1.663658203125,-0.028940020129084587,-0.04988588020205498,0.06204252690076828
1759601928053612300,1.6736123046875,-0.030624736100435257,-0.034760989248752594,0.06096874177455902
1759601928063566300,1.68356640625,-0.04321122542023659,-0.05415823310613632,0.06162411719560623
1759601928073521400,1.693521484375,-0.04545866698026657,-0.06895449012517929,0.059775881469249725
1759601928083475500,1.703475341796875,-0.042891908437013626,-0.06984312832355499,0.0574418269097805
1759601928093429200,1.71342919921875,-0.04965553805232048,-0.07068069279193878,0.05907168239355087
1759601928103383300,1.72338330078125,-0.04770433157682419,-0.05090172588825226,0.06040981784462929
1759601928113337300,1.73333740234375,-0.04319027066230774,-0.024348147213459015,0.06271239370107651
1759601928123292400,1.74329248046875,-0.026811912655830383,-0.01918867602944374,0.059522658586502075
1759601928133246500,1.75324658203125,-0.008064055815339088,-0.031795814633369446,0.049173615872859955
1759601928143200500,1.763200439453125,0.00847126916050911,-0.036929864436388016,0.04479003697633743
1759601928153154300,1.773154296875,0.010647604241967201,-0.026460979133844376,0.04863590747117996
1759601928163108400,1.7831083984375,0.0037547906395047903,-0.004178404342383146,0.05687931180000305
1759601928173062400,1.7930625,-0.002732137218117714,0.01678759790956974,0.07016129791736603
1759601928183017200,1.803017333984375,-0.005859995260834694,0.02464364655315876,0.07979819178581238
1759601928192971300,1.81297119140625,-0.0035933787003159523,0.030551603063941002,0.0911531150341034
1759601928202925600,1.822925537109375,0.0010699790436774492,0.0363740548491478,0.09817944467067719
1759601928212879400,1.83287939453125,0.004935291595757008,0.04796865954995155,0.10167457908391953
1759601928222833400,1.84283349609375,0.009718136861920357,0.048049479722976685,0.10429598391056061
1759601928232788200,1.852788330078125,0.01642530784010887,0.036015719175338745,0.10052788257598877
1759601928242742300,1.8627421875,0.0159284844994545,0.024063941091299057,0.09947799146175385
1759601928252696300,1.8726962890625,0.017186827957630157,0.016063539311289787,0.10511137545108795
1759601928262650400,1.882650390625,0.016633812338113785,0.004028135910630226,0.11530055850744247
1759601928272604200,1.892604248046875,0.02068927325308323,-0.021259376779198647,0.1318073570728302
1759601928282558500,1.902558349609375,0.02477688528597355,-0.03573070093989372,0.1492508351802826
1759601928292513300,1.91251318359375,0.023774471133947372,-0.03431123495101929,0.1649371236562729
1759601928302467300,1.92246728515625,0.026894239708781242,-0.0186663456261158,0.16840294003486633
1759601928312421400,1.93242138671875,0.025940561667084694,-0.0026823184452950954,0.16907379031181335
1759601928322375400,1.94237548828125,0.03201138228178024,0.020760098472237587,0.16615913808345795
1759601928332329200,1.9523291015625,0.04091512784361839,0.02619161643087864,0.16088713705539703
1759601928342284500,1.962284423828125,0.037933576852083206,0.048668645322322845,0.1589277684688568
1759601928352238300,1.97223828125,0.034014202654361725,0.07045011222362518,0.1593054085969925
1759601928362192400,1.9821923828125,0.03477923944592476,0.07602696865797043,0.16187472641468048
1759601928372146400,1.992146484375,0.03363034874200821,0.0749228224158287,0.1725233793258667
1759601928382100200,2.002100341796875,0.032283611595630646,0.08715055882930756,0.18030022084712982
1759601928392054300,2.01205419921875,0.030655885115265846,0.08683496713638306,0.18138839304447174
1759601928402009300,2.02200927734375,0.033429861068725586,0.0772932842373848,0.1759985089302063
1759601928411963100,2.031963134765625,0.04146222397685051,0.07086627930402756,0.17687654495239258
1759601928421917400,2.04191748046875,0.04789600521326065,0.0729377344250679,0.17801913619041443
1759601928431871500,2.05187158203125,0.05800696089863777,0.07648427039384842,0.17430216073989868
1759601928441825300,2.0618251953125,0.0690905749797821,0.044186223298311234,0.17116837203502655
1759601928451780400,2.0717802734375,0.07780604064464569,0.0113507816568017,0.16714540123939514
1759601928461734400,2.081734375,0.07008589804172516,-0.0037032035179436207,0.17734354734420776
1759601928471688200,2.091688232421875,0.06502988189458847,-0.0023519156966358423,0.19649247825145721
1759601928481642200,2.101642333984375,0.057953089475631714,0.04994494095444679,0.22201529145240784
1759601928491596300,2.11159619140625,0.052537284791469574,0.130111426115036,0.2495473176240921
1759601928501550300,2.12155029296875,0.038778044283390045,0.23781050741672516,0.2911520004272461
1759601928511505400,2.13150537109375,0.024959702044725418,0.3484611213207245,0.3142205476760864
1759601928521459500,2.14145947265625,0.026000557467341423,0.3839553892612457,0.28754472732543945
1759601928531413200,2.151413330078125,0.03832539916038513,0.40165022015571594,0.24990254640579224
1759601928541367300,2.1613671875,0.02067798748612404,0.5090120434761047,0.26296132802963257
1759601928551321300,2.1713212890625,-0.00397063372656703,0.6894484162330627,0.30484113097190857
1759601928561276400,2.1812763671875,0.0667918398976326,0.6992596387863159,0.29925358295440674
1759601928571230500,2.19123046875,0.1839757263660431,0.5241101980209351,0.2413380742073059
1759601928581184500,2.2011845703125,0.31142568588256836,0.3381757140159607,0.19488610327243805
1759601928591138300,2.21113818359375,0.41471293568611145,0.19196069240570068,0.17994070053100586
1759601928601092400,2.22109228515625,0.46095308661460876,0.07444668561220169,0.18993625044822693
1759601928611046400,2.23104638671875,0.48684194684028625,0.01595435105264187,0.23046663403511047
1759601928621001200,2.241001220703125,0.5035358667373657,-0.018025949597358704,0.2930206060409546
1759601928630955300,2.250955322265625,0.5269498825073242,-0.09005993604660034,0.36142390966415405
1759601928640909300,2.260909423828125,0.5408557653427124,-0.16891318559646606,0.40079265832901
1759601928650863400,2.27086328125,0.5330899953842163,-0.18299677968025208,0.4190709888935089
1759601928660817400,2.2808173828125,0.4885611832141876,-0.15523014962673187,0.4296138882637024
1759601928670771500,2.290771484375,0.41943642497062683,-0.08896350860595703,0.45038679242134094
1759601928680726300,2.300726318359375,0.3330586850643158,-0.021593529731035233,0.47251659631729126
1759601928690680300,2.310680419921875,0.2525992691516876,0.03322950378060341,0.46849337220191956
1759601928700634400,2.32063427734375,0.21094422042369843,0.06628865748643875,0.444364070892334
1759601928710588200,2.330588134765625,0.18973267078399658,0.04958318918943405,0.42047497630119324
1759601928720542500,2.34054248046875,0.17554441094398499,0.055864520370960236,0.420451283454895
1759601928730498000,2.350498046875,0.18097513914108276,0.0699012354016304,0.43759989738464355
1759601928740452000,2.3604521484375,0.1810455173254013,0.06084929406642914,0.47203996777534485
1759601928750406100,2.37040625,0.19326969981193542,0.04507911950349808,0.5145229697227478
1759601928760360200,2.380360107421875,0.20543423295021057,0.019307641312479973,0.5402666926383972
1759601928770314200,2.390314208984375,0.20852641761302948,0.006192370317876339,0.546257495880127
1759601928780268300,2.400268310546875,0.2014031559228897,0.005980059504508972,0.5513267517089844
1759601928790223000,2.41022314453125,0.18912091851234436,0.017127519473433495,0.5616446733474731
1759601928800177200,2.42017724609375,0.17560894787311554,0.048927851021289825,0.5712326169013977
1759601928810131200,2.430131103515625,0.1530517190694809,0.12042094022035599,0.5985105633735657
1759601928820085000,2.4400849609375,0.1412578821182251,0.19132867455482483,0.6281651854515076
1759601928830039300,2.450039306640625,0.13141004741191864,0.26022571325302124,0.6463412642478943
1759601928839994000,2.459994140625,0.11712434142827988,0.30938607454299927,0.6779702305793762
1759601928849948200,2.4699482421875,0.1098850667476654,0.32304835319519043,0.691440224647522
1759601928859902200,2.479902099609375,0.09375682473182678,0.33058062195777893,0.7203548550605774
1759601928869856000,2.48985595703125,0.09478160738945007,0.2666993737220764,0.7437294125556946
1759601928879810000,2.49981005859375,0.11760150641202927,0.1623860001564026,0.7543761134147644
1759601928889764000,2.50976416015625,0.11686008423566818,0.13023285567760468,0.7966111898422241
1759601928899719200,2.51971923828125,0.1052124872803688,0.11964525282382965,0.83502197265625
1759601928909673200,2.529673095703125,0.07401781529188156,0.15881583094596863,0.8456088304519653
1759601928919627300,2.539627197265625,0.06358596682548523,0.22760334610939026,0.8363844752311707
1759601928929581000,2.5495810546875,0.0854680985212326,0.23487643897533417,0.7840203046798706
1759601928939535000,2.55953515625,0.1186300665140152,0.2219221591949463,0.7343039512634277
1759601928949489200,2.5694892578125,0.13151657581329346,0.24670207500457764,0.6979249119758606
1759601928959444000,2.57944384765625,0.1413448005914688,0.23594245314598083,0.6613766551017761
1759601928969398300,2.589398193359375,0.12854164838790894,0.2382575422525406,0.6485303640365601
1759601928979352300,2.599352294921875,0.11873609572649002,0.26717379689216614,0.6589889526367188
1759601928989306000,2.60930615234375,0.12119552493095398,0.24060584604740143,0.6725831031799316
1759601928999260200,2.61926025390625,0.1558677703142166,0.17672015726566315,0.6671085357666016
1759601929009215200,2.62921533203125,0.17957203090190887,0.09855984151363373,0.6514363884925842
1759601929019169000,2.6391689453125,0.1803583949804306,0.043199144303798676,0.6194375157356262
1759601929029123000,2.649123046875,0.1541835069656372,0.06333663314580917,0.5880934000015259
1759601929039077400,2.659077392578125,0.09729182720184326,0.12952318787574768,0.5618025660514832
1759601929049031200,2.66903125,0.048211898654699326,0.1768939048051834,0.5372050404548645
1759601929058985200,2.678985107421875,0.02237693965435028,0.1838131695985794,0.5220916271209717
1759601929068940300,2.688940185546875,0.012163185514509678,0.18171833455562592,0.5244171023368835
1759601929078894000,2.69889404296875,0.011521485634148121,0.18707017600536346,0.5373507142066956
1759601929088848100,2.70884814453125,0.007725415751338005,0.20381321012973785,0.5570229291915894
1759601929098802200,2.71880224609375,0.021398397162556648,0.17043854296207428,0.5895628929138184
1759601929108756000,2.728755859375,0.03561275452375412,0.1490192711353302,0.637712836265564
1759601929118710300,2.738710205078125,0.05468863993883133,0.1608697921037674,0.6762861609458923
1759601929128665000,2.7486650390625,0.05203932523727417,0.2203994244337082,0.6882154941558838
1759601929138619100,2.758619140625,0.07394290715456009,0.22533489763736725,0.6388181447982788
1759601929148573200,2.7685732421875,0.11588875949382782,0.18845012784004211,0.5383533239364624
1759601929158527200,2.77852734375,0.13572126626968384,0.07565610855817795,0.42041006684303284
1759601929168481000,2.78848095703125,0.15830087661743164,-0.01936468295753002,0.32555997371673584
1759601929178436400,2.798436279296875,0.17093046009540558,-0.0477880984544754,0.27166181802749634
1759601929188390100,2.80839013671875,0.15317516028881073,-0.035593219101428986,0.2536301016807556
1759601929198344200,2.81834423828125,0.13201899826526642,0.0018091900274157524,0.24777363240718842
1759601929208298200,2.82829833984375,0.11345995962619781,0.04430817812681198,0.23645946383476257
1759601929218252300,2.838252197265625,0.10857213288545609,0.06214682757854462,0.21942149102687836
1759601929228206000,2.8482060546875,0.11313865333795547,0.07556596398353577,0.19744323194026947
1759601929238161200,2.8581611328125,0.09726033359766006,0.08207143098115921,0.1793958991765976
1759601929248115000,2.868114990234375,0.05087685212492943,0.11315984278917313,0.1638832539319992
1759601929258069200,2.8780693359375,0.012121153064072132,0.17250920832157135,0.14520414173603058
1759601929268023300,2.888023193359375,-0.011649689637124538,0.15748605132102966,0.1213880181312561
1759601929277977300,2.897977294921875,-0.03161397948861122,0.12859922647476196,0.09118904918432236
1759601929287931100,2.90793115234375,-0.0749201700091362,0.11039119958877563,0.05150235816836357
1759601929297886200,2.91788623046875,-0.11626306176185608,0.11081293225288391,0.00032394801382906735
1759601929307840000,2.927840087890625,-0.13896064460277557,0.07247406989336014,-0.06410883367061615
1759601929317794000,2.9377939453125,-0.15155281126499176,0.024525362998247147,-0.12729817628860474
1759601929327748000,2.947748046875,-0.1693275421857834,-0.0015861319843679667,-0.170762836933136
1759601929337702400,2.957702392578125,-0.20324940979480743,-0.02223474346101284,-0.1974928081035614
1759601929347657200,2.9676572265625,-0.2507777810096741,-0.029251638799905777,-0.21268028020858765
1759601929357611300,2.977611328125,-0.30317920446395874,-0.015149394050240517,-0.22779743373394012
1759601929367565000,2.98756494140625,-0.3545617163181305,-0.00939030759036541,-0.2513373792171478
1759601929377519000,2.99751904296875,-0.4063155949115753,-0.034318871796131134,-0.2833414375782013
1759601929387473200,3.00747314453125,-0.45377686619758606,-0.024215107783675194,-0.3202400803565979
1759601929397427200,3.01742724609375,-0.4822477400302887,-0.024404430761933327,-0.3562987148761749
1759601929407382300,3.02738232421875,-0.4736129641532898,-0.08010631054639816,-0.3956884741783142
1759601929417336300,3.03733642578125,-0.4517363905906677,-0.1525522917509079,-0.4182819426059723
1759601929427290000,3.0472900390625,-0.42958128452301025,-0.21357862651348114,-0.4232948124408722
1759601929437244200,3.057244140625,-0.428787499666214,-0.25288525223731995,-0.4281078577041626
1759601929447198200,3.0671982421875,-0.4243389666080475,-0.3021867573261261,-0.4296221435070038
1759601929457152300,3.07715234375,-0.4149409830570221,-0.34057992696762085,-0.4262217879295349
1759601929467107000,3.087107177734375,-0.41259849071502686,-0.3561477065086365,-0.40975651144981384
1759601929477061400,3.097061279296875,-0.4086959958076477,-0.3582717776298523,-0.39378947019577026
1759601929487015200,3.10701513671875,-0.39540016651153564,-0.37364915013313293,-0.3899662494659424
1759601929496969200,3.11696923828125,-0.3718969225883484,-0.4025996923446655,-0.40004968643188477
1759601929506923300,3.12692333984375,-0.34412574768066406,-0.4456595480442047,-0.4020230770111084
1759601929516878000,3.136878173828125,-0.31966397166252136,-0.4836016595363617,-0.3913998007774353
1759601929526832000,3.14683203125,-0.30543336272239685,-0.5122072100639343,-0.37696200609207153
1759601929536786200,3.1567861328125,-0.30579596757888794,-0.5192474722862244,-0.37147074937820435
1759601929546740000,3.166739990234375,-0.3030097782611847,-0.5544800162315369,-0.3701237142086029
1759601929556694300,3.1766943359375,-0.29164189100265503,-0.6007776856422424,-0.37267282605171204
1759601929566648300,3.1866484375,-0.30166497826576233,-0.6208736300468445,-0.3702525496482849
1759601929576603100,3.19660302734375,-0.3180100619792938,-0.6391699314117432,-0.3725619912147522
1759601929586557200,3.20655712890625,-0.3338888883590698,-0.646807074546814,-0.3804803490638733
1759601929596511200,3.21651123046875,-0.34787002205848694,-0.6649815440177917,-0.3900884985923767
1759601929606465000,3.226465087890625,-0.36879661679267883,-0.6438277959823608,-0.3910176753997803
1759601929616419000,3.236419189453125,-0.3932807445526123,-0.6057876348495483,-0.3854740560054779
1759601929626373000,3.246373046875,-0.4116173982620239,-0.5746081471443176,-0.3790838122367859
1759601929636328200,3.256328125,-0.4264662265777588,-0.5282389521598816,-0.3758802115917206
1759601929646282200,3.2662822265625,-0.43953171372413635,-0.4800400137901306,-0.3754061758518219
1759601929656236300,3.276236328125,-0.45150044560432434,-0.4414779841899872,-0.3886469006538391
1759601929666190000,3.286190185546875,-0.4681313633918762,-0.41023752093315125,-0.4100715219974518
1759601929676144000,3.29614404296875,-0.4830933213233948,-0.3989354074001312,-0.4345274269580841
1759601929686099000,3.306098876953125,-0.5092669129371643,-0.3695748448371887,-0.46097689867019653
1759601929696053200,3.31605322265625,-0.5323457717895508,-0.3440503180027008,-0.49061042070388794
1759601929706007300,3.32600732421875,-0.5466392636299133,-0.3420441746711731,-0.523622989654541
1759601929715961300,3.33596142578125,-0.5457843542098999,-0.33463525772094727,-0.5607098937034607
1759601929725915100,3.3459150390625,-0.537774920463562,-0.32708385586738586,-0.5985662341117859
1759601929735868200,3.3558681640625,-0.5248380899429321,-0.3241700828075409,-0.6341026425361633
1759601929745823500,3.365823486328125,-0.5153169631958008,-0.3241526782512665,-0.6566884517669678
1759601929755777300,3.37577734375,-0.5033578872680664,-0.3156251609325409,-0.6763213276863098
1759601929765731300,3.3857314453125,-0.490737646818161,-0.32413768768310547,-0.6864197254180908
1759601929775685400,3.395685302734375,-0.4809640645980835,-0.3432711064815521,-0.6951526403427124
1759601929785639200,3.40563916015625,-0.4881700575351715,-0.32843199372291565,-0.6930431723594666
1759601929795593200,3.41559326171875,-0.506364643573761,-0.3266144096851349,-0.6827239990234375
1759601929805548500,3.425548583984375,-0.5247646570205688,-0.3195391893386841,-0.6681703925132751
1759601929815502300,3.43550244140625,-0.5436496138572693,-0.29031264781951904,-0.6517059803009033
1759601929825456400,3.445456298828125,-0.5481069684028625,-0.2813662886619568,-0.6420578956604004
1759601929835410400,3.455410400390625,-0.5424095392227173,-0.27612483501434326,-0.6421690583229065
1759601929845364200,3.4653642578125,-0.5377697944641113,-0.25149378180503845,-0.6362004280090332
1759601929855319300,3.4753193359375,-0.5265361070632935,-0.22331982851028442,-0.6345493197441101
1759601929865273300,3.4852734375,-0.49953028559684753,-0.21896076202392578,-0.6362404227256775
1759601929875227100,3.49522705078125,-0.45536237955093384,-0.23307852447032928,-0.6348706483840942
1759601929885181400,3.505181396484375,-0.4077828824520111,-0.25976261496543884,-0.6246805787086487
1759601929895135500,3.515135498046875,-0.38260525465011597,-0.27181708812713623,-0.607042670249939
1759601929905089300,3.52508935546875,-0.3689083456993103,-0.27016353607177734,-0.5851150155067444
1759601929915044400,3.53504443359375,-0.37191763520240784,-0.29169049859046936,-0.5496227145195007
1759601929924998400,3.544998291015625,-0.3683186173439026,-0.29543039202690125,-0.5052384734153748
1759601929934952200,3.5549521484375,-0.3642341196537018,-0.284197598695755,-0.4616434574127197
1759601929944906200,3.56490625,-0.33828747272491455,-0.29112663865089417,-0.4349095821380615
1759601929954860500,3.574860595703125,-0.2911473512649536,-0.30573898553848267,-0.4302516281604767
1759601929964814300,3.584814453125,-0.24349939823150635,-0.31068554520606995,-0.4301179349422455
1759601929974769400,3.594769287109375,-0.19812069833278656,-0.3200794756412506,-0.4330107569694519
1759601929984723500,3.604723388671875,-0.16593027114868164,-0.3390957713127136,-0.43553224205970764
1759601929994677200,3.61467724609375,-0.14378057420253754,-0.36884433031082153,-0.43590688705444336
1759601930004631300,3.62463134765625,-0.12472353875637054,-0.4068974256515503,-0.43236568570137024
1759601930014585300,3.63458544921875,-0.11452675610780716,-0.44740137457847595,-0.4265260696411133
1759601930024540400,3.64454052734375,-0.11832229793071747,-0.48532184958457947,-0.4179490804672241
1759601930034494500,3.654494384765625,-0.1286526322364807,-0.5239689946174622,-0.4041956663131714
1759601930044448300,3.6644482421875,-0.1486300677061081,-0.5631709694862366,-0.39099252223968506
1759601930054402300,3.67440234375,-0.1662863790988922,-0.5922296047210693,-0.3896476626396179
1759601930064356400,3.6843564453125,-0.18741802871227264,-0.6154038906097412,-0.3933108448982239
1759601930074310400,3.694310302734375,-0.2114773690700531,-0.633611261844635,-0.4011334776878357
1759601930084265200,3.70426513671875,-0.2367832511663437,-0.6566737294197083,-0.4114564061164856
1759601930094219500,3.714219482421875,-0.2567742168903351,-0.6800342798233032,-0.422504186630249
1759601930104173300,3.72417333984375,-0.2720666229724884,-0.7063183784484863,-0.4351225197315216
1759601930114127400,3.73412744140625,-0.2844785451889038,-0.7224596738815308,-0.45057934522628784
1759601930124081400,3.744081298828125,-0.28373685479164124,-0.7042289972305298,-0.4674038589000702
1759601930134035500,3.754035400390625,-0.278626024723053,-0.6682058572769165,-0.48052141070365906
1759601930143990300,3.763990234375,-0.267117440700531,-0.6283303499221802,-0.4913988411426544
1759601930153944300,3.7739443359375,-0.26193833351135254,-0.6289997100830078,-0.504133939743042
1759601930163898000,3.783898193359375,-0.2526726722717285,-0.649908721446991,-0.5232071876525879
1759601930173852400,3.793852294921875,-0.23565112054347992,-0.6713838577270508,-0.5270203948020935
1759601930183806500,3.803806396484375,-0.22698892652988434,-0.654937744140625,-0.4909939765930176
1759601930193761300,3.81376123046875,-0.21802780032157898,-0.6147138476371765,-0.4316439628601074
1759601930203715300,3.82371533203125,-0.20607632398605347,-0.5832856297492981,-0.3603689670562744
1759601930213669400,3.83366943359375,-0.1809116154909134,-0.5679159164428711,-0.29168081283569336
1759601930223623200,3.843623046875,-0.1404358297586441,-0.5662517547607422,-0.24596287310123444
1759601930233577200,3.8535771484375,-0.10154679417610168,-0.5560437440872192,-0.22653880715370178
1759601930243531300,3.86353125,-0.07816557586193085,-0.5344253182411194,-0.22892020642757416
1759601930253486300,3.873486328125,-0.07183405756950378,-0.5028245449066162,-0.24513307213783264
1759601930263440400,3.8834404296875,-0.0722803995013237,-0.4837837517261505,-0.2695521414279938
1759601930273394400,3.89339453125,-0.07990357279777527,-0.47727254033088684,-0.296016126871109
1759601930283348200,3.90334814453125,-0.09240259230136871,-0.4907926023006439,-0.32167384028434753
1759601930293302300,3.91330224609375,-0.11229553818702698,-0.5053114295005798,-0.33388790488243103
1759601930303257300,3.92325732421875,-0.13744217157363892,-0.482483834028244,-0.33544135093688965
1759601930313211400,3.93321142578125,-0.1666538566350937,-0.4530566930770874,-0.320657342672348
1759601930323165400,3.94316552734375,-0.18378303945064545,-0.437248170375824,-0.2999344766139984
1759601930333119500,3.953119384765625,-0.1853470355272293,-0.4378821551799774,-0.2801239490509033
1759601930343073300,3.9630732421875,-0.1791067123413086,-0.45188745856285095,-0.25609079003334045
1759601930353027300,3.97302734375,-0.17528478801250458,-0.44770336151123047,-0.2279880791902542
1759601930362982400,3.982982421875,-0.17360885441303253,-0.4413304328918457,-0.1956344097852707
1759601930374180400,3.994180419921875,-0.16855089366436005,-0.427579402923584,-0.15753911435604095
1759601930384134400,4.004134521484375,-0.1654248684644699,-0.4134864807128906,-0.11388111114501953
1759601930394088200,4.014088134765625,-0.1588696837425232,-0.39705872535705566,-0.06829879432916641
1759601930404042200,4.024042236328125,-0.14629077911376953,-0.38044992089271545,-0.013066168874502182
1759601930413997300,4.033997314453125,-0.12812747061252594,-0.3807542622089386,0.039249155670404434
1759601930423951400,4.043951416015625,-0.11905620992183685,-0.361224502325058,0.09354807436466217
1759601930433905400,4.053905517578125,-0.11125213652849197,-0.34407442808151245,0.14400984346866608
1759601930443859500,4.063859375,-0.10332443565130234,-0.3229140341281891,0.18714159727096558
1759601930453813200,4.073813232421875,-0.09624272584915161,-0.2969345152378082,0.22702434659004211
1759601930463767300,4.083767333984375,-0.08813473582267761,-0.2735847234725952,0.25972291827201843
1759601930473722000,4.09372216796875,-0.08224142342805862,-0.2404363453388214,0.28561654686927795
1759601930483676400,4.103676513671875,-0.06766688078641891,-0.2133125215768814,0.3061429560184479
1759601930493630500,4.11363037109375,-0.046506255865097046,-0.19739079475402832,0.31772133708000183
1759601930503584500,4.12358447265625,-0.024702424183487892,-0.17653505504131317,0.3256130814552307
1759601930513538300,4.133538330078125,-0.003583289682865143,-0.151293084025383,0.3276333510875702
1759601930523492400,4.143492431640625,0.015606217086315155,-0.1287490427494049,0.31358709931373596
1759601930533447200,4.153447265625,0.03333153575658798,-0.10158888250589371,0.2878265976905823
1759601930543401200,4.163401123046875,0.03550680726766586,-0.06309501826763153,0.25154662132263184
1759601930553355300,4.173355224609375,0.027887841686606407,-0.028620803728699684,0.21225333213806152
1759601930563309300,4.183309326171875,0.018722040578722954,0.015523754060268402,0.17541195452213287
1759601930573263400,4.193263427734375,0.006309003569185734,0.07305620610713959,0.14049458503723145
1759601930583218400,4.203218505859375,0.00046549574472010136,0.12323601543903351,0.10985838621854782
1759601930593172200,4.213172119140625,0.0036630763206630945,0.16886617243289948,0.07718673348426819
1759601930603126300,4.223126220703125,0.005169892683625221,0.23182569444179535,0.04956921935081482
1759601930613080300,4.233080322265625,0.0012601788621395826,0.31495416164398193,0.02716500125825405
1759601930623034000,4.2430341796875,-0.001262101111933589,0.36423513293266296,-0.00476763304322958
1759601930632988200,4.25298828125,0.013739756308495998,0.3923463225364685,-0.043668054044246674
1759601930642943500,4.262943603515625,0.026617471128702164,0.4116497039794922,-0.08558141440153122
1759601930652897300,4.272897216796875,0.0463901087641716,0.4290209710597992,-0.12900905311107635
1759601930662851300,4.282851318359375,0.05952271446585655,0.4477134346961975,-0.16731944680213928
1759601930672805400,4.292805419921875,0.05446675792336464,0.47092702984809875,-0.2022871971130371
1759601930682759200,4.30275927734375,0.052223578095436096,0.511968731880188,-0.23466484248638153
1759601930692714200,4.31271435546875,0.04451967030763626,0.5499730706214905,-0.26512566208839417
1759601930702668500,4.32266845703125,0.035759467631578445,0.5603844523429871,-0.2949290871620178
1759601930712622300,4.332622314453125,0.026507090777158737,0.5723021030426025,-0.3096472918987274
1759601930722576400,4.342576416015625,0.010291102342307568,0.6161843538284302,-0.29596051573753357
1759601930732530700,4.35253076171875,-0.009141451679170132,0.6344626545906067,-0.2658231258392334
1759601930742484500,4.362484375,-0.015199917368590832,0.6255975961685181,-0.23273895680904388
1759601930752439600,4.372439453125,-0.0074258847162127495,0.5631827116012573,-0.2104501724243164
1759601930762393600,4.3823935546875,0.004121315665543079,0.49164465069770813,-0.18734724819660187
1759601930772347400,4.392347412109375,0.011637821793556213,0.4177693724632263,-0.1648760288953781
1759601930782301400,4.402301513671875,0.01237232144922018,0.3161330223083496,-0.13909928500652313
1759601930792255700,4.412255859375,0.015496229752898216,0.2282455712556839,-0.10348495841026306
1759601930802210600,4.42221044921875,0.0033005487639456987,0.1696600317955017,-0.0611438974738121
1759601930812164600,4.43216455078125,-0.016291720792651176,0.14324942231178284,-0.01657860167324543
1759601930822118400,4.442118408203125,-0.027829866856336594,0.10945844650268555,0.0198941882699728
1759601930832072400,4.452072509765625,-0.029743116348981857,0.06742586940526962,0.044960107654333115
1759601930842026500,4.462026611328125,-0.03078547865152359,0.03153683990240097,0.060603514313697815
1759601930851980500,4.47198046875,-0.04378306865692139,0.007402048911899328,0.0720968171954155
1759601930861935600,4.481935546875,-0.06281135231256485,-0.00935935415327549,0.07394292205572128
1759601930871889700,4.4918896484375,-0.08904356509447098,-0.02909628115594387,0.06937777996063232
1759601930881843500,4.501843505859375,-0.11108201742172241,-0.04712694510817528,0.05502493679523468
1759601930891797500,4.511797607421875,-0.1402888000011444,-0.06335638463497162,0.03868596628308296
1759601930901751600,4.52175146484375,-0.16663412749767303,-0.07334483414888382,0.01541739422827959
1759601930911706400,4.531706298828125,-0.18589195609092712,-0.06601590663194656,-0.005362073425203562
1759601930921660400,4.541660400390625,-0.2046842873096466,-0.051883045583963394,-0.02518557943403721
1759601930931614700,4.55161474609375,-0.21609710156917572,-0.027736395597457886,-0.03401177376508713
1759601930941568500,4.561568603515625,-0.22185751795768738,0.002120036631822586,-0.03277713060379028
1759601930951522600,4.5715224609375,-0.2157706767320633,0.016923775896430016,-0.01574510894715786
1759601930961476600,4.5814765625,-0.20592975616455078,0.02700996585190296,0.00781401339918375
1759601930971431400,4.591431396484375,-0.1892407238483429,0.03425578773021698,0.03154179826378822
1759601930981385500,4.601385498046875,-0.17241941392421722,0.03780125454068184,0.05735368654131889
1759601930991339500,4.611339599609375,-0.14961875975131989,0.03168237581849098,0.07867895066738129
1759601931001293300,4.621293212890625,-0.12031541764736176,0.027199730277061462,0.08875624090433121
1759601931011247600,4.63124755859375,-0.09492100775241852,0.01171500887721777,0.09349270164966583
1759601931021202700,4.64120263671875,-0.07188812643289566,-0.01742742955684662,0.09617877006530762
1759601931031156500,4.651156494140625,-0.05012931302189827,-0.04866701737046242,0.0973520427942276
1759601931041110500,4.661110595703125,-0.03284193575382233,-0.0566415898501873,0.09972918033599854
1759601931051064600,4.671064697265625,-0.01519500557333231,-0.06511178612709045,0.10332629829645157
1759601931061018400,4.681018310546875,-0.0021391245536506176,-0.07085356116294861,0.11327479779720306
1759601931070973700,4.6909736328125,0.007645861245691776,-0.07084530591964722,0.12529072165489197
1759601931080927500,4.700927490234375,0.008913526311516762,-0.07075368613004684,0.13824006915092468
1759601931090881500,4.710881591796875,0.006873037666082382,-0.07077127695083618,0.1476103812456131
1759601931100835600,4.720835693359375,-0.001214716350659728,-0.07592262327671051,0.15798872709274292
1759601931110789600,4.73078955078125,-0.0014825284015387297,-0.08659101277589798,0.1627730429172516
1759601931120744400,4.740744384765625,0.0032563006971031427,-0.09313146770000458,0.16145823895931244
1759601931130698500,4.750698486328125,0.012812826782464981,-0.1028122529387474,0.1558300405740738
1759601931140652500,4.760652587890625,0.019987115636467934,-0.11157485097646713,0.14239732921123505
1759601931150606600,4.770606689453125,0.02849751152098179,-0.11726922541856766,0.12023822963237762
1759601931160560600,4.780560546875,0.035996172577142715,-0.122904472053051,0.09709189832210541
1759601931170515500,4.790515380859375,0.04112162068486214,-0.1218436136841774,0.07308218628168106
1759601931180469500,4.800469482421875,0.042492080479860306,-0.11655937135219574,0.048008788377046585
1759601931190423600,4.810423583984375,0.039051152765750885,-0.11515877395868301,0.022300563752651215
1759601931200377300,4.82037744140625,0.031945038586854935,-0.11424211412668228,0.00390344625338912
1759601931210331400,4.830331298828125,0.021476544439792633,-0.10431984812021255,-0.00681795459240675
1759601931220286700,4.84028662109375,0.0092995073646307,-0.08444760739803314,-0.008168176747858524
1759601931230240500,4.850240478515625,0.006984321400523186,-0.06510813534259796,-0.010463522747159004
1759601931240194600,4.860194580078125,0.012861119583249092,-0.0633523166179657,-0.019866345450282097
1759601931250148600,4.870148681640625,0.02032872475683689,-0.06719475239515305,-0.03480513393878937
1759601931260102400,4.880102294921875,0.03359898924827576,-0.07440392673015594,-0.051820602267980576
1759601931270057500,4.890057373046875,0.03943999111652374,-0.08463770151138306,-0.05998353660106659
1759601931280011800,4.90001171875,0.047264888882637024,-0.1081044152379036,-0.06600227952003479
1759601931289965600,4.909965576171875,0.05554196238517761,-0.1331310272216797,-0.06721718609333038
1759601931299919600,4.919919677734375,0.05792336165904999,-0.15424510836601257,-0.07070139795541763
1759601931309873700,4.929873779296875,0.05867131054401398,-0.17329248785972595,-0.07944171130657196
1759601931319828500,4.939828369140625,0.06643176078796387,-0.19524255394935608,-0.09883111715316772
1759601931329782500,4.949782470703125,0.07306332886219025,-0.24372965097427368,-0.11769536882638931
1759601931339736600,4.959736572265625,0.08712135255336761,-0.274715781211853,-0.13858628273010254
1759601931349690400,4.9696904296875,0.093862384557724,-0.27716636657714844,-0.1470494121313095
1759601931359644700,4.979644775390625,0.09471353143453598,-0.2625349760055542,-0.14783026278018951
1759601931369599500,4.989599609375,0.09489785134792328,-0.257384330034256,-0.14023414254188538
1759601931379553500,4.999553466796875,0.09872028976678848,-0.25125932693481445,-0.13021692633628845
1759601931389507600,5.009507568359375,0.09900353103876114,-0.23763740062713623,-0.11215143650770187
1759601931399461600,5.019461669921875,0.094176284968853,-0.21143987774848938,-0.08105077594518661
1759601931409415400,5.02941552734375,0.0782785415649414,-0.18909522891044617,-0.051111120730638504
1759601931419370800,5.039370849609375,0.0635877400636673,-0.17337566614151,-0.02929637022316456
1759601931429324500,5.049324462890625,0.0544557087123394,-0.16642719507217407,-0.01594485156238079
1759601931439278600,5.059278564453125,0.049599964171648026,-0.16158929467201233,-0.00872422382235527
1759601931449232600,5.069232666015625,0.041788406670093536,-0.16212405264377594,-0.007691462989896536
1759601931459186400,5.0791865234375,0.03326336294412613,-0.16802215576171875,-0.005768128205090761
1759601931469141500,5.0891416015625,0.0207505002617836,-0.17423823475837708,-0.0019313119119033217
1759601931479095600,5.099095458984375,0.00901523046195507,-0.19119644165039062,0.0032293875701725483
1759601931489049300,5.10904931640625,-0.00467331800609827,-0.2095489203929901,0.014173201285302639
1759601931499003600,5.119003662109375,-0.026257971301674843,-0.20830363035202026,0.028260791674256325
1759601931508958500,5.12895849609375,-0.04775507375597954,-0.20884381234645844,0.041034940630197525
1759601931518912500,5.13891259765625,-0.07059913873672485,-0.20374545454978943,0.05268307402729988
1759601931528866600,5.148866455078125,-0.08953459560871124,-0.20230773091316223,0.06240606680512428
1759601931538820600,5.158820556640625,-0.11072509735822678,-0.19443383812904358,0.07336417585611343
1759601931548774400,5.1687744140625,-0.12789857387542725,-0.1824461966753006,0.08619812875986099
1759601931558729700,5.178729736328125,-0.1421068161725998,-0.1687365025281906,0.09267520159482956
1759601931568683500,5.18868359375,-0.14342954754829407,-0.16087985038757324,0.09102121740579605
1759601931578637600,5.198637451171875,-0.15173888206481934,-0.15313884615898132,0.08430206030607224
1759601931588591600,5.208591552734375,-0.15244536101818085,-0.14937561750411987,0.07534409314393997
1759601931598545700,5.218545654296875,-0.150675430893898,-0.1559927761554718,0.06537295132875443
1759601931608500500,5.22850048828125,-0.14717170596122742,-0.16449478268623352,0.05550483986735344
1759601931618454500,5.23845458984375,-0.14342570304870605,-0.1659960150718689,0.04382661357522011
1759601931628408300,5.248408203125,-0.13469213247299194,-0.1724720150232315,0.0313132181763649
1759601931638362600,5.258362548828125,-0.12699958682060242,-0.1740534007549286,0.015357423573732376
1759601931648317700,5.268317626953125,-0.11433453112840652,-0.17853128910064697,0.0036988379433751106
1759601931658271500,5.278271484375,-0.10269013047218323,-0.18020135164260864,-0.005001442972570658
1759601931668225500,5.2882255859375,-0.0879591703414917,-0.17877601087093353,-0.009071259759366512
1759601931678179600,5.2981796875,-0.07018949836492538,-0.1872510015964508,-0.01594141684472561
1759601931688133400,5.30813330078125,-0.05306090787053108,-0.2200133204460144,-0.02426801808178425
1759601931698088700,5.318088623046875,-0.043449290096759796,-0.2370080202817917,-0.02547602728009224
1759601931708042500,5.32804248046875,-0.04257183521986008,-0.2537550926208496,-0.023011639714241028
1759601931717996500,5.33799658203125,-0.04248687997460365,-0.2763732969760895,-0.01735748164355755
1759601931727950600,5.34795068359375,-0.03433544561266899,-0.29931631684303284,-0.01162958238273859
1759601931737904000,5.357904052734375,-0.02758726105093956,-0.3271607458591461,-0.006581560242921114
1759601931747859000,5.36785888671875,-0.01861480437219143,-0.35175663232803345,-0.006553330924361944
1759601931757813000,5.37781298828125,-0.01058484148234129,-0.38898390531539917,-0.007495025172829628
1759601931767767000,5.38776708984375,-0.007141498848795891,-0.4519957900047302,-0.008537457324564457
1759601931777720800,5.397720947265625,-0.004075809847563505,-0.515712559223175,-0.010520908050239086
1759601931787676000,5.407676025390625,-0.008869529701769352,-0.5903679728507996,-0.00899396650493145
1759601931797630000,5.4176298828125,-0.0033690365962684155,-0.631729245185852,-0.004408535081893206
1759601931807584000,5.427583984375,0.011831246316432953,-0.6174901723861694,0.010969485156238079
1759601931817538000,5.4375380859375,0.02588980831205845,-0.6278219223022461,0.021074051037430763
1759601931827492000,5.4474921875,0.04819149151444435,-0.6417601108551025,0.012893570587038994
1759601931837447000,5.457447021484375,0.05059180036187172,-0.6090199947357178,0.010793667286634445
1759601931847401000,5.46740087890625,0.035821136087179184,-0.5951850414276123,-0.003024972742423415
1759601931857354800,5.477354736328125,0.02660207264125347,-0.6406978964805603,-0.03522258996963501
1759601931867308800,5.487308837890625,0.023900991305708885,-0.7382420301437378,-0.07709036022424698
1759601931877264100,5.49726416015625,0.03416667506098747,-0.8517441153526306,-0.12544722855091095
1759601931887218000,5.507218017578125,0.017963973805308342,-0.9388823509216309,-0.166826069355011
1759601931897172000,5.517171875,-0.0026912367902696133,-0.7842522859573364,-0.17298009991645813
1759601931907126000,5.5271259765625,-0.08149491250514984,-0.45268839597702026,-0.1576300859451294
1759601931917079800,5.537079833984375,-0.1217198297381401,-0.4919029176235199,-0.23419703543186188
1759601931927035000,5.547034912109375,-0.016864925622940063,-0.6562143564224243,-0.35602498054504395
1759601931936989200,5.5569892578125,0.09128977358341217,-0.8307265043258667,-0.44778019189834595
1759601931946943000,5.56694287109375,0.11832224577665329,-0.9133209586143494,-0.5157578587532043
1759601931956897000,5.57689697265625,0.10448845475912094,-0.9356909990310669,-0.5859500169754028
1759601931966851800,5.586851806640625,0.08185967803001404,-0.9841515421867371,-0.64919513463974
1759601931976806000,5.596805908203125,0.09435576945543289,-1.0489801168441772,-0.7095333337783813
1759601931986760000,5.606760009765625,0.11699612438678741,-1.0674549341201782,-0.7434041500091553
1759601931996714000,5.6167138671875,0.1078132763504982,-1.0508440732955933,-0.7630100250244141
1759601932006669000,5.6266689453125,0.10655682533979416,-0.9871198534965515,-0.7681768536567688
1759601932016623000,5.636623046875,0.10298498719930649,-0.9039077758789062,-0.752394437789917
1759601932026577000,5.646576904296875,0.09879685193300247,-0.8132517337799072,-0.7333258986473083
1759601932036531000,5.656531005859375,0.08895327895879745,-0.7972072958946228,-0.7605641484260559
1759601932046485000,5.666485107421875,0.04975607246160507,-0.7944227457046509,-0.7801233530044556
1759601932056439800,5.676439697265625,-0.052639272063970566,-0.6997239589691162,-0.7714757919311523
1759601932066393900,5.686393798828125,-0.20295855402946472,-0.5779813528060913,-0.7414131164550781
1759601932076348200,5.69634814453125,-0.3611396849155426,-0.5407828092575073,-0.7560953497886658
1759601932086302000,5.706302001953125,-0.48170435428619385,-0.5660206079483032,-0.8084822297096252
1759601932096257000,5.716257080078125,-0.47963079810142517,-0.5120987892150879,-0.8115193247795105
1759601932106211000,5.726211181640625,-0.3697187006473541,-0.4518447518348694,-0.7504583597183228
1759601932116164900,5.736164794921875,-0.31512096524238586,-0.5018264651298523,-0.644554853439331
1759601932126119000,5.746118896484375,-0.26065003871917725,-0.5860337018966675,-0.5702382922172546
1759601932136073000,5.756072998046875,-0.15768662095069885,-0.6063336730003357,-0.5521181225776672
1759601932146028000,5.766028076171875,-0.050038911402225494,-0.6930115818977356,-0.6031121015548706
1759601932155982000,5.775982177734375,0.035163067281246185,-0.8520475625991821,-0.6699300408363342
1759601932165935900,5.785935791015625,0.07222586125135422,-0.9761282205581665,-0.7117533087730408
1759601932175890000,5.795889892578125,0.05891937389969826,-0.8833279609680176,-0.6922538876533508
1759601932185845000,5.805844970703125,-0.007751531898975372,-0.5943183898925781,-0.6033655405044556
1759601932195798800,5.815798828125,-0.07285995781421661,-0.30154484510421753,-0.5040498971939087
1759601932205752800,5.8257529296875,-0.09982340037822723,-0.11930647492408752,-0.45378220081329346
1759601932215707100,5.83570703125,-0.1136832907795906,-0.04555315896868706,-0.4654548168182373
1759601932225662000,5.845661865234375,-0.10258057713508606,-0.011250908486545086,-0.4989010691642761
1759601932235616000,5.855615966796875,-0.06976457685232162,-0.000532217207364738,-0.5287191867828369
1759601932245570000,5.865570068359375,-0.025597885251045227,0.04138492792844772,-0.5282271504402161
1759601932255523800,5.87552392578125,0.01831045188009739,0.1273251473903656,-0.4969898760318756
1759601932265478000,5.885477783203125,0.07445404678583145,0.2525983154773712,-0.43303653597831726
1759601932275433000,5.895432861328125,0.09397102147340775,0.36565136909484863,-0.3485051393508911
1759601932285387000,5.905386962890625,0.09460365027189255,0.4454021751880646,-0.28643158078193665
1759601932295341000,5.915341064453125,0.09571925550699234,0.42624631524086,-0.2794431746006012
1759601932305295000,5.925295166015625,0.09215661138296127,0.353743314743042,-0.3010023236274719
1759601932315250000,5.93525,0.08219186216592789,0.282680869102478,-0.3241385519504547
1759601932325204000,5.945203857421875,0.0681554302573204,0.22176259756088257,-0.3311302959918976
1759601932335157800,5.95515771484375,0.04031101614236832,0.14651763439178467,-0.3466096520423889
1759601932345111800,5.96511181640625,0.03670871630311012,0.12697038054466248,-0.3532993197441101
1759601932355067100,5.975067138671875,0.021075692027807236,0.15637114644050598,-0.33794912695884705
1759601932365021000,5.98502099609375,0.011725948192179203,0.20353086292743683,-0.3176797032356262
1759601932374975000,5.99497509765625,0.016102587804198265,0.24482662975788116,-0.2999560832977295
1759601932384929000,6.004928955078125,0.016445200890302658,0.25620561838150024,-0.2927651107311249
1759601932394883800,6.0148837890625,0.007691922597587109,0.2528305947780609,-0.29867440462112427
1759601932404838000,6.024837890625,0.007469418458640575,0.25825241208076477,-0.29478955268859863
1759601932414792000,6.0347919921875,0.004390005022287369,0.24594835937023163,-0.2858293652534485
1759601932424746000,6.04474609375,0.007295921444892883,0.24832886457443237,-0.2656209170818329
1759601932434700000,6.054699951171875,0.01212343294173479,0.2863686680793762,-0.23496608436107635
1759601932444654800,6.06465478515625,0.015216744504868984,0.33971530199050903,-0.184228777885437
1759601932454609000,6.07460888671875,0.004061826504766941,0.36810192465782166,-0.1437191665172577
1759601932464563000,6.08456298828125,-0.006061626598238945,0.32620787620544434,-0.12291406095027924
1759601932474517000,6.09451708984375,-0.012447620742022991,0.24321655929088593,-0.10949519276618958
1759601932484472000,6.10447216796875,-0.014945636503398418,0.18856124579906464,-0.09321381896734238
1759601932494426000,6.114426025390625,0.003446686314418912,0.10175816714763641,-0.07748252898454666
1759601932504380000,6.1243798828125,0.016808217391371727,-0.009748903103172779,-0.06393872201442719
1759601932514334000,6.134333984375,0.023649878799915314,-0.0716405063867569,-0.042762331664562225
1759601932524288800,6.144288818359375,0.028624586760997772,-0.087649866938591,-0.017982767894864082
1759601932534242800,6.154242919921875,0.02801419049501419,-0.064516581594944,0.010085619054734707
1759601932544196900,6.16419677734375,0.021695813164114952,-0.008055700920522213,0.019939860329031944
1759601932554151200,6.174151123046875,0.017264844849705696,0.03291995823383331,0.009964455850422382
1759601932564106000,6.18410595703125,0.011029879562556744,0.06983776390552521,-0.002864801324903965
1759601932574060000,6.19406005859375,0.003803125349804759,0.08028800785541534,-0.01357576809823513
1759601932584013800,6.204013916015625,0.0015859089326113462,0.06577540189027786,-0.021869592368602753
1759601932593967900,6.2139677734375,-0.0001520700752735138,0.058342788368463516,-0.026517607271671295
1759601932603922000,6.223921875,-0.004456722643226385,0.03654772415757179,-0.026466242969036102
1759601932613877000,6.233876953125,-0.01563640683889389,0.02300049178302288,-0.020520204678177834
1759601932623831000,6.2438310546875,-0.016589416190981865,0.036495231091976166,-0.008383972570300102
1759601932633785000,6.25378515625,-0.016888756304979324,0.05395651236176491,0.00399733055382967
1759601932643739000,6.26373876953125,-0.011258170008659363,0.058710284531116486,0.005674115847796202
1759601932653694000,6.27369384765625,-0.011712239123880863,0.05351019650697708,0.0033302679657936096
1759601932663648000,6.28364794921875,-0.014079147949814796,0.05938484147191048,0.005630925297737122
1759601932673601800,6.293601806640625,-0.015694355592131615,0.0634395033121109,0.014286198653280735
1759601932683555800,6.303555908203125,-0.015897255390882492,0.06833859533071518,0.02840854786336422
1759601932693511000,6.313510986328125,-0.01762644574046135,0.06635373830795288,0.024573329836130142
1759601932703465000,6.32346484375,-0.022025834769010544,0.039432186633348465,0.008064291439950466
1759601932713419000,6.3334189453125,-0.023651694878935814,0.0295417420566082,-0.005455512087792158
1759601932723373000,6.343373046875,-0.02868090569972992,0.021346306428313255,-0.0053225415758788586
1759601932733328600,6.35332861328125,-0.03517395630478859,0.00829255674034357,0.0072209471836686134
1759601932743282400,6.363282470703125,-0.037037864327430725,0.029363321140408516,0.020557735115289688
1759601932753236500,6.373236572265625,-0.04519405961036682,0.09301366657018661,0.06531509011983871
1759601932763190500,6.3831904296875,-0.04556332528591156,0.1645708680152893,0.07615691423416138
1759601932773145300,6.393145263671875,-0.0360632985830307,0.21137592196464539,0.03747290372848511
1759601932783099600,6.403099609375,-0.02449711412191391,0.23611325025558472,0.005939029622823
1759601932793053700,6.4130537109375,-0.02635626681149006,0.24769854545593262,-0.006889150943607092
1759601932803007500,6.423007568359375,-0.015933390706777573,0.22293001413345337,-0.007206207141280174
1759601932812962600,6.432962646484375,-0.00867308210581541,0.19551171362400055,-0.0014822748489677906
1759601932822916600,6.44291650390625,0.009536514058709145,0.17079976201057434,0.007492972072213888
1759601932832870400,6.452870361328125,0.024356206879019737,0.13745245337486267,0.016468092799186707
1759601932842824400,6.462824462890625,0.03460410609841347,0.08795547485351562,0.01599562168121338
1759601932852778500,6.472778564453125,0.03879112750291824,0.02641541138291359,0.006549124140292406
1759601932862733600,6.482733642578125,0.03974542021751404,-0.02212018333375454,0.0027045500464737415
1759601932872687600,6.4926875,0.04198300838470459,-0.0499667264521122,0.021051332354545593
1759601932882641700,6.5026416015625,0.05255236476659775,-0.033880338072776794,0.04844320937991142
1759601932892595500,6.512595458984375,0.004098014906048775,0.019328821450471878,0.07988262921571732
