time,seconds_elapsed,z,y,x
1758278390672792300,147.03479223632812,-2.8550582994684577,0.9615729953259228,2.963128798086941
1758278390682876200,147.04487622070312,-2.987947013001144,1.05410164141953,2.7290321651816365
1758278390692960300,147.05496020507812,-3.107363958281278,1.1556605661869048,2.547789755107462
1758278390703045000,147.06504516601564,-3.1238913147121665,1.1502344494849444,2.419113983094692
1758278390713129000,147.07512890625,-2.921835833711922,0.9625421326190232,2.3969793081760407
1758278390723213300,147.08521337890625,-2.3420400957643985,0.6345043564736843,2.563413440696895
1758278390733298200,147.09529809570313,-1.6149936491936443,0.2464215692102909,2.825771706968546
1758278390743382300,147.10538232421874,-0.8594824478998779,-0.2338788985013961,2.982000671817362
1758278390753466000,147.11546606445313,-0.1874269439280033,-0.8285024954855441,3.129153180763125
1758278390763551200,147.12555126953126,0.3815425718396902,-1.4478788409322498,3.234808727194369
1758278390773635000,147.13563500976562,0.8393450842782855,-2.058453455764055,3.3056790837094185
1758278390783719200,147.14571923828126,1.1484811760768294,-2.507186818823218,3.3865549936711785
1758278390793804300,147.15580419921875,1.2631670011818408,-2.7290362568348643,3.499308389408886
1758278390803888000,147.16588818359375,1.2365645331993698,-2.6829987282812597,3.575817628593742
1758278390813972200,147.17597216796875,1.0815126493059095,-2.32174666479826,3.6007568395391103
1758278390824057000,147.18605712890624,0.7426619488537312,-1.7089245633006094,3.4417481808438897
1758278390834141200,147.19614111328124,0.2898930466681718,-0.8898580046802759,3.055285103736818
1758278390844225300,147.20622534179688,-0.2648359084315598,0.0541302341163158,2.480072894187272
1758278390854310100,147.21631005859376,-0.8587072988089174,1.07868195592463,1.7395163931801914
1758278390864394200,147.22639428710937,-1.42857559004724,2.1001468176335094,1.0018138202995062
1758278390874478000,147.23647802734374,-1.9134692307680845,2.9477456432551143,0.3957622358500957
1758278390884563200,147.24656323242186,-2.2171669309049844,3.4454899977207183,0.0155143799960613
1758278390894647000,147.25664697265626,-2.323621226498485,3.5330759267151355,-0.1624238739661872
1758278390904731100,147.26673120117186,-2.223859706541896,3.3058079707860943,-0.1458067934252321
1758278390914816300,147.27681616210938,-1.968468648934364,2.9785592991918324,-0.0127314712792634
1758278390924900000,147.28690014648438,-1.8301275152146812,2.610073777323961,-0.0768759536053985
1758278390934984200,147.2969841308594,-1.7204571801841255,2.223838663753867,-0.1964692783657461
1758278390945069000,147.30706909179688,-1.558366922086477,1.745600973790884,-0.2943478706525638
1758278390955153200,147.31715307617188,-1.4391145197182893,1.2401052745461465,-0.3158192228242755
1758278390965237200,147.3272373046875,-1.3116834870696068,0.7856447660118341,-0.4054808621142059
1758278390975322400,147.337322265625,-1.3548030823498964,0.3645072658866644,-0.5298700428489596
1758278390985406200,147.34740625,-1.3671107752591372,0.0153267484694719,-0.5858994616501033
1758278390995490000,147.35748999023437,-1.431181388631463,-0.2777747388511896,-0.6400302802883088
1758278391005575200,147.3675751953125,-1.575329747325182,-0.5200654918670654,-0.6294681158721447
1758278391015659000,147.37765893554686,-1.550144452664256,-0.7059785241007804,-0.5740531026422977
1758278391025743400,147.38774340820314,-1.312158703365922,-0.7661790180414915,-0.5205355935968459
1758278391035828200,147.397828125,-1.0688438679993153,-0.8454623981148004,-0.6150327632844448
1758278391045912300,147.40791235351563,-1.1702350349843502,-0.8324427575439214,-0.7907055565327405
1758278391055996200,147.41799609375,-1.4817838870130478,-0.7617571099460124,-0.9271575155049562
1758278391066081000,147.4280810546875,-1.6488824747920034,-0.6305804610282182,-1.0172186024412513
1758278391076165000,147.4381650390625,-1.7700553238287566,-0.5184416900575161,-1.1273702912479635
1758278391086249200,147.44824926757812,-1.8438528198368849,-0.3984516210645437,-1.2390408601850271
1758278391096334300,147.45833422851564,-1.8241744520291685,-0.2798854473948478,-1.371956461724639
1758278391106418200,147.4684182128906,-1.7678871860094367,-0.0941606312096118,-1.494834653374553
1758278391116502000,147.478501953125,-1.6909043379634618,0.1701911469668149,-1.491867035740614
1758278391126587100,147.48858715820313,-1.5806494810432197,0.5613029266625642,-1.4459247842550278
1758278391136671000,147.4986708984375,-1.5218876416034997,1.1511819594681263,-1.4173141913205385
1758278391146755300,147.50875537109374,-1.607778895509243,1.8598855246186252,-1.367245215293765
1758278391156840200,147.51884008789062,-1.8221112358890472,2.462345222055912,-1.1791565925866363
1758278391166924300,147.52892431640626,-2.0322737432383,2.940383590054512,-0.8978308832556009
1758278391177008000,147.53900805664065,-2.0238272558018564,3.315810309362411,-0.7077782669991255
1758278391187093200,147.54909326171875,-1.6996908710092304,3.3047441409468647,-0.763708828535676
1758278391197177000,147.55917700195312,-1.2394275214150547,2.8696745615810157,-1.125105853447318
1758278391207261200,147.56926123046875,-0.9023844549067318,2.296573645097017,-1.657365640977025
1758278391217346300,147.57934619140624,-0.6790076611973345,1.84339031689167,-2.25790693757236
1758278391227430100,147.58943017578125,-0.2916457355543971,1.553783101427555,-2.771313556072116
1758278391237514200,147.59951416015625,-0.1351772628612816,1.552787076127529,-3.2421722416996954
1758278391247599000,147.60959912109374,-1.1123927946075796,1.4755729035437106,-3.340009515595436
1758278391257683000,147.61968286132813,-1.3237909812316295,1.3091712119877337,-3.165128164985776
1758278391267767300,147.62976733398438,-0.1798842734634876,1.4843009844005106,-3.4126199937760826
1758278391277852200,147.63985205078126,0.9691635965853928,1.836717414999008,-3.932147140982747
1758278391287936300,147.64993627929687,1.3812573740333318,2.4519173515439032,-3.959032809820771
1758278391298020000,147.66002001953126,1.1232710392355918,3.3538615153372286,-3.292068199247121
1758278391308104200,147.67010424804687,0.6039274319022894,4.286746760839224,-2.176780559980869
1758278391318188300,147.68018823242187,0.0391764106124639,5.141358680093288,-1.074176461198926
1758278391328272400,147.6902724609375,-0.3964385276764631,5.936516539859771,-0.0445277085125446
1758278391338357200,147.70035717773436,-0.606305851471424,6.102948626554012,0.7556283979326486
1758278391348441300,147.71044140625,-0.3139274177283048,5.183237335401773,0.9210831640273331
1758278391358525200,147.72052514648436,0.4757128476604819,3.666963003635406,0.3073533000349998
1758278391368610300,147.7306103515625,1.3301403502583502,2.306202474185824,-0.6191571497380733
1758278391378694400,147.7406943359375,1.9204501756966117,1.286218206423521,-1.4690519773423671
1758278391388778200,147.7507783203125,2.03895555908978,0.5368646509766578,-2.141491219934821
1758278391398863400,147.76086328125,1.6797206806480884,-0.030571079352498,-2.625323076643049
1758278391408947200,147.770947265625,1.1228218341633678,-0.3553665125757456,-2.842161408494413
1758278391419031300,147.78103125,0.4508624840423464,-0.3560767066717147,-2.6922394348353147
1758278391429116200,147.7911162109375,-0.1466875217825174,-0.1244505555331706,-2.2474916342809794
1758278391439200300,147.8012001953125,-0.7149073882266879,0.2678115632414817,-1.5954858156472445
1758278391449284400,147.8112844238281,-1.2932508815392851,0.6266232478350401,-0.8437667001128196
1758278391459369200,147.821369140625,-1.8210183260858055,0.9167477651715278,-0.066241235409677
1758278391469453300,147.83145336914063,-2.2923472595736385,1.1742922014206647,0.6029562487825751
1758278391479537200,147.841537109375,-2.7552140696644782,1.3637135340362787,1.2075623105987905
1758278391489622300,147.85162231445312,-3.1102474047631024,1.4900532643169164,1.72167093988806
1758278391499706400,147.86170629882812,-3.413239002457261,1.340969202786684,2.0943033523023127
1758278391509790200,147.87179028320313,-3.5911727263748645,0.8551753983557224,2.346383385665715
1758278391519875300,147.88187524414062,-3.628199849998951,-0.0222241067677736,2.357951658384502
1758278391529959200,147.89195922851562,-3.478401794980466,-1.096778169107437,2.175875281704217
1758278391540043300,147.90204321289062,-3.275554286819696,-2.0760721145629883,2.070027719832212
1758278391550128000,147.91212817382814,-3.1427818931430576,-2.8359418033272026,2.0181427804246543
1758278391560212500,147.92221240234375,-3.160729637765884,-3.3948616342455145,1.9887783003829416
1758278391570296300,147.93229638671875,-3.1291578569382428,-3.75114292357862,2.0088152723699806
1758278391580381200,147.94238110351563,-3.038264118570089,-3.890783449459076,1.951305332687497
1758278391590465300,147.95246533203124,-2.9576065275341272,-3.898241364249587,1.7966233050197362
1758278391600549000,147.96254907226563,-2.719370602867007,-3.727130179828405,1.608990901647508
1758278391610634200,147.97263427734376,-2.2588047631949184,-3.3793151055455204,1.4622811680331826
1758278391620718300,147.98271826171876,-1.4482657944232225,-2.786065719524026,1.4159882034137845
1758278391630802200,147.99280224609376,-0.4037685052383691,-1.8339847751647236,1.527045462758094
1758278391640887300,148.00288720703125,0.7086785037744789,-0.3945417541444301,1.670390834505856
1758278391650971100,148.01297119140625,1.8423375929683443,1.3288678461045027,1.802145867833495
1758278391661055200,148.02305517578125,2.981470802724361,3.078318481060862,1.9949232328787443
1758278391671140000,148.03314013671874,4.022665616297721,4.278430767914653,2.0337382628329097
1758278391681224400,148.04322436523438,5.039784557756781,4.770514612400532,1.764066312547028
1758278391691308300,148.05330834960938,5.320753124213218,4.291670188716053,1.529176191176474
1758278391701393400,148.06339331054687,4.5681355985343455,3.217908153536916,1.8626199180185796
1758278391711477200,148.07347729492187,3.500269051134586,2.411948329249024,2.8630934296250343
1758278391721561000,148.08356103515624,2.6536463770687577,2.30287186845839,4.485043473827838
1758278391731646200,148.09364624023436,1.6968641231507062,2.390687514555454,6.028323885941505
1758278391741730300,148.10373022460936,0.446928067202866,2.2205466364711524,7.296773795962333
1758278391751814400,148.113814453125,-0.0711446434117853,1.4610563024133445,8.023409323644637
1758278391761899300,148.12389916992188,0.2036566325865685,0.1588134283840656,8.132615548294782
1758278391771983400,148.1339833984375,0.7041863799870014,-1.2173948455661534,7.676371078953147
1758278391782067200,148.1440671386719,1.0001166609928012,-1.9103133970856665,6.788092452418804
1758278391792152000,148.15415209960938,0.5793555929645896,-1.5795850666821003,5.756950246304274
1758278391802236400,148.164236328125,-0.3873483355090021,-0.6580307780116796,4.511743556965888
1758278391812320300,148.1743203125,-1.490009132914245,0.2106839008748531,3.137814918385446
1758278391822405400,148.1844052734375,-2.4038556236863133,0.8020084563136101,1.84531222486496
1758278391832489200,148.1944892578125,-3.072076664061844,1.2376175493836403,0.689235479092598
1758278391842573000,148.20457299804687,-3.37497093886137,1.53752930124104,-0.2723126740530133
1758278391852658200,148.214658203125,-3.316058731165528,1.6205267334014175,-0.8648673558086156
1758278391862742300,148.2247421875,-2.859703202664852,1.5462252333939075,-0.919483327615261
1758278391872826400,148.23482641601564,-2.1565373978972437,1.360022278302908,-0.7597308648154139
1758278391882911200,148.2449111328125,-1.492581321489811,1.0319313106656074,-0.6247101076900958
1758278391892995300,148.25499536132813,-0.9349363328129052,0.5924596969485283,-0.4129635460197925
1758278391903079200,148.2650791015625,-0.5733930312983692,0.0957470236182212,0.0092173256784677
1758278391913164300,148.27516430664062,-0.1946865596674382,-0.363970674791932,0.6673097707495093
1758278391923248400,148.28524829101562,0.2418535306423902,-0.694923461601138,1.4603119137868283
1758278391933332200,148.29533227539062,0.6995826855838299,-0.769982501977682,2.2335770906969903
1758278391943417300,148.3054172363281,1.089358759696409,-0.4441255770027637,2.894976176097989
1758278391953501200,148.3155012207031,1.3782272125571966,0.2684194660067558,3.2769261596947907
1758278391963585300,148.3255852050781,1.5250158566266296,1.2078887660741806,3.2566359435990453
1758278391973670100,148.33567016601563,1.489502060174942,2.116759514260292,2.8317992966949936
1758278391983754200,148.34575415039063,1.237262160074711,2.8466882382690906,2.0910225770659743
1758278391993838300,148.35583837890624,0.7555880659222602,3.4278614020496603,1.3494851021975278
1758278392003923200,148.36592309570312,0.1607428986093029,3.7877404236137866,0.6801686678007245
1758278392014007300,148.37600732421876,-0.2962508912622928,4.00539942419827,0.2614729348044842
1758278392024091100,148.38609106445313,-0.6692699649065733,3.997551633307337,-0.051011152247712
1758278392034176300,148.39617626953125,-0.9829682500541208,3.718949211460352,-0.3182101365488022
1758278392044260400,148.40626025390625,-1.0908026018291712,3.1517022817015645,-0.4431257888430729
1758278392054344200,148.41634423828123,-1.0245254183232784,2.375538460740447,-0.6130838211737573
1758278392064429300,148.42642919921877,-0.927385479041934,1.5839274798005818,-0.7672410943150519
1758278392074513200,148.43651318359375,-0.9455431400883942,0.7903864075809717,-0.9582406360328196
1758278392084597200,148.44659716796875,-0.9450175087790936,0.0539087003201246,-1.1612142547912896
1758278392094682000,148.45668212890624,-1.0978471135132013,-0.6935124257594346,-1.2767664874672888
1758278392104766500,148.46676635742188,-1.3739374064087866,-1.3981675923019647,-1.4423900342576206
1758278392114850300,148.47685034179688,-1.8254471023134888,-1.9439689984500408,-1.568662398390472
1758278392124934100,148.48693408203124,-2.2617484154313803,-2.195548973336816,-1.559588865096867
1758278392135019300,148.49701928710937,-2.4630939945966004,-2.223606024041772,-1.454296306759119
1758278392145103000,148.50710302734376,-2.371848520181328,-2.1647879243701693,-1.4251421084672211
1758278392155187500,148.5171875,-2.2528340182222424,-1.8903537281185387,-1.4004904822915791
1758278392165272300,148.5272722167969,-2.5175071373075246,-1.5099977357149124,-1.3716776447832584
1758278392175356400,148.5373564453125,-2.6606176773861048,-1.117578380551934,-1.3092109594762324
1758278392185441300,148.54744116210938,-2.5679542989969253,-0.6769324623584747,-1.2056862875938414
1758278392195525000,148.55752514648438,-2.4664552877232437,-0.2297638643980026,-1.1040654035061597
1758278392205609200,148.56760913085938,-2.3201973895296453,0.1865700348377227,-1.009439785133302
1758278392215694000,148.57769409179687,-2.126895708349347,0.6444593487769364,-0.912478417289257
1758278392225778400,148.5877783203125,-1.9703318124577405,1.2349720033109188,-0.8775959044784307
1758278392235862300,148.5978623046875,-1.7023872704863547,2.0814386100322007,-0.7445914556115866
1758278392245946000,148.60794604492187,-1.4387738895870743,2.967486116513609,-0.6222106920897961
1758278392256031200,148.61803125,-1.4987131022430955,3.6365801403313873,-0.5358393995821475
1758278392266115000,148.62811499023437,-1.5696315356835722,4.122188651323318,-0.5475123017191886
1758278392276199400,148.6381994628906,-1.5705571260958908,4.399984432962537,-0.6590349866181612
1758278392286284300,148.6482841796875,-1.6527119699522852,4.2933278927952045,-0.912769509190321
1758278392296368400,148.65836840820313,-1.6561217783957718,3.8548897137790914,-1.4417723407506942
1758278392306453000,148.66845288085938,-1.4525962248429656,3.3177865778714417,-2.1908698756098746
1758278392316538000,148.6785380859375,-1.3112719836592674,2.767939111202955,-2.850938881450891
1758278392326622000,148.6886220703125,-1.2177338682621717,2.212748529940844,-3.398304468175769
1758278392336706000,148.6987060546875,-0.9706661101028322,1.6645727958768606,-3.736055829083919
1758278392346791000,148.708791015625,-0.4491057035028934,1.295945819711685,-3.934312210062146
1758278392356875000,148.718875,-0.328391996410489,1.0905728847265244,-4.142038430175185
1758278392366959000,148.728958984375,-1.312647655926645,1.029776178458333,-3.897446999001503
1758278392377044000,148.7390439453125,-1.431229903948307,1.0568085622906684,-3.239586901381612
1758278392387128000,148.74912817382813,-0.1867518211454153,1.1822872918277978,-3.01705707989037
1758278392397212000,148.7592119140625,0.9693541507214308,1.448497849613428,-3.1650814032346006
1758278392407297000,148.76929711914062,1.4840966940000653,2.060724323305488,-2.982988806071877
1758278392417381000,148.77938110351562,1.4329416763022542,3.065090166175365,-2.406223521861434
1758278392427465000,148.78946484375,1.1240104594260454,4.344700937157869,-1.5304840589046478
1758278392437550000,148.79955004882814,0.6016834523677825,5.528207541647553,-0.4140314675122499
1758278392447634000,148.80963403320314,0.1428179868727922,6.292879662257433,0.6964952409625053
1758278392457718000,148.8197180175781,-0.0070274144187569,6.1564773876458405,1.358643975687027
1758278392467803000,148.82980297851563,0.4579506887376308,4.908410340440273,1.2001543724298476
1758278392477887000,148.83988696289063,1.3773679653793574,3.2295500760138034,0.3192372145742178
1758278392487971000,148.84997119140624,2.098657455858588,1.8170283796668047,-0.8071873202562332
1758278392498056000,148.86005590820312,2.201107776507735,0.8437403966277838,-1.856018327796459
1758278392508140000,148.87014013671876,1.7255132945299148,0.289965527382493,-2.704896379573643
1758278392518224100,148.88022412109376,0.7947264826118946,0.1560737742871046,-3.174497466355562
1758278392528309000,148.89030908203125,-0.0244984814405441,0.2757663216382265,-3.299242620921135
1758278392538393000,148.90039306640625,-0.4429720230534672,0.4798246668934822,-3.1519016036659475
1758278392548477000,148.91047680664062,-0.8336293369799852,0.7472954538732767,-2.6976526920557022
1758278392558562000,148.92056201171874,-1.3181570669978857,0.8739075713545084,-2.0252464749500154
1758278392568646000,148.93064599609374,-1.7080384281158447,0.8627928876221179,-1.2838619986861943
1758278392578730000,148.94072998046877,-2.0102149100348354,0.8208914359599352,-0.6650467942535877
1758278392588814800,148.95081494140624,-2.2663597086191176,0.7186573884099722,-0.1379836985841393
1758278392598899200,148.96089916992187,-2.417809330236912,0.5647714795559644,0.3813336052641272
1758278392608983000,148.97098315429687,-2.582331783917546,0.383122534507513,0.7941963212579488
1758278392619068000,148.98106787109376,-2.746016325469315,0.1557943728238344,1.1154920757971702
1758278392629152000,148.99115209960937,-2.86283010251373,-0.1397948396593332,1.2925643605798482
1758278392639236000,149.00123608398437,-2.923964954695105,-0.5645686504602432,1.3661360850080846
1758278392649321000,149.01132104492189,-2.8889044549688694,-1.1523773067325354,1.345568221014738
1758278392659405000,149.0214050292969,-2.6961709290653464,-1.833144232687354,1.2614169426441193
1758278392669489000,149.0314890136719,-2.398017419052124,-2.5293963125437497,1.201765022496879
1758278392679574000,149.04157397460938,-2.1788909762635824,-3.0994822651207445,1.316084352377057
1758278392689657900,149.05165795898438,-2.084856894043088,-3.491599422466755,1.5118720051541925
1758278392699742000,149.06174194335938,-1.9646546436041592,-3.672224285164475,1.625453376148641
1758278392709827000,149.0718271484375,-1.7746452819675207,-3.592555705165863,1.6538494495496152
1758278392719911200,149.0819111328125,-1.3426432734787463,-3.316098478654027,1.4475902332492172
1758278392729995000,149.0919951171875,-0.7712199348181485,-2.8085435087919235,1.0971530668344347
1758278392740080000,149.102080078125,0.0259125860221683,-1.9947259567409752,0.7211877106051892
1758278392750164000,149.1121640625,0.793614137455821,-0.8649141175597905,0.3644671530719846
1758278392760248000,149.122248046875,1.4697230084717272,0.4887362876236438,0.0742280785782728
1758278392770333000,149.1323330078125,2.00262460103631,1.7727730583548544,0.032230619195709
1758278392780417000,149.1424169921875,2.3300535976335404,2.69034616843462,0.1468720480365678
1758278392790501000,149.15250122070313,2.5073873098313806,3.046943099588156,0.1592625603910535
1758278392800586000,149.1625859375,2.6068752735435963,2.9179443792313338,-0.0691726857516914
1758278392810670000,149.17267016601562,2.710408713254332,2.577639826709032,-0.3862465848121791
1758278392820754200,149.18275415039062,2.645814952790737,2.3008926773399114,-0.3226662391748279
1758278392830839000,149.1928391113281,2.1404922720253468,2.300557746297121,0.4016258671864867
1758278392840923100,149.2029230957031,1.3572571975037455,2.276004904320836,1.6697265253782272
1758278392851007000,149.2130070800781,0.4356147921584546,2.0839485470265147,3.1229759534329173
1758278392861092000,149.22309204101563,-0.3575874034956097,1.660854652136564,4.628045585095882
1758278392871176000,149.23317602539063,-0.9192872205212712,0.8325374500900506,5.690285524785518
1758278392881260000,149.24326000976563,-1.0655921727269888,-0.2458621817618608,6.187888424953818
1758278392891345200,149.25334521484376,-0.9569073416024446,-1.084497364205122,6.081627021583914
1758278392901429000,149.26342895507813,-1.0400137870952486,-1.3967226541906594,5.760986954474449
1758278392911513000,149.27351318359376,-1.3527476111248136,-1.318587275108695,5.357834023851156
1758278392921598000,149.28359790039062,-1.8218693899571892,-1.1887053421765563,4.819688977675139
1758278392931682000,149.29368212890626,-2.1861723654434084,-1.0821055006325244,4.215931933903694
1758278392941766100,149.30376611328126,-2.3873487255215644,-0.9951473481476306,3.605996201497317
1758278392951850000,149.31385009765626,-2.4637705786839126,-0.8592997848093509,2.980012712870538
1758278392961935000,149.32393505859375,-2.3484131379276514,-0.5544067374080419,2.443653965589404
1758278392972019000,149.33401904296875,-2.057797622203827,-0.1495762289613485,2.1287766997903583
1758278392982103000,149.34410302734375,-1.6064201743766664,0.3593284019440412,2.007332632596791
1758278392992188000,149.35418798828124,-1.0435656343579292,0.919574513030052,2.043434750330448
1758278393002272300,149.36427221679688,-0.5253104067832232,1.362728030130267,2.148224327582121
1758278393012356000,149.37435620117188,-0.0882061067193746,1.563018547284603,2.2058828819550573
1758278393022441000,149.38444091796876,0.2693544087693095,1.5822516555428503,2.2769231882095338
1758278393032525000,149.39452514648437,0.5521548668280244,1.526608094254136,2.290965742087364
1758278393042609000,149.40460888671876,0.6895236483842134,1.3450707928866148,2.399254705762118
1758278393052694000,149.4146940917969,0.7340425890684127,1.007332291460037,2.460896192291379
1758278393062778000,149.42477807617186,0.7131412553369999,0.4230553164452314,2.474958035391569
1758278393072862000,149.43486206054686,0.7037240231722592,-0.3604541911035775,2.4779057792812584
1758278393082947000,149.44494702148438,0.7446946237251162,-1.1937556113034486,2.4643431178748605
1758278393093031000,149.45503100585938,0.7787367401890456,-1.9229975220918651,2.469821841546893
1758278393103115000,149.46511499023438,0.7546008084505796,-2.3819547575235367,2.509280868493021
1758278393113199900,149.47519995117187,0.6737495945386588,-2.4661750094771384,2.4899855086535214
1758278393123284200,149.4852841796875,0.5834475384533405,-2.082926218241453,2.421256401950866
1758278393133368000,149.4953681640625,0.4313343383602798,-1.2469810055345296,2.291442273557931
1758278393143453200,149.505453125,0.1219295126229524,-0.0576011250972747,2.0104396587014195
1758278393153537000,149.515537109375,-0.2809026616133749,1.3302630998551843,1.710447535084188
1758278393163620900,149.52562084960937,-0.7772435790218413,2.6430069096326827,1.4552300804778933
1758278393173706000,149.5357060546875,-1.285817224407196,3.5936294718772173,1.2339135802991688
1758278393183790000,149.5457900390625,-1.7715191127710044,4.077041934129595,1.0790171792283654
1758278393193874200,149.55587426757813,-1.8413275391429664,4.29356170155108,0.9610317280560732
1758278393203959000,149.565958984375,-1.898825788387656,4.387640499696135,0.6944782751169055
1758278393214043100,149.57604321289062,-1.8617969111979007,4.342860862249136,0.3707971598111093
1758278393224127000,149.586126953125,-1.6641256366312502,4.118574552479386,0.0925646672550588
1758278393234211800,149.5962119140625,-1.3878490273833275,3.716606447726488,-0.1693408137477934
1758278393244296200,149.60629614257812,-1.1667635594815016,3.216685333743692,-0.4478711932718753
1758278393254380000,149.61638012695312,-1.0055634551566093,2.573395028746128,-0.6454197182416915
1758278393264465200,149.62646508789064,-0.9073978991545736,1.9222201079785823,-0.6786217306196689
1758278393274549000,149.63654907226564,-0.8788578872382641,1.303133685389161,-0.6323245282165706
1758278393284632800,149.6466328125,-0.8272948732614517,0.7247457684129476,-0.6865808729305863
1758278393294718000,149.65671801757813,-0.8418542175550013,0.2064420255213975,-0.77472355902493
1758278393304802000,149.66680200195313,-0.8949098812423646,-0.2293418395936489,-0.8329533374145627
1758278393314886000,149.67688598632813,-0.7278786596111952,-0.5609188957810401,-0.8631611364126205
1758278393324970800,149.686970703125,-0.8589572549819946,-0.8405804712921381,-0.9751356567323208
1758278393335054800,149.69705493164062,-1.111215275260806,-1.1160749902516602,-1.1985372926220297
1758278393345138700,149.707138671875,-1.1095349209584295,-1.3055419155746697,-1.3613652173444628
1758278393355223800,149.7172238769531,-1.1209751833833754,-1.3679028024196624,-1.5092106769904494
1758278393365308000,149.72730786132811,-1.2129502872474491,-1.4129495663702487,-1.7411553925588723
1758278393375391700,149.73739184570312,-1.1023979086853564,-1.3922294344246386,-1.9639903344765304
1758278393385476900,149.74747680664063,-1.039227897414565,-1.2406295906811953,-2.1429060551688077
1758278393395560700,149.75756079101564,-1.095375901094079,-0.9979413627803324,-2.2112954085230827
1758278393405644800,149.76764477539064,-1.1521405753672125,-0.6497615468382835,-2.281575397929549
1758278393415729000,149.77772900390624,-1.31604592006281,-0.1201993278294801,-2.339560553908348
1758278393425814000,149.78781396484376,-1.5006129445150491,0.3851192612826824,-2.245252623182535
1758278393435897900,149.79789794921874,-1.694247803172469,0.7808043402433394,-1.9961878459870812
1758278393445981700,149.80798168945313,-1.831676498222351,1.034291025534272,-1.7415683572739362
1758278393456066800,149.81806689453126,-1.8161650408357384,1.1463199063897132,-1.722530479326844
1758278393466150700,149.82815063476562,-1.7760887587741017,1.1155921751707791,-1.9405530525267125
1758278393476235000,149.83823510742187,-1.8750947841882704,1.0349246472626925,-2.318449376818537
1758278393486319900,149.84831982421875,-1.934372902587056,0.9289496596187352,-2.708626506012678
1758278393496404000,149.8584040527344,-1.7837454110071065,0.9200643423736096,-3.125355542045832
1758278393506487800,149.86848779296875,-1.6826842066287993,0.8702864582479,-3.615056875309348
1758278393516572700,149.87857275390624,-2.3013173324927685,0.5204278954386711,-3.7521751892358064
1758278393526656800,149.88865673828124,-2.331675938138366,0.0839542944937944,-3.310980404987931
1758278393536740900,149.89874096679688,-1.543034912919998,0.0557049360871315,-2.852271006837487
1758278393546826000,149.90882592773437,-0.8792115229815244,0.2628770294487476,-2.4688684863448143
1758278393556909800,149.91890991210937,-0.3953261825203895,0.9044523472219704,-2.04904499142766
1758278393566993700,149.92899365234376,-0.2119827085137367,2.050856424763799,-1.515319222998619
1758278393577078800,149.93907885742186,-0.478666729030013,3.3759657951176165,-0.8574597099006176
1758278393587162600,149.94916259765623,-1.0059820458948612,4.381301944324374,-0.285545372852683
1758278393597247000,149.9592470703125,-1.1714572702556847,4.805302432665228,0.0588899958640336
1758278393607331800,149.96933178710938,-0.5211645391501486,4.954545484149456,0.1646609853684902
1758278393617416000,149.979416015625,0.5325970566600561,5.2388154302388426,0.2071925516277551
1758278393627499800,149.98949975585938,1.2348235347509384,5.693811945345997,0.5210439815104008
1758278393637585000,149.9995849609375,1.4294767766706644,5.756694225716591,0.8903717994213104
1758278393647668700,150.00966870117188,1.4112700888507068,4.991935595867037,0.9059814564853906
1758278393657752800,150.0197529296875,1.6595101056598125,3.710157417717576,0.5441685442492366
1758278393667838000,150.029837890625,1.9484389834709464,2.42848036185503,-0.0768833331942558
1758278393677921800,150.039921875,2.096498231998086,1.470989667406678,-0.7661340098559856
1758278393688006000,150.050005859375,2.0095437327750028,0.8180646881014109,-1.4169079486072065
1758278393698090800,150.0600908203125,1.6509335621029138,0.3724345517545938,-2.0182801430687305
1758278393708174600,150.0701745605469,1.221980858182162,0.0666337418586015,-2.498847737284005
1758278393718259000,150.0802590332031,0.8484456517092883,-0.1269616615712642,-2.8782497899636623
1758278393728343800,150.09034375,0.3846615806430578,-0.1579822382569313,-3.1039886366292837
1758278393738428000,150.10042797851565,0.0879565158724784,0.0146299983769655,-3.073907094359398
1758278393748511700,150.11051171875,-0.2599427295625209,0.3830301800489425,-2.6435782797798515
1758278393758596900,150.12059692382812,-0.653334144628048,0.7939303637981414,-1.8635601214781403
1758278393768680700,150.1306806640625,-0.8468535602122544,1.105368302798271,-0.8697311624526977
1758278393778764800,150.14076489257812,-0.8625456348627806,1.174871462613344,0.0353755570247769
1758278393788849000,150.15084887695312,-0.7160049011398106,0.8510334762454033,0.629457156086713
1758278393798933800,150.16093383789064,-0.3650789282947778,0.294437704360485,0.9561348959252236
1758278393809017900,150.1710178222656,-0.0268476749151945,-0.3072141838252544,0.9931561743304133
1758278393819101700,150.1811018066406,0.1240196898352354,-0.7529618090718985,0.9051236706122756
1758278393829186800,150.19118676757813,0.0770054982692003,-1.0151567014753815,0.6064508129000663
1758278393839271000,150.20127099609374,-0.0746218180030584,-1.1377233429580926,0.1859206310182809
1758278393849354800,150.21135473632813,-0.1711094308555126,-1.242718671914935,-0.3589649023938924
1758278393859439900,150.22143994140626,-0.1829955373518169,-1.3975409848362206,-1.0092474774315954
1758278393869523700,150.23152368164062,-0.1344675802219659,-1.5658990711569785,-1.571729969267547
1758278393879607800,150.24160791015626,-0.1088010048501193,-1.54802965246737,-1.8686179893895984
1758278393889692700,150.25169262695312,-0.1861352236170321,-1.279737027710676,-1.8718020262531936
1758278393899776800,150.26177685546875,-0.204529469898343,-0.9627467152804136,-1.6605020393066108
1758278393909860900,150.27186083984375,-0.2212806982129812,-0.5840069259017706,-1.089132768920809
1758278393919945700,150.28194580078124,-0.4301683633208275,-0.2073047798305749,-0.4620568088822066
1758278393930029800,150.29202978515625,-0.7786293342918157,0.2764823609530925,0.0758099318090826
1758278393940113700,150.30211376953125,-1.0867191319078209,0.8197814288914204,0.4913524614714086
1758278393950198800,150.31219873046874,-1.2455964193083344,1.3274696697443722,0.8944212209425866
1758278393960283000,150.32228295898437,-1.534031668383628,1.6246020200163125,1.3179283728085458
1758278393970366700,150.33236669921874,-1.7949737842470406,1.672283808645606,1.9706589985854923
1758278393980451800,150.3424519042969,-1.9514678297728296,1.4163684349030254,2.83726194601506
1758278393990535700,150.35253564453126,-2.0891911238551137,0.90521807089746,3.9147827492058274
1758278394000619800,150.36261987304687,-2.0785943265169857,0.2902460978895426,4.877244217804074
1758278394010704600,150.37270458984375,-2.055506880918145,-0.2683639364272356,5.679234553939104
1758278394020789000,150.3827890625,-2.0443547877848145,-0.6931213806152343,6.190903973382711
1758278394030872800,150.3928728027344,-2.05056562512368,-1.0395406166255474,6.247456466209888
1758278394040958000,150.4029580078125,-2.035621446231008,-1.390831842586398,6.215564951908588
1758278394051041800,150.41304174804688,-2.0203654249101874,-1.8075199620872733,6.038920683279633
1758278394061125600,150.42312573242188,-2.038503139147162,-2.1640993575841185,5.761166402694583
1758278394071210800,150.43321069335937,-2.030267810243368,-2.3083862479656934,5.615398918366432
1758278394081294800,150.443294921875,-1.9965984726145865,-2.265862865012884,5.550661950039864
1758278394091379000,150.45337890625,-1.9020552718281745,-2.1482506310671567,5.34264522254765
1758278394101462800,150.463462890625,-1.727751428845525,-1.975578773200512,5.069333308324217
1758278394111547600,150.47354760742186,-1.345735978797078,-1.6930699915647505,4.800043489223718
1758278394121631700,150.4836318359375,-0.8355775484383106,-1.2206178992658854,4.60078289963901
1758278394131715800,150.4937158203125,-0.2559779175847768,-0.5843482866853476,4.33888026818037
1758278394141801000,150.50380102539063,0.3525473635017871,0.1899117464810609,3.9143002263858913
1758278394151884800,150.513884765625,0.8840273988306522,1.144984858393669,3.2739538658857343
1758278394161968600,150.52396875,1.2473276270151137,2.331120057821274,2.6551024210959677
1758278394172053800,150.5340537109375,1.341017718103528,3.3303035296171903,2.1175512491598725
1758278394182137600,150.5441376953125,1.286902681556344,3.734349609687924,1.6478947789289056
1758278394192222000,150.55422192382812,1.1551093620449304,3.512034892252087,1.4008603385172784
1758278394202306800,150.5643068847656,1.0095745174288748,3.0119577109247446,1.399063372097909
1758278394212391000,150.5743908691406,0.7798629677399993,2.441307694724202,1.543913157059252
1758278394222474800,150.58447485351562,0.5038908943966031,1.7467489747822285,1.6020897439569235
1758278394232559900,150.5945598144531,0.3049532531559467,0.9182885648727416,1.5507140692457555
1758278394242643700,150.60464379882814,0.2134910672500729,0.0208732766807079,1.510190043416619
1758278394252727800,150.61472778320314,0.230755213522911,-0.7977443691283463,1.4793401471227408
1758278394262813000,150.62481298828126,0.2739928822249174,-1.322500064638257,1.4180942357823252
1758278394272896800,150.63489672851563,0.3941556774362921,-1.4759090036302804,1.3398388835825026
1758278394282980900,150.64498095703124,0.4758063711628317,-1.1884382156729698,1.1867655332203957
1758278394293065700,150.65506567382812,0.4995248081415891,-0.5556383250296115,1.0616840593725445
1758278394303149800,150.66514990234376,0.4159431463524699,0.3112304337292909,0.9438277875378728
1758278394313233700,150.67523364257812,0.249538678317517,1.2885638927668333,0.790901152170077
1758278394323318800,150.68531884765625,-0.0166084588430821,2.2732664192676544,0.7091309967823326
1758278394333402600,150.6954025878906,-0.3594805237658321,3.111708709487319,0.6682106651119888
1758278394343486700,150.70548681640625,-0.5302702211476862,3.727458681130409,0.7620075775757431
1758278394353571600,150.71557153320313,-0.6182670690305531,4.109549534502626,0.8711183059621602
1758278394363655700,150.72565576171874,-0.6305126564890146,4.168125057590007,0.9884173092402516
1758278394373739800,150.73573974609374,-0.6236759423367679,3.859586931684613,0.9751156368575988
1758278394383823600,150.74582373046874,-0.5554727592043578,3.2266350653499365,0.9229851982563734
1758278394393908700,150.75590869140626,-0.3154075732834637,2.5253081664472816,0.8546076814703643
1758278394403992600,150.76599267578126,-0.1699767004985362,1.791131721866131,0.7013977721817791
1758278394414077000,150.77607690429687,-0.0983170933019369,1.105078379940987,0.4285518680348992
1758278394424161800,150.78616186523436,-0.1160977377295494,0.4782879588454961,0.1150984975591301
1758278394434245600,150.79624560546876,-0.1614122127056121,-0.0821715027302503,-0.1395706755146384
1758278394444329700,150.80632983398436,-0.2406049918860197,-0.5577081170409918,-0.3192453978806734
1758278394454414600,150.81641455078125,-0.3407996425628662,-0.9814829799324274,-0.5094055661648511
1758278394464498700,150.82649877929688,-0.4502046046555042,-1.2435668131768702,-0.6170233525797725
1758278394474582800,150.83658276367188,-0.6438100180227309,-1.3795382951557635,-0.7494532164290547
1758278394484668000,150.84666796875,-0.761277290539816,-1.4236948322683571,-0.8701239611625671
1758278394494751700,150.85675170898438,-0.7239257572669535,-1.4061580065339805,-0.9435676752969622
1758278394504835600,150.86683569335938,-0.8211684993356466,-1.3107844924032688,-1.0559934465155003
1758278394514920700,150.87692065429687,-1.0333178696531802,-1.1825924122542142,-1.275824238181114
1758278394525004500,150.88700463867187,-0.9228519272655248,-0.9161451231032608,-1.4339818330049514
1758278394535089000,150.8970888671875,-0.7869241382978857,-0.5747270563811063,-1.5554910743892192
1758278394545173800,150.907173828125,-0.8545674955904483,-0.3469885603308677,-1.6686211944848297
1758278394555257900,150.9172578125,-0.8878326363325119,-0.220904266116023,-1.6945055773258209
1758278394565341700,150.927341796875,-0.7983283064961433,-0.0892220057636499,-1.638312565460801
1758278394575426600,150.93742651367188,-0.6613537849545479,0.1049310315489768,-1.5013240153938532
1758278394585510700,150.9475107421875,-0.5840455043464898,0.3398147231787443,-1.3891881670325994
1758278394595594800,150.9575947265625,-0.7189876432776451,0.5277694903731346,-1.3161995031893252
1758278394605678800,150.96767895507813,-0.8230892382651567,0.544529486516118,-1.3375742996513842
1758278394615763700,150.977763671875,-0.7545086001224816,0.4971621706634759,-1.437996329343319
1758278394625847600,150.98784765625,-0.7997541015155613,0.3751081548780202,-1.7426888857364653
1758278394635931600,150.997931640625,-0.9633863283582031,0.19148001871109,-2.146759515726566
1758278394646016500,151.0080166015625,-1.2079545247867702,0.1800011778414249,-2.424942250856757
1758278394656100900,151.0181008300781,-1.6008835830375552,0.2004968533813953,-2.676754280933737
1758278394666184700,151.0281848144531,-1.7195099624618886,0.3176660197347402,-2.873963198685646
1758278394676269800,151.03826977539063,-1.637631597459316,0.5154781640768051,-2.9630478418052197
1758278394686353700,151.04835375976563,-1.432500070014596,0.562452096697688,-2.921627451658249
1758278394696437500,151.0584375,-1.1918962471723555,0.4670283136844634,-2.798365229126811
1758278394706522600,151.06852270507812,-1.1435741148129104,0.407714539450407,-2.6010329772561787
1758278394716606700,151.07860668945312,-1.063952296565473,0.4904506903260946,-2.251767704164981
1758278394726690800,151.08869091796876,-1.0341334968850016,0.8429682432115078,-1.801470160529017
1758278394736775700,151.09877563476562,-1.3582713429823516,1.4853192215323447,-1.2883411899268626
1758278394746859800,151.10885986328125,-1.6934610367089509,2.291585335290432,-0.8140390858471394
1758278394756943600,151.11894360351562,-1.9876153940834105,3.1271289814591405,-0.5168424381673336
1758278394767028500,151.12902856445314,-1.9636209166422485,4.006134752735496,-0.3625508711218834
1758278394777112800,151.13911279296877,-1.802846709579229,5.073927065855265,-0.1339601421564817
1758278394787196700,151.14919677734375,-1.7052248319998382,6.164991533491016,0.2978074730545282
1758278394797281800,151.15928173828124,-1.7214274865210055,6.717030372723936,0.7597907783091068
1758278394807365600,151.16936572265624,-1.519813904069364,6.1978510160416365,1.0653478425770997
1758278394817449500,151.17944946289063,-1.0033623649157584,4.738300442016125,0.9567308159917592
1758278394827534600,151.18953466796876,-0.0909837547391653,3.175520964184403,0.2673626504302024
1758278394837618700,151.19961865234376,0.9224117822825908,1.9354162741601464,-0.7686120904073118
1758278394847702800,151.20970288085937,1.6608439846120773,0.8658131122261286,-1.9108593405306336
1758278394857786600,151.21978662109376,2.092738587203622,-0.0655517918407917,-3.032324791648984
1758278394867871700,151.2298718261719,2.331198383754492,-0.6836269915610551,-3.982450510287285
1758278394877955600,151.23995556640625,2.565155608189106,-0.7559200743556023,-4.805259762567282
1758278394888039700,151.25003979492186,2.3752806865870952,-0.1304927583068609,-5.345521654766798
1758278394898124800,151.26012475585938,1.4901637389540672,1.1096686303406953,-5.270702852886915
1758278394908208600,151.27020874023438,0.295101721227169,2.6745927189856764,-4.562093395760655
1758278394918292700,151.28029272460938,-1.0150129090905189,3.9222295580804345,-3.717437930114567
1758278394928377600,151.29037768554687,-1.623831474035233,4.264527914768457,-3.125140437990426
1758278394938461700,151.30046166992187,-1.4140676106147467,3.73249316816628,-2.320759699587524
1758278394948545800,151.3105458984375,-0.9217794757284224,2.8967969617843625,-1.4620534967571497
1758278394958631000,151.320630859375,-0.4419581698358059,2.2581103511899707,-0.865267753303051
1758278394968714800,151.33071484375,-0.0843488467693328,1.8351719391226768,-0.666719111379981
1758278394978798600,151.34079858398437,0.0560199933856725,1.5305349123090504,-0.7949127989642322
1758278394988883700,151.3508837890625,0.0458072269290685,1.3408856161564588,-0.9412864324919878
1758278394998967600,151.3609675292969,-0.0977899276226759,1.2490145571887492,-0.9286236425347626
1758278395009052000,151.37105200195313,-0.5065511996470391,0.9493646711379288,-0.709027828668803
1758278395019136800,151.38113671875,-0.97232542161718,0.4048901296794414,-0.2817345093276351
1758278395029220600,151.391220703125,-1.2280245222605763,-0.1656634404093027,0.2591352125719189
1758278395039304700,151.4013046875,-1.4701771819800138,-0.5813584572196007,0.7788906155765056
1758278395049389600,151.4113896484375,-1.649687361434102,-0.8096025647044182,1.2165770994424818
1758278395059473700,151.4214736328125,-1.9353899706751108,-0.7815227176457643,1.4630626737996937
1758278395069557800,151.43155786132812,-2.299166876460612,-0.5733692120313644,1.6993585703149436
1758278395079641600,151.4416416015625,-2.7099539552241563,-0.2864011128991842,1.987962453955412
1758278395089726700,151.45172680664064,-3.0903789212107657,-0.0893055923938751,2.42917915777415
1758278395099810600,151.461810546875,-3.4331317436680195,-0.0822264477878809,3.0176138369902965
1758278395109894700,151.47189477539064,-3.7696740210473534,-0.2889215712875128,3.774133046282828
1758278395119979500,151.4819794921875,-4.056476115962862,-0.5785679497182369,4.523895474791527
1758278395130064000,151.49206396484374,-4.46348221488297,-0.8527344349443912,5.040834359070659
1758278395140147700,151.50214770507813,-4.804910802999139,-1.039267060381174,5.209459571895003
1758278395150232800,151.51223291015626,-4.98077765751481,-1.1328712267518042,5.336618801864981
1758278395160316700,151.52231665039062,-5.049865806788206,-1.350387603995204,5.566894707438349
1758278395170400500,151.532400390625,-4.937941555351019,-1.74327691475749,5.503015232723951
1758278395180485600,151.5424855957031,-4.66741839506328,-2.149540086355805,5.226278020226955
1758278395190569700,151.55256982421875,-4.3698575902462,-2.498596100610494,4.867010700820386
1758278395200653800,151.56265380859375,-4.018715417367219,-2.713223186153173,4.425065682727098
1758278395210738700,151.57273876953124,-3.7141532093554734,-2.655773452225328,4.038918539701402
1758278395220822500,151.58282250976563,-3.264267169129848,-2.378451717838645,3.92857015927881
1758278395230906600,151.59290673828124,-2.527771926212311,-1.957204327598214,4.008611371982098
1758278395240991500,151.60299145507813,-1.4795973367542028,-1.3615601553946732,4.13231315497458
1758278395251075800,151.61307592773437,-0.2093003375619649,-0.4326952514499426,4.069323322576285
1758278395261159700,151.62315966796876,1.030907812836766,0.6420341674566269,3.7547508849427103
1758278395271243500,151.63324340820313,1.828174043059349,1.5366723921507597,3.443914711228013
1758278395281328600,151.64332861328126,1.9915929194122552,1.9038456623762845,2.822492831428349
1758278395291412500,151.65341259765626,1.6912603117942808,1.704934032359719,2.38032686406076
1758278395301496800,151.6634968261719,1.2978045993208884,1.2031541387677192,2.445610506484657
1758278395311581200,151.6735812988281,1.042004960912466,0.7813397622942924,2.868651648274064
1758278395321665300,151.6836652832031,0.7837877399682999,0.6566606587022542,3.2978093732476235
1758278395331749000,151.6937490234375,0.304885448616743,0.7031003383159637,3.45703138243258
1758278395341834200,151.70383422851563,-0.2254997772127389,0.7631558708280325,3.159474669268727
1758278395351918300,151.71391845703124,-0.7055711123436689,0.865573458251357,2.750148895229399
1758278395362002200,151.72400219726563,-1.1257874059706925,1.0010165324419735,2.3879116201013324
1758278395372087300,151.73408740234376,-1.5451391917228698,1.0153922637969257,2.0081502325899896
1758278395382171100,151.74417114257812,-1.877633947277069,0.7951677966386079,1.5479564411006868
1758278395392255200,151.75425512695313,-1.9849106651693584,0.3140747172445058,1.1232788572158665
1758278395402340000,151.76434008789062,-1.8371324255406856,-0.2359860999137163,0.8912726207185536
1758278395412424200,151.77442407226562,-1.5480489416897296,-0.6629565439760685,0.8850310959804802
1758278395422508300,151.78450830078123,-1.1922197800382972,-0.6661907035917043,1.0072928362324831
1758278395432593200,151.79459326171877,-0.7424152806162834,-0.2323994735985994,1.196776055103168
1758278395442677200,151.80467724609375,-0.3215504599526524,0.4394651839762926,1.3722133590951562
1758278395452761000,151.81476098632814,-0.012542086187005,1.1006401052325965,1.4996858927980063
1758278395462845200,151.82484521484375,0.1376712716341018,1.687411235150695,1.612533834951371
1758278395472930300,151.83493041992188,0.1306950028806924,2.180048621866107,1.6398264771550892
1758278395483014100,151.84501416015624,0.0458463898956775,2.6149983742445704,1.6405770032614468
1758278395493098200,151.85509814453124,-0.1661480090558529,2.953687892785668,1.655254347911477
1758278395503183000,151.86518310546876,-0.4185115355357527,3.1474358564287424,1.7479159727349876
1758278395513267200,151.87526708984376,-0.7429200152680278,3.128835200855136,1.8622459701396523
1758278395523351300,151.88535131835937,-0.9773493872590362,2.84161634183228,1.952993139643967
1758278395533436400,151.8954365234375,-1.0319207892715931,2.337198500952125,2.054968974649161
1758278395543520300,151.9055202636719,-1.0158569586992263,1.676884580439329,2.081793122558296
1758278395553604000,151.91560400390625,-1.0906798522323369,0.9481500346511602,1.8473799710497256
1758278395563689200,151.92568920898438,-0.8705554844476282,0.3317348770976066,1.462361393662542
1758278395573773000,151.93577294921874,-0.5170435136973858,-0.0022094927430152,1.0897180214628577
1758278395583857400,151.945857421875,-0.5702404124863445,-0.280770998057723,0.7359218269437551
1758278395593942300,151.9559423828125,-0.7469242824733257,-0.5612164174228906,0.2919227989301085
1758278395604026000,151.96602612304687,-0.9456037842344492,-0.7911679133474826,0.0317415844365954
1758278395614110200,151.97611010742187,-1.2059960841953754,-1.038532316365838,-0.2705070859357714
1758278395624195000,151.98619506835936,-1.4923171175956724,-1.2162865920633077,-0.5844210596606135
1758278395634279200,151.99627905273437,-1.7773948729366065,-1.3483908772200346,-0.9031661068037152
1758278395644363300,152.00636328125,-2.0634725991003213,-1.4236054004192351,-1.2168500711649657
1758278395654447000,152.01644702148437,-2.3221580220781264,-1.3723019141614436,-1.5343600235551595
