time,seconds_elapsed,z,y,x
1758278487813693400,244.175693359375,-1.281883716583252,-0.9969488382339478,-0.1611039638519287
1758278487823777500,244.1857775878906,-1.4851484298706057,-1.289229154586792,-0.1829847544431686
1758278487833861600,244.1958615722656,-1.543534517288208,-1.5888800621032717,-0.1480127573013305
1758278487843945500,244.2059455566406,-1.5251986980438232,-1.8379175662994385,-0.0951966941356659
1758278487854029300,244.216029296875,-1.5342423915863037,-1.9993019104003904,-0.0585961863398551
1758278487864113700,244.22611376953125,-1.6471699476242063,-2.087104082107544,-0.0664570406079292
1758278487874198500,244.2361984863281,-1.888668179512024,-2.0847976207733154,-0.1089001521468162
1758278487884282600,244.24628271484372,-2.2138564586639404,-2.0255165100097656,-0.1863573789596557
1758278487894366500,244.2563664550781,-2.5264434814453125,-1.925262212753296,-0.2905268371105194
1758278487904450300,244.2664501953125,-2.736513376235962,-1.7463122606277466,-0.3911991119384765
1758278487914534700,244.27653466796875,-2.817540168762207,-1.460282564163208,-0.4641337096691131
1758278487924618500,244.2866184082031,-2.784334659576416,-1.07981538772583,-0.4822200238704681
1758278487934702600,244.29670263671875,-2.687767505645752,-0.6978064775466919,-0.4703997373580932
1758278487944786400,244.3067863769531,-2.5738117694854736,-0.4265104830265045,-0.4545046687126159
1758278487954870500,244.31687060546875,-2.457099914550781,-0.2987866699695587,-0.4429573714733124
1758278487964954600,244.32695458984372,-2.3486945629119877,-0.3081910908222198,-0.4410095512866974
1758278487975038500,244.33703857421875,-2.2517480850219727,-0.4612649083137512,-0.4571358263492584
1758278487985122600,244.34712255859372,-2.186532020568848,-0.7472077012062073,-0.4961253106594085
1758278487995206700,244.35720654296875,-2.154013633728028,-1.145339846611023,-0.5460927486419678
1758278488005290500,244.36729052734376,-2.155323266983032,-1.6202400922775269,-0.6046751141548157
1758278488015375600,244.37737573242188,-2.199843406677246,-2.1371963024139404,-0.6562848687171936
1758278488025459500,244.38745947265625,-2.26439905166626,-2.6244115829467773,-0.6935099959373474
1758278488035543600,244.39754345703125,-2.323149442672729,-2.9835147857666016,-0.7304559946060181
1758278488045627600,244.40762768554688,-2.357508659362793,-3.158632755279541,-0.7424522042274475
1758278488055711500,244.41771142578125,-2.3681561946868896,-3.144404649734497,-0.7364411950111389
1758278488065795300,244.42779541015625,-2.389780282974243,-2.950587511062622,-0.7428943514823914
1758278488075879700,244.4378796386719,-2.455564498901367,-2.6287882328033447,-0.7956295013427734
1758278488085963500,244.4479636230469,-2.587322473526001,-2.227509021759033,-0.9295247197151184
1758278488096047600,244.45804760742183,-2.790837287902832,-1.8444477319717407,-1.1415503025054932
1758278488106131500,244.46813134765625,-3.032047748565674,-1.549739122390747,-1.400488018989563
1758278488116215600,244.47821557617183,-3.2608752250671387,-1.4198174476623535,-1.7036502361297607
1758278488126299600,244.4882995605469,-3.4144108295440674,-1.48350191116333,-2.0916049480438232
1758278488136383500,244.49838354492184,-3.474289894104004,-1.810442924499512,-2.455991744995117
1758278488146467300,244.50846728515623,-3.4739389419555664,-2.5157630443573,-2.6723170280456543
1758278488156552400,244.5185524902344,-3.4762864112854004,-3.473387718200684,-2.7408435344696045
1758278488166636500,244.52863647460936,-3.48697280883789,-4.365311145782471,-2.762717962265014
1758278488176720600,244.538720703125,-3.476388931274414,-4.924753189086914,-2.786527395248413
1758278488186804500,244.5488044433594,-3.3732922077178955,-5.115972995758057,-2.755810499191284
1758278488196888300,244.5588884277344,-3.1754887104034424,-5.026199817657471,-2.6849734783172607
1758278488206972700,244.56897265625,-2.942040205001831,-4.733748435974121,-2.623045921325684
1758278488217056500,244.5790563964844,-2.752304792404175,-4.325069904327393,-2.6115050315856934
1758278488227140400,244.58914038085936,-2.6437838077545166,-3.8117923736572266,-2.6398816108703613
1758278488237224700,244.599224609375,-2.6032729148864746,-3.1993558406829834,-2.662620782852173
1758278488247308500,244.60930859375,-2.602911710739136,-2.496504306793213,-2.6547062397003174
1758278488257392400,244.6193923339844,-2.5993781089782715,-1.758196473121643,-2.5877156257629395
1758278488267476500,244.6294765625,-2.573568820953369,-1.044045329093933,-2.453709602355957
1758278488277560600,244.639560546875,-2.53867506980896,-0.4527239799499511,-2.235931873321533
1758278488287645700,244.64964575195316,-2.4829256534576416,-0.0865412056446075,-1.9562908411026
1758278488297729500,244.6597294921875,-2.373913288116455,0.0438812635838985,-1.6338857412338257
1758278488307813400,244.6698134765625,-2.1944053173065186,0.0275403745472431,-1.3025376796722412
1758278488317897500,244.6798974609375,-1.936274766921997,-0.1479055285453796,-1.017363429069519
1758278488327981600,244.68998168945316,-1.6234837770462036,-0.4325963854789734,-0.7941993474960327
1758278488338065700,244.7000656738281,-1.27252995967865,-0.7836996912956238,-0.6286399364471436
1758278488348149500,244.7101494140625,-0.8937677145004272,-1.1417629718780518,-0.5047145485877991
1758278488358233300,244.7202333984375,-0.5166663527488708,-1.4276440143585205,-0.4060882925987243
1758278488368317700,244.73031762695317,-0.1431673616170883,-1.6153398752212524,-0.3081707954406738
1758278488378401500,244.7404016113281,0.1855901926755905,-1.6890612840652466,-0.2101852893829345
1758278488388485400,244.7504853515625,0.4186679124832153,-1.6319514513015747,-0.1110808178782463
1758278488398569500,244.7605695800781,0.5285291075706482,-1.4334036111831665,0.0184919293969869
1758278488408653300,244.7706533203125,0.5247908234596252,-1.126209020614624,0.2306396067142486
1758278488418737200,244.78073706054687,0.4797513484954834,-0.7773842811584473,0.5214499235153198
1758278488428821200,244.7908212890625,0.4735160768032074,-0.4691654741764068,0.838690996170044
1758278488438906000,244.8009060058594,0.5492411255836487,-0.2030438929796219,1.107620120048523
1758278488448990500,244.81099047851563,0.6827626824378967,0.0333175100386142,1.3283634185791016
1758278488459074300,244.82107421875,0.8455376029014587,0.253439337015152,1.5114790201187134
1758278488469158100,244.831158203125,1.0023047924041748,0.445908635854721,1.67460298538208
1758278488479242200,244.8412421875,1.1348226070404053,0.6398229002952576,1.8177165985107424
1758278488489326300,244.85132641601564,1.2288535833358765,0.8627827167510986,1.9241786003112795
1758278488499410400,244.86141040039064,1.2902661561965942,1.1246761083602903,2.0081787109375
1758278488509494300,244.8714943847656,1.3550174236297607,1.4142898321151731,2.0786678791046143
1758278488519578000,244.881578125,1.4410406351089478,1.730075478553772,2.157212972640991
1758278488529662500,244.8916623535156,1.5725772380828855,2.049422264099121,2.2625503540039062
1758278488539746300,244.9017463378906,1.7347136735916138,2.378607988357544,2.40944504737854
1758278488549830100,244.911830078125,1.9086109399795528,2.68918251991272,2.575603485107422
1758278488559914200,244.92191430664064,2.0848097801208496,2.999838352203369,2.713198184967041
1758278488569998300,244.9319982910156,2.2696664333343506,3.3099989891052246,2.817304849624634
1758278488580083500,244.94208349609372,2.4806315898895264,3.588406801223755,2.870352268218994
1758278488590167300,244.9521672363281,2.7274274826049805,3.815221786499024,2.8811848163604736
1758278488600251100,244.96225122070317,2.9908852577209477,3.960296154022217,2.828133106231689
1758278488610335200,244.9723352050781,3.247931957244873,4.032942295074463,2.713317632675171
1758278488620419300,244.98241943359372,3.483717918395996,4.076759338378906,2.58489203453064
1758278488630503200,244.9925031738281,3.6574342250823975,4.078892230987549,2.468111753463745
1758278488640587300,245.0025871582031,3.738556146621704,4.01223087310791,2.3574352264404297
1758278488650671400,245.01267138671875,3.72763729095459,3.893422365188599,2.2430574893951416
1758278488660755200,245.02275512695311,3.630358219146729,3.78591513633728,2.1038222312927246
1758278488670839300,245.03283935546875,3.480875253677368,3.722825050354004,1.9634230136871336
1758278488680923100,245.04292309570312,3.330651998519897,3.677245855331421,1.8052952289581297
1758278488691007500,245.05300756835936,3.191925525665283,3.660870552062988,1.6388673782348633
1758278488701091300,245.06309130859376,3.0726358890533447,3.623978853225708,1.45485258102417
1758278488711175200,245.0731750488281,2.9842162132263184,3.543519973754883,1.2483713626861572
1758278488721260300,245.08326025390625,2.927696466445923,3.450984477996826,1.0535517930984497
1758278488731344100,245.09334423828125,2.891510248184204,3.339294672012329,0.8603652715682983
1758278488741428500,245.10342846679688,2.867892026901245,3.1836724281311035,0.6811508536338806
1758278488751512300,245.11351220703125,2.8340988159179688,2.9804413318634038,0.514862060546875
1758278488761596200,245.12359619140625,2.7924959659576416,2.7835841178894043,0.3626143038272857
1758278488771680300,245.13368017578125,2.746943950653076,2.689473867416382,0.2431318461894989
1758278488781764400,245.1437644042969,2.690602779388428,2.6390695571899414,0.1625474393367767
1758278488791848200,245.15384814453125,2.6199817657470703,2.4977893829345703,0.1017514690756797
1758278488801932300,245.1639323730469,2.536912202835083,2.3031997680664062,0.0655220076441764
1758278488812016000,245.17401611328123,2.4396791458129883,2.103196859359741,0.0653148144483566
1758278488822100200,245.1841003417969,2.3152318000793457,1.8602094650268557,0.0779038965702056
1758278488832184300,245.19418432617184,2.178312301635742,1.616005539894104,0.0877964720129966
1758278488842268200,245.20426806640623,2.0390799045562744,1.3631740808486938,0.1004673987627029
1758278488852352300,245.21435229492187,1.9005731344223025,1.1323550939559937,0.1047055497765541
1758278488862436400,245.22443627929687,1.7554330825805664,0.9108752608299256,0.0976293236017227
1758278488872521200,245.2345212402344,1.5889729261398315,0.7256742715835571,0.0892073363065719
1758278488882605300,245.2446052246094,1.4133297204971311,0.5952731370925903,0.0793503299355506
1758278488892689200,245.2546892089844,1.2410907745361328,0.5139737725257874,0.083648145198822
1758278488902773500,245.2647734375,1.0916566848754885,0.4861117303371429,0.0936401709914207
1758278488912857300,245.274857421875,0.9519493579864502,0.4621919989585876,0.1270442008972168
1758278488922941200,245.28494116210936,0.8002863526344299,0.4179805517196655,0.1819896399974823
1758278488933025300,245.295025390625,0.6153317093849182,0.3175402283668518,0.2356557995080948
1758278488943109400,245.305109375,0.3742158710956573,0.1361233592033386,0.2853900194168091
1758278488953193200,245.3151931152344,0.0394906066358089,-0.1257860213518142,0.2794543504714966
1758278488963277300,245.32527734375,-0.4011421203613281,-0.4348416924476623,0.2054817229509353
1758278488973361200,245.3353610839844,-0.9098732471466064,-0.7550090551376343,0.1202536523342132
1758278488983445200,245.3454453125,-1.3826898336410522,-1.0361477136611938,0.0794031396508216
1758278488993529300,245.355529296875,-1.7250179052352903,-1.2730449438095093,0.0685598105192184
1758278489003613200,245.36561328125,-1.8838549852371216,-1.4952994585037231,0.0854294076561927
1758278489013698300,245.3756982421875,-1.9036427736282349,-1.7084423303604126,0.104118138551712
1758278489023782100,245.3857822265625,-1.9108729362487795,-1.901953935623169,0.0962742790579795
1758278489033866200,245.3958662109375,-1.99166202545166,-2.007420301437378,0.0345483347773551
1758278489043950300,245.40595043945316,-2.144794464111328,-1.951087594032288,-0.0563912838697433
1758278489054034200,245.4160341796875,-2.305449962615967,-1.7282291650772097,-0.1164426431059837
1758278489064118300,245.4261181640625,-2.423791646957397,-1.3641504049301147,-0.1403955221176147
1758278489074202400,245.4362023925781,-2.468880653381348,-0.9321472644805908,-0.1253987252712249
1758278489084286200,245.4462861328125,-2.455878734588623,-0.541555643081665,-0.0826338678598404
1758278489094370300,245.4563703613281,-2.4289889335632324,-0.255433589220047,-0.0349560901522636
1758278489104454400,245.4664543457031,-2.419447183609009,-0.0743544027209281,0.0046553136780858
1758278489114538200,245.4765383300781,-2.4120867252349854,0.0159368775784969,0.0221099369227886
1758278489124622300,245.48662231445311,-2.39766788482666,-0.0070633492432534,0.0015619134064763
1758278489134706200,245.4967060546875,-2.3820576667785645,-0.1555979549884796,-0.0438907891511917
1758278489144790300,245.50679028320312,-2.372527837753296,-0.4416492581367492,-0.1068896353244781
1758278489154875400,245.51687548828124,-2.375180721282959,-0.854938268661499,-0.1729741096496582
1758278489164959200,245.52695922851564,-2.3845090866088867,-1.3352431058883667,-0.2283751815557479
1758278489175043300,245.53704321289064,-2.409184217453003,-1.8632571697235107,-0.2785533964633941
1758278489185127200,245.54712719726564,-2.4351511001586914,-2.403873443603516,-0.3395511507987976
1758278489195211300,245.55721118164064,-2.449051856994629,-2.915924072265625,-0.4169322252273559
1758278489205295400,245.56729541015625,-2.4307539463043213,-3.3686840534210205,-0.4959871768951416
1758278489215379200,245.5773791503906,-2.369401454925537,-3.736928224563599,-0.5578864812850952
1758278489225463300,245.58746337890625,-2.2606709003448486,-3.985879421234131,-0.6288031339645386
1758278489235547400,245.59754736328125,-2.121345996856689,-4.125211238861084,-0.718212366104126
1758278489245631200,245.60763134765625,-1.9699172973632808,-4.182873249053955,-0.8391972184181213
1758278489255715300,245.61771533203125,-1.837293028831482,-4.187347888946533,-0.9996132254600524
1758278489265799200,245.6277990722656,-1.7407572269439695,-4.145745277404785,-1.1902018785476685
1758278489275883300,245.63788330078123,-1.6862061023712158,-4.086798191070557,-1.4051653146743774
1758278489285967400,245.64796728515623,-1.6598591804504397,-4.046131134033203,-1.654599905014038
1758278489296052200,245.65805224609372,-1.6582908630371094,-4.064313411712647,-1.958919644355774
1758278489306136300,245.66813623046875,-1.653687596321106,-4.162998676300049,-2.311005115509033
1758278489316220200,245.67822021484372,-1.6397666931152344,-4.344455718994141,-2.645142078399658
1758278489326304300,245.68830419921875,-1.6483795642852783,-4.625259399414063,-2.8934476375579834
1758278489336388400,245.6983884277344,-1.7001575231552124,-4.958329677581787,-3.065624237060547
1758278489346472200,245.70847216796875,-1.8053327798843384,-5.276177406311035,-3.2037875652313232
1758278489356556300,245.7185563964844,-1.90839421749115,-5.488105297088623,-3.2462990283966064
1758278489366640400,245.7286403808594,-1.9520976543426516,-5.547142028808594,-3.2010035514831543
1758278489376724200,245.73872412109372,-1.885545253753662,-5.430273532867432,-3.084836959838867
1758278489386808000,245.74880810546875,-1.718610405921936,-5.105852127075195,-2.939215421676636
1758278489396892400,245.7588923339844,-1.5134588479995728,-4.58034086227417,-2.8029348850250244
1758278489406976800,245.76897680664064,-1.33364737033844,-3.9010961055755615,-2.708003282546997
1758278489417060600,245.779060546875,-1.2261962890625,-3.09489107131958,-2.6588943004608154
1758278489427144700,245.78914477539064,-1.17466139793396,-2.196675062179565,-2.6133053302764893
1758278489437228800,245.7992287597656,-1.1389198303222656,-1.279705286026001,-2.5340139865875244
1758278489447313700,245.80931372070316,-1.0819796323776243,-0.4277871251106262,-2.400132894515991
1758278489457397800,245.81939770507813,-1.0299867391586304,0.3136462271213531,-2.197726964950561
1758278489467481600,245.82948168945316,-1.0197077989578247,0.9324442744255066,-1.928774118423462
1758278489477565700,245.83956567382813,-1.050154447555542,1.425549030303955,-1.6145975589752195
1758278489487649800,245.8496499023437,-1.0729345083236694,1.7958500385284424,-1.279981017112732
1758278489497733600,245.8597336425781,-1.0535852909088137,2.006122589111328,-0.954648733139038
1758278489507817700,245.86981762695316,-0.969614326953888,2.0408265590667725,-0.6452696919441223
1758278489517901600,245.8799016113281,-0.8210216760635376,1.908001184463501,-0.3572845160961151
1758278489527985700,245.88998559570317,-0.6148139238357544,1.6266309022903442,-0.0985785275697708
1758278489538069800,245.90006982421875,-0.3800637722015381,1.2498185634613037,0.1416865438222885
1758278489548153600,245.9101535644531,-0.1385601758956909,0.8464174270629883,0.3532730042934418
1758278489558237700,245.92023779296875,0.0705509632825851,0.453008085489273,0.5400540828704834
1758278489568321800,245.93032177734372,0.23216412961483,0.0851235166192054,0.7124502658843994
1758278489578405600,245.9404055175781,0.3274762630462646,-0.2583954930305481,0.8652837872505188
1758278489588489700,245.95048974609372,0.3511490523815155,-0.5712065696716309,0.9864862561225892
1758278489598574600,245.96057470703124,0.324101984500885,-0.8389434814453125,1.0931384563446045
1758278489608658700,245.97065869140624,0.2866541445255279,-1.0331761837005615,1.1971262693405151
1758278489618742800,245.98074267578124,0.2714325785636902,-1.1358200311660769,1.3220887184143066
1758278489628826600,245.99082666015624,0.2926689684391022,-1.1096751689910889,1.4597854614257812
1758278489638910700,246.00091064453125,0.3535450994968414,-0.9281440377235411,1.6160163879394531
1758278489648994600,246.01099462890625,0.4439679980278015,-0.564138650894165,1.783525466918945
1758278489659078700,246.02107861328125,0.5511122941970825,-0.0497240982949733,1.969296097755432
1758278489669162800,246.03116284179688,0.6540663838386536,0.5335613489151001,2.1612439155578613
1758278489679246600,246.04124658203125,0.756020188331604,1.152210712432861,2.3495354652404785
1758278489689330700,246.05133056640625,0.8599488139152527,1.8049793243408203,2.534147024154663
1758278489699414800,246.0614147949219,0.9843688011169434,2.448707103729248,2.707262754440308
1758278489709498600,246.07149853515625,1.1336115598678589,3.0898823738098145,2.862086772918701
1758278489719582700,246.08158276367183,1.323002576828003,3.7221713066101074,2.971884489059448
1758278489729666800,246.0916667480469,1.5210602283477783,4.360766887664795,3.0492639541625977
1758278489739750700,246.10175073242183,1.7153067588806152,4.972194194793701,3.06937837600708
1758278489749835800,246.11183569335935,1.8908361196517944,5.485116481781006,3.042285442352295
1758278489759919600,246.1219196777344,2.054617166519165,5.866775989532471,2.966925621032715
1758278489770003700,246.13200366210935,2.203754186630249,6.109315872192383,2.836665153503418
1758278489780087800,246.142087890625,2.342605829238892,6.231050968170166,2.648440361022949
1758278489790171600,246.15217163085936,2.463838815689087,6.224916934967041,2.3826589584350586
1758278489800255700,246.162255859375,2.545269250869751,6.182875633239746,2.006275177001953
1758278489810339600,246.1723395996094,2.602047681808472,6.427933216094971,1.5752854347229004
1758278489820423700,246.1824235839844,2.657656669616699,6.85195255279541,1.2289326190948486
1758278489830507800,246.1925078125,2.660329341888428,7.22711181640625,0.9503824710845948
1758278489840591600,246.2025915527344,2.556324005126953,7.50771427154541,0.6567327380180359
1758278489850675500,246.21267553710936,2.3795835971832275,7.55988883972168,0.3816786706447601
1758278489860759800,246.222759765625,2.2016196250915527,7.353969097137451,0.1464573591947555
1758278489870843600,246.23284375,2.07930850982666,6.876466751098633,-0.0454259403049945
1758278489880927700,246.242927734375,2.032294988632202,6.141804218292236,-0.2182315289974212
1758278489891012600,246.2530126953125,2.040440082550049,5.1548614501953125,-0.4157231450080871
1758278489901096700,246.2630966796875,2.0796868801116943,4.023165225982666,-0.604103147983551
1758278489911180800,246.27318090820316,2.1480226516723637,2.8381361961364746,-0.7816962003707886
1758278489921264600,246.2832646484375,2.211548089981079,1.6764799356460571,-0.9904728531837464
1758278489931348700,246.2933486328125,2.2513949871063232,0.6951608657836914,-1.2336742877960205
1758278489941432800,246.30343286132813,2.2886245250701904,-0.0008503668941557,-1.4781657457351685
1758278489951516700,246.3135166015625,2.347576141357422,-0.4935516715049743,-1.6692944765090942
1758278489961600800,246.3236008300781,2.411538600921631,-0.913186490535736,-1.7622872591018677
1758278489971684600,246.3336845703125,2.494236707687378,-1.2824634313583374,-1.7440152168273926
1758278489981768700,246.3437687988281,2.563493490219116,-1.6139538288116455,-1.6388171911239624
1758278489991852800,246.35385278320317,2.5638606548309326,-1.9209380149841309,-1.4721742868423462
1758278490001936600,246.3639365234375,2.4524402618408203,-2.142942428588867,-1.269874930381775
1758278490012020500,246.3740205078125,2.2522013187408447,-2.213944435119629,-1.0309566259384155
1758278490022104800,246.3841047363281,2.0093424320220947,-2.0771684646606445,-0.7858400940895081
1758278490032188700,246.3941887207031,1.7652570009231567,-1.7935569286346436,-0.5476160049438477
1758278490042272800,246.4042727050781,1.5026826858520508,-1.4643287658691406,-0.3369085788726806
1758278490052357600,246.41435766601563,1.1943622827529907,-1.1635106801986694,-0.1477340310811996
1758278490062441500,246.42444140625,0.8202584385871887,-0.9087997674942015,0.0435248762369155
1758278490072525800,246.43452587890624,0.3819895088672638,-0.6693174839019775,0.2053664028644561
1758278490082609700,246.44460961914064,-0.0756486132740974,-0.4771938621997833,0.3033158779144287
1758278490092693800,246.45469384765624,-0.4836950898170471,-0.3547683358192444,0.3576194643974304
1758278490102777600,246.46477758789064,-0.8003625273704529,-0.2972837388515472,0.3670198619365692
1758278490112861700,246.47486181640625,-1.009636640548706,-0.2891863286495209,0.3291136026382446
1758278490122945800,246.48494580078125,-1.121112585067749,-0.3438921868801117,0.2838864624500274
1758278490133029600,246.4950295410156,-1.1544599533081057,-0.4780742824077606,0.2507505416870117
1758278490143113700,246.50511376953125,-1.172727346420288,-0.6798782348632812,0.2452793419361114
1758278490153197800,246.51519775390625,-1.2330679893493652,-0.9136926531791688,0.2537724077701568
1758278490163281700,246.52528173828125,-1.3685975074768066,-1.1245604753494265,0.241668090224266
1758278490173365500,246.5353654785156,-1.5797237157821655,-1.2652603387832642,0.1939384192228317
1758278490183449900,246.54544995117183,-1.8103293180465696,-1.3084776401519775,0.1447911113500595
1758278490193534700,246.55553466796877,-1.9885914325714111,-1.2451200485229492,0.1066286489367485
1758278490203618800,246.5656188964844,-2.0848281383514404,-1.11764395236969,0.0854834169149398
1758278490213702700,246.57570263671877,-2.101001262664795,-0.9924268126487732,0.0725459977984428
1758278490223786500,246.58578637695317,-2.073878765106201,-0.8963349461555481,0.064279019832611
1758278490233870800,246.59587084960935,-2.029080629348755,-0.8373404145240784,0.0302142724394798
1758278490243954700,246.60595458984372,-1.9592010974884035,-0.830788791179657,-0.0479697436094284
1758278490254038500,246.61603857421875,-1.8821508884429927,-0.8778437972068787,-0.1624137014150619
1758278490264122600,246.62612255859372,-1.831657886505127,-1.00313138961792,-0.2802921533584595
1758278490274206700,246.6362067871094,-1.843959927558899,-1.2543895244598389,-0.3947380483150482
1758278490284290800,246.6462907714844,-1.9312444925308228,-1.6017704010009766,-0.5013459920883179
1758278490294374700,246.6563747558594,-2.081547737121582,-2.0104734897613525,-0.5810931921005249
1758278490304458500,246.66645849609372,-2.2432949542999268,-2.3904130458831787,-0.6386270523071289
1758278490314542800,246.67654296875,-2.367804288864136,-2.7011756896972656,-0.685107409954071
1758278490324626700,246.6866267089844,-2.418750524520874,-2.9478001594543457,-0.7188366055488586
1758278490334710500,246.6967104492188,-2.3794736862182617,-3.1086227893829346,-0.7553077936172485
1758278490344794600,246.7067946777344,-2.274217128753662,-3.1611578464508057,-0.7852275967597961
1758278490354879700,246.71687963867188,-2.1404356956481934,-3.1274402141571045,-0.8122724294662476
1758278490364963800,246.7269638671875,-2.017254590988159,-3.051880359649658,-0.8346728086471558
1758278490375047700,246.73704760742189,-1.927109718322754,-2.94632339477539,-0.8677260875701904
1758278490385131500,246.7471315917969,-1.8888417482376096,-2.833528518676758,-0.9143681526184082
1758278490395216000,246.7572158203125,-1.8872063159942627,-2.7183942794799805,-0.9736329317092896
1758278490405299700,246.7672998046875,-1.896376132965088,-2.6199634075164795,-1.056196212768555
1758278490415383600,246.77738354492183,-1.8937309980392456,-2.574212074279785,-1.1467547416687012
1758278490425467400,246.78746728515625,-1.8611807823181152,-2.604799747467041,-1.266466498374939
1758278490435551700,246.7975517578125,-1.8034698963165283,-2.7182657718658447,-1.43688702583313
1758278490445635600,246.8076354980469,-1.7262781858444214,-2.89526915550232,-1.6507282257080078
1758278490455719400,246.81771948242184,-1.647141695022583,-3.160393238067627,-1.8778855800628664
1758278490465803500,246.8278034667969,-1.5820633172988892,-3.485856771469116,-2.0826215744018555
1758278490475887600,246.8378876953125,-1.5626319646835327,-3.8360280990600586,-2.2470991611480717
1758278490485971500,246.84797143554687,-1.6179641485214231,-4.181066513061523,-2.380895137786865
1758278490496056600,246.858056640625,-1.7525159120559692,-4.4649505615234375,-2.475227117538452
1758278490506140400,246.8681403808594,-1.9384852647781368,-4.630691051483154,-2.517427682876587
1758278490516224500,246.878224609375,-2.110149621963501,-4.67258358001709,-2.498586416244507
1758278490526308600,246.88830859375,-2.2027902603149414,-4.599536418914795,-2.414233684539795
1758278490536392400,246.8983923339844,-2.180260181427002,-4.403172969818115,-2.277841329574585
1758278490546476500,246.9084765625,-2.067909002304077,-4.0533318519592285,-2.12850284576416
1758278490556560600,246.918560546875,-1.926137089729309,-3.5546083450317383,-1.9926795959472656
1758278490566644700,246.92864477539064,-1.794642686843872,-2.9222068786621094,-1.8907772302627563
1758278490576728600,246.938728515625,-1.6664239168167114,-2.1250171661376958,-1.8222182989120483
1758278490586812400,246.9488125,-1.4947240352630615,-1.2557897567749023,-1.7621020078659058
1758278490596896800,246.9588967285156,-1.298606038093567,-0.4833374321460724,-1.6649174690246582
1758278490606980600,246.9689807128906,-1.1361665725708008,0.1153123974800109,-1.5221102237701416
1758278490617064400,246.979064453125,-1.0151666402816772,0.5451579689979553,-1.3217309713363647
1758278490627148500,246.9891484375,-0.9077186584472656,0.8762051463127136,-1.0821253061294556
1758278490637232600,246.9992326660156,-0.7949569821357727,1.1578441858291626,-0.8431435823440552
1758278490647316500,247.00931640625,-0.6539484858512878,1.377877712249756,-0.6145296096801758
1758278490657401600,247.0194016113281,-0.4810725152492523,1.5016192197799685,-0.3984958827495575
1758278490667485400,247.0294853515625,-0.2894567549228668,1.5296984910964966,-0.184878408908844
1758278490677569500,247.0395695800781,-0.085015557706356,1.4910496473312378,0.0152067933231592
1758278490687653600,247.04965356445317,0.116782009601593,1.3777410984039309,0.2033444792032241
1758278490697737500,247.0597375488281,0.2938452064990997,1.1863619089126587,0.3932420313358307
1758278490707821600,247.0698215332031,0.4477346539497375,0.9399883151054382,0.5883172154426575
1758278490717905400,247.0799055175781,0.561911940574646,0.6626209616661072,0.7591962814331055
1758278490727989800,247.08998974609372,0.6295517086982727,0.3934467732906341,0.9027438759803772
1758278490738073600,247.1000734863281,0.6576381921768188,0.1885487735271453,1.030663013458252
1758278490748157400,247.11015747070311,0.6724154949188232,0.0730011463165283,1.1529662609100342
1758278490758241500,247.1202414550781,0.7091550827026367,0.0533476844429969,1.2713648080825806
1758278490768325600,247.13032568359372,0.7751868367195129,0.1309846937656402,1.382145881652832
1758278490778409500,247.1404094238281,0.8587813973426819,0.3194103240966797,1.4876432418823242
1758278490788493600,247.15049365234376,0.9519294500350952,0.6036524176597595,1.589664101600647
1758278490798577700,247.1605776367188,1.057077169418335,0.9778149724006652,1.6853740215301514
1758278490808662500,247.17066259765625,1.1911683082580566,1.413280725479126,1.7793532609939575
1758278490818746600,247.18074658203125,1.369714617729187,1.885318636894226,1.8837196826934812
1758278490828830500,247.19083056640625,1.596703052520752,2.361223697662353,1.9986473321914675
1758278490838914600,247.20091455078125,1.8407167196273804,2.818152666091919,2.095372200012207
1758278490848998700,247.21099853515625,2.0813558101654053,3.2366089820861816,2.162290573120117
1758278490859082500,247.22108251953125,2.287096738815308,3.561661720275879,2.192880392074585
1758278490869166600,247.23116650390625,2.443354606628418,3.786683797836304,2.190937757492065
1758278490879250400,247.24125048828125,2.5622148513793945,3.9217824935913086,2.1611337661743164
1758278490889334800,247.2513347167969,2.6425576210021973,3.973332166671753,2.111804962158203
1758278490899418600,247.26141870117183,2.690035104751587,3.9474380016326895,2.027681589126587
1758278490909502500,247.27150244140623,2.7142443656921387,3.8855621814727774,1.9266278743743896
1758278490919586600,247.28158666992184,2.727607011795044,3.820581197738648,1.818980693817139
1758278490929670700,247.2916706542969,2.743494272232056,3.7299954891204834,1.7001019716262815
1758278490939754500,247.3017543945313,2.776374578475952,3.631995916366577,1.5866261720657349
1758278490949838600,247.31183862304687,2.8164641857147217,3.539300441741944,1.4780845642089844
1758278490959922400,247.3219223632813,2.842710494995117,3.4590518474578857,1.3607375621795654
1758278490970006500,247.33200659179687,2.847357988357544,3.398738384246826,1.2295851707458496
1758278490980091600,247.3420915527344,2.82883882522583,3.3300371170043945,1.0814403295516968
1758278490990175500,247.3521755371094,2.793054342269897,3.2334423065185547,0.9226550459861756
1758278491000259600,247.3622595214844,2.737857818603516,3.1158876419067383,0.7649886012077332
1758278491010343400,247.37234350585936,2.6741957664489746,2.972029447555542,0.6025914549827576
1758278491020427500,247.3824274902344,2.6075844764709477,2.806717872619629,0.443889707326889
1758278491030511600,247.39251171875,2.553186655044556,2.6083648204803467,0.2935569286346435
1758278491040595500,247.4025954589844,2.512778043746948,2.4132497310638428,0.15387824177742
1758278491050679600,247.41267944335937,2.485836982727051,2.2263143062591557,0.0297578871250152
1758278491060763600,247.422763671875,2.458866834640503,2.0778234004974365,-0.0854905694723129
1758278491070847500,247.43284741210937,2.429177761077881,1.9217424392700195,-0.1803409159183502
1758278491080931600,247.442931640625,2.38541030883789,1.7568564414978027,-0.2518799006938934
1758278491091015700,247.453015625,2.3392527103424072,1.5755060911178589,-0.2939557135105133
1758278491101099500,247.463099609375,2.2862706184387207,1.3024160861968994,-0.316955029964447
1758278491111183600,247.47318359375,2.253864526748657,0.9838392734527588,-0.3236086964607239
1758278491121267500,247.4832673339844,2.252693653106689,0.6786957383155823,-0.2923557460308075
1758278491131352600,247.4933525390625,2.257814884185791,0.451167494058609,-0.2370733171701431
1758278491141436700,247.5034367675781,2.2299253940582275,0.2926704585552215,-0.181218534708023
1758278491151520500,247.5135205078125,2.136411190032959,0.157447412610054,-0.1416026651859283
1758278491161604600,247.5236044921875,1.9825124740600584,0.0328875631093978,-0.1345711201429367
1758278491171688400,247.5336884765625,1.7915345430374146,-0.0406132861971855,-0.1525256186723709
1758278491181772500,247.5437724609375,1.6124247312545776,-0.0183759424835443,-0.1364900022745132
1758278491191856600,247.5538566894531,1.4482001066207886,0.0941101238131523,-0.0949689224362373
1758278491201940500,247.5639404296875,1.2448779344558716,0.2319675534963607,-0.0999368503689765
1758278491212024600,247.57402465820311,0.9650591015815736,0.3151761591434479,-0.1395622938871383
1758278491222108700,247.5841086425781,0.5934916138648987,0.3189460039138794,-0.1652304232120514
1758278491232192500,247.59419262695312,0.1665205955505371,0.2483692914247512,-0.1350405663251876
1758278491242276600,247.6042766113281,-0.2612438499927521,0.0918769687414169,-0.0590431690216064
1758278491252360700,247.61436059570312,-0.637192964553833,-0.1446170657873153,0.0279788151383399
1758278491262444500,247.6244445800781,-0.9345170855522156,-0.4273009598255157,0.0826444923877716
1758278491272528600,247.63452856445312,-1.1290873289108276,-0.6974155306816101,0.0920031070709228
1758278491282613500,247.64461352539064,-1.227508306503296,-0.8957924842834473,0.0738063752651214
1758278491292697600,247.6546975097656,-1.2803997993469238,-1.0111109018325806,0.0603550150990486
1758278491302781700,247.66478173828125,-1.3475837707519531,-1.0788675546646118,0.0636985749006271
1758278491312865500,247.6748654785156,-1.4799047708511353,-1.1207106113433838,0.0655217766761779
1758278491322949600,247.68494970703125,-1.695570707321167,-1.1372029781341553,0.0399997942149639
1758278491333033500,247.6950334472656,-1.9630101919174197,-1.1244230270385742,-0.0221128482371568
1758278491343117600,247.70511767578125,-2.211857318878174,-1.0185438394546509,-0.0996894165873527
1758278491353201700,247.71520166015625,-2.3796281814575195,-0.8221157193183899,-0.1494625806808471
1758278491363285500,247.72528540039065,-2.443986177444458,-0.5543009638786316,-0.1429990530014038
1758278491373369300,247.7353693847656,-2.4227864742279053,-0.2697938978672027,-0.1003485321998596
1758278491383453700,247.74545361328128,-2.355289936065674,-0.0174819547683,-0.0439995527267456
1758278491393537500,247.75553759765623,-2.2861125469207764,0.1591202467679977,0.0106751453131437
1758278491403622100,247.7656220703125,-2.231665849685669,0.2140339165925979,0.042880892753601
1758278491413706000,247.7757060546875,-2.200002908706665,0.1856499463319778,0.04140230640769
1758278491423790300,247.7857902832031,-2.1956865787506104,0.0683363676071167,0.0107466578483581
1758278491433874200,247.7958742675781,-2.209318161010742,-0.1565137803554535,-0.0553537979722023
1758278491443958000,247.8059580078125,-2.250055313110352,-0.4650760889053345,-0.1279092580080032
1758278491454043100,247.81604321289063,-2.309321165084839,-0.8490282893180847,-0.1957215964794159
1758278491464127000,247.826126953125,-2.395270824432373,-1.2493568658828735,-0.2345368564128875
1758278491474211300,247.83621142578124,-2.478127956390381,-1.6236990690231323,-0.2459743320941925
1758278491484295200,247.84629516601564,-2.542635679244995,-1.939049243927002,-0.2293336242437362
1758278491494379000,247.85637890625,-2.5761330127716064,-2.1552209854125977,-0.1892365366220474
1758278491504463000,247.86646313476564,-2.5776498317718506,-2.277231216430664,-0.1557551622390747
1758278491514547200,247.87654711914064,-2.576263427734375,-2.339078664779663,-0.159146174788475
1758278491524631300,247.88663134765625,-2.574384927749634,-2.368044376373291,-0.2101464420557022
1758278491534715100,247.8967150878906,-2.569388628005981,-2.375352382659912,-0.2986912131309509
1758278491544799000,247.9067990722656,-2.5730581283569336,-2.357248306274414,-0.4237069189548492
1758278491554883300,247.91688330078125,-2.5663349628448486,-2.3567233085632324,-0.5684062838554382
1758278491564967200,247.92696728515625,-2.542165517807007,-2.3976783752441406,-0.727330207824707
1758278491575051000,247.93705102539064,-2.492034673690796,-2.491461992263794,-0.8901760578155518
1758278491585135000,247.9471350097656,-2.428163528442383,-2.651769161224365,-1.05271315574646
1758278491595219200,247.95721923828123,-2.354444980621338,-2.8683879375457764,-1.212164282798767
1758278491605303000,247.9673029785156,-2.313822031021118,-3.1065874099731445,-1.354290246963501
1758278491615388200,247.97738818359372,-2.339284896850586,-3.278446912765503,-1.4666931629180908
1758278491625472000,247.9874719238281,-2.435980319976806,-3.394160270690918,-1.575514316558838
1758278491635556000,247.99755615234372,-2.55687952041626,-3.427241563796997,-1.6459470987319946
1758278491645640200,248.00764013671875,-2.643688201904297,-3.369428396224976,-1.6771506071090698
1758278491655724000,248.01772412109372,-2.6690673828125,-3.2267894744873047,-1.6792374849319458
1758278491665808100,248.02780810546875,-2.617276906967163,-3.0032732486724854,-1.6671477556228638
1758278491675892200,248.0378923339844,-2.500258445739746,-2.722728967666626,-1.637231707572937
1758278491685976000,248.04797607421875,-2.3542768955230717,-2.3870346546173096,-1.6047574281692505
1758278491696060200,248.05806005859372,-2.191203594207764,-1.985806941986084,-1.5580698251724243
1758278491706144000,248.06814404296875,-2.030952453613281,-1.5634794235229492,-1.5061253309249878
1758278491716228400,248.0782282714844,-1.8731333017349243,-1.1096054315567017,-1.4263527393341064
1758278491726312200,248.08831225585936,-1.7024555206298828,-0.6768240332603455,-1.3264249563217163
1758278491736396000,248.09839599609376,-1.5339176654815674,-0.324954092502594,-1.195394515991211
1758278491746480000,248.10848022460937,-1.3571879863739014,-0.0485728979110717,-1.041982650756836
1758278491756564200,248.1185642089844,-1.18148934841156,0.1630589216947555,-0.8749531507492065
1758278491766649300,248.1286494140625,-0.9917529821395874,0.3444302678108215,-0.693413496017456
1758278491776733200,248.1387331542969,-0.7582230567932129,0.4774034917354584,-0.522095799446106
1758278491786817000,248.1488171386719,-0.4792014062404632,0.5438153147697449,-0.3582334518432617
1758278491796901000,248.1589011230469,-0.1946002840995788,0.517120361328125,-0.2035339176654815
1758278491806985200,248.16898510742183,0.0613667778670787,0.3993222415447235,-0.0647856816649437
1758278491817069000,248.1790690917969,0.2484929859638214,0.227384328842163,0.0725159794092178
1758278491827153200,248.18915307617183,0.3609445989131927,0.0427509844303131,0.1978227496147155
1758278491837237000,248.1992370605469,0.425818383693695,-0.0976844206452369,0.3396438062191009
1758278491847321000,248.20932104492184,0.4604132175445556,-0.168042853474617,0.4691654145717621
1758278491857405200,248.2194052734375,0.4838405251502991,-0.1770909428596496,0.5607033371925354
1758278491867489000,248.22948901367187,0.5219595432281494,-0.153151586651802,0.6436547040939331
1758278491877573400,248.2395734863281,0.6049532294273376,-0.0941939800977706,0.7399375438690186
1758278491887657200,248.2496572265625,0.7340062260627747,0.0247307978570461,0.8303256034851074
1758278491897741000,248.25974096679687,0.8801948428153992,0.2148733139038086,0.910674512386322
1758278491907825200,248.2698251953125,1.0175482034683228,0.4711262881755829,0.9777026176452636
1758278491917909200,248.2799091796875,1.1360418796539309,0.7678495049476624,1.0460060834884644
1758278491927994400,248.28999438476563,1.2488195896148682,1.1228011846542358,1.1288249492645264
1758278491938078200,248.300078125,1.3817520141601562,1.5472512245178225,1.2218888998031616
1758278491948162000,248.310162109375,1.547135829925537,2.059007406234741,1.3179746866226196
1758278491958246100,248.32024609375,1.76592755317688,2.657005548477173,1.4178768396377563
1758278491968330200,248.33033032226564,2.042915344238281,3.258472442626953,1.4929372072219849
1758278491978414000,248.3404140625,2.361985683441162,3.831934928894043,1.5264009237289429
1758278491988498200,248.3504982910156,2.7053205966949463,4.370411396026611,1.546107292175293
1758278491998582000,248.36058203125,3.0273778438568115,4.821721076965332,1.5577876567840576
1758278492008666000,248.370666015625,3.310032606124878,5.179751396179199,1.5589666366577148
1758278492018750200,248.3807502441406,3.523885726928711,5.455855846405029,1.546987533569336
1758278492028834000,248.390833984375,3.6481337547302246,5.680731773376465,1.5180000066757202
1758278492038918100,248.40091821289064,3.654407739639282,5.7919793128967285,1.5023212432861328
1758278492049002200,248.4110021972656,3.515712261199951,5.720064163208008,1.494636058807373
1758278492059086000,248.42108618164065,3.2311792373657227,5.417220592498779,1.4549602270126345
1758278492069170200,248.4311701660156,2.8817834854125977,4.927000999450684,1.3806195259094238
1758278492079254300,248.44125415039065,2.57490611076355,4.310786247253418,1.2868330478668213
1758278492089338000,248.4513381347656,2.336698055267334,3.667877674102783,1.1771923303604126
1758278492099423200,248.46142333984372,2.1585395336151123,3.1198229789733887,1.0281658172607422
1758278492109507000,248.4715070800781,2.027733325958252,2.74360728263855,0.8467057943344116
1758278492119591200,248.4815910644531,1.923944115638733,2.519308090209961,0.6626254320144653
1758278492129675300,248.49167529296875,1.852811336517334,2.4120097160339355,0.4808792173862457
1758278492139759000,248.50175903320311,1.8195585012435915,2.32036566734314,0.3220120668411255
1758278492149843200,248.51184326171875,1.840010643005371,2.184969663619995,0.1758664399385452
1758278492159927000,248.52192700195312,1.9312719106674197,1.959314227104187,0.0360837876796722
1758278492170011100,248.53201123046875,2.0786921977996826,1.6660078763961792,-0.0888388603925705
1758278492180095200,248.54209521484376,2.2614645957946777,1.3070534467697144,-0.1822172701358795
1758278492190179000,248.5521789550781,2.465542316436768,0.8930400609970093,-0.2387747168540954
1758278492200263200,248.56226318359376,2.6413466930389404,0.4049082398414612,-0.2615197002887726
1758278492210347300,248.5723471679688,2.7497291564941406,-0.098261684179306,-0.2711942493915558
1758278492220431000,248.58243115234376,2.7372536659240723,-0.5016743540763855,-0.2819419801235199
1758278492230515200,248.5925151367188,2.611305952072144,-0.6620783805847168,-0.3251673877239227
1758278492240599000,248.60259912109376,2.4039106369018555,-0.6368683576583862,-0.3837082087993622
1758278492250683100,248.6126831054688,2.1665258407592773,-0.4999431669712066,-0.415762186050415
1758278492260768300,248.6227683105469,1.9306919574737549,-0.2064915597438812,-0.3782100081443786
1758278492270852000,248.63285205078125,1.7227970361709597,0.1480904072523117,-0.2779047191143036
1758278492280936200,248.6429362792969,1.535359263420105,0.5482040047645569,-0.1961036175489425
1758278492291020000,248.65302001953123,1.3309346437454224,1.062287211418152,-0.175354391336441
1758278492301104000,248.6631042480469,1.1180663108825684,1.6716506481170654,-0.2034704536199569
1758278492311188200,248.67318823242184,0.9263777136802672,2.302733898162842,-0.2149866670370102
1758278492321272000,248.68327197265623,0.7425567507743835,2.834775686264038,-0.1580589413642883
1758278492331356200,248.69335620117187,0.5241817831993103,3.225599765777588,-0.0775091350078582
1758278492341440300,248.70344018554687,0.2479124218225479,3.450009822845459,-0.0197371821850538
1758278492351524000,248.71352416992187,-0.0668558254837989,3.476210117340088,0.0294992607086896
1758278492361608000,248.72360791015623,-0.3718268871307373,3.271296501159668,0.1561040729284286
1758278492371692300,248.7336923828125,-0.649835467338562,2.9450933933258057,0.2150588482618332
1758278492381776100,248.74377612304687,-0.8994069695472717,2.514025449752808,0.2067434042692184
1758278492391860200,248.75386010742187,-1.1030946969985962,1.8890939950942995,0.2400994300842285
1758278492401944000,248.76394409179687,-1.2629450559616089,1.126545548439026,0.2607266902923584
1758278492412027600,248.77402758789063,-1.379170298576355,0.2894322574138641,0.2572705745697021
1758278492422111700,248.78411181640624,-1.477688908576965,-0.4961810410022735,0.2319574803113937
1758278492432196600,248.79419653320312,-1.582677721977234,-1.176133632659912,0.1848962306976318
1758278492442280700,248.8042807617188,-1.7044034004211426,-1.726664662361145,0.127911239862442
1758278492452364800,248.81436474609376,-1.8381447792053225,-2.1331417560577397,0.0743311122059822
1758278492462448600,248.8244487304688,-1.964520812034607,-2.4116880893707275,0.037659116089344
1758278492472532700,248.83453271484376,-2.084378957748413,-2.577084541320801,0.0457186624407768
1758278492482616600,248.84461645507807,-2.1640658378601074,-2.651996374130249,0.1021337360143661
1758278492492700700,248.85470068359376,-2.179401636123657,-2.667027950286865,0.1979926824569702
1758278492502784800,248.8647846679688,-2.129699230194092,-2.6326820850372314,0.3042206168174743
1758278492512868600,248.87486865234376,-2.0632543563842773,-2.586758613586426,0.3629439175128937
1758278492522952700,248.88495263671877,-2.02390193939209,-2.5579841136932373,0.3395770788192749
1758278492533036800,248.8950368652344,-2.014538049697876,-2.5877840518951416,0.2443030774593353
1758278492543120600,248.90512060546877,-2.054673433303833,-2.6834840774536133,0.1039124205708503
1758278492553204700,248.9152048339844,-2.1629083156585693,-2.8287901878356934,-0.0566399805247783
1758278492563288600,248.92528857421877,-2.297582626342773,-2.9867405891418457,-0.1783544272184372
1758278492573372700,248.9353725585937,-2.4081273078918457,-3.1046671867370605,-0.2413957417011261
1758278492583456800,248.94545678710935,-2.453041315078736,-3.1627120971679688,-0.2556404769420624
1758278492593540600,248.95554052734371,-2.4329988956451416,-3.18461537361145,-0.2530660331249237
1758278492603625700,248.96562573242187,-2.356031894683838,-3.18726134300232,-0.2948361039161682
1758278492613709600,248.97570947265623,-2.2419650554656982,-3.154274702072144,-0.3982698321342468
1758278492623793700,248.98579370117187,-2.1188104152679443,-3.03737211227417,-0.5458452105522156
1758278492633877800,248.99587768554687,-2.021977663040161,-2.834345579147339,-0.7099789977073669
1758278492643961600,249.00596166992187,-1.9636472463607788,-2.5800321102142334,-0.8607221841812134
1758278492654045700,249.01604565429687,-1.9513132572174072,-2.3074162006378174,-1.007858395576477
1758278492664129800,249.0261298828125,-1.9825140237808228,-2.0603036880493164,-1.1443917751312256
1758278492674213600,249.03621362304688,-2.0353939533233643,-1.857709050178528,-1.2740832567214966
1758278492684297700,249.04629760742188,-2.0861315727233887,-1.7335870265960691,-1.4013384580612185
1758278492694381800,249.0563818359375,-2.1210975646972656,-1.7037403583526611,-1.5331507921218872
1758278492704465700,249.06646557617188,-2.133809328079224,-1.772809982299805,-1.6821078062057495
1758278492714549800,249.0765498046875,-2.123219966888428,-1.933712124824524,-1.829383373260498
1758278492724633600,249.08663354492188,-2.1054673194885254,-2.1367833614349365,-1.969349026679993
1758278492734717700,249.0967177734375,-2.0989465713500977,-2.346578359603882,-2.082995176315308
1758278492744801800,249.1068017578125,-2.120948314666748,-2.5488715171813965,-2.1740314960479736
1758278492754885600,249.1168857421875,-2.172230958938598,-2.7278621196746826,-2.2299513816833496
1758278492764969500,249.12696948242188,-2.228625535964966,-2.857594490051269,-2.232417106628418
1758278492775054600,249.1370546875,-2.256211519241333,-2.9339020252227783,-2.193880796432495
1758278492785138700,249.147138671875,-2.2228291034698486,-2.952247142791748,-2.107535123825073
1758278492795222800,249.15722290039065,-2.123570442199707,-2.913588047027588,-2.005403995513916
