time,seconds_elapsed,z,y,x
1758278418071775700,174.43377563476562,0.9178770614624024,11.188403633117677,0.7320271575927734
1758278418081859600,174.44385961914062,0.6455366226196289,11.3757499130249,0.6682815383911133
1758278418091943700,174.45394360351565,0.4429273071289062,11.380538316345216,0.6783072578430175
1758278418102027800,174.46402783203126,0.3440168510437011,11.303474950408935,0.728435855102539
1758278418112112600,174.47411254882812,0.2738368148803711,11.097872882843015,0.8212111694335937
1758278418122196700,174.48419677734375,0.153827456665039,10.854711776733398,0.9159317726135252
1758278418132280600,174.49428051757812,-0.0282815071105957,10.609006831359862,0.9361328491210936
1758278418142364700,174.50436474609376,-0.1882441055297851,10.290278735351562,1.020827732849121
1758278418152448800,174.51444873046876,-0.2941875289916992,9.872340908050536,1.1475707832336426
1758278418162534000,174.52453393554688,-0.3655646659851074,9.336638286590576,1.196502279663086
1758278418172617700,174.53461767578125,-0.4014776908874511,8.755445833587647,1.2407950103759764
1758278418182701600,174.54470166015625,-0.4227262306213378,8.150610639190674,1.283890640258789
1758278418192785700,174.55478564453125,-0.3960907371520996,7.604283747863769,1.3829507339477538
1758278418202870500,174.56487060546874,-0.3215712104797363,7.15716658782959,1.5114894355773925
1758278418212955000,174.57495483398438,-0.4680664245605468,6.777535987091064,1.5189713157653808
1758278418223038700,174.58503881835938,-0.5345055206298828,6.489184324645996,1.5722423027038572
1758278418233122600,174.59512255859374,-0.6027402679443359,6.375310108184814,1.664119791412353
1758278418243207700,174.60520776367187,-0.5633855781555176,6.412869146728515,1.7817349479675293
1758278418253291500,174.61529150390626,-0.5668272430419922,6.6331356994628905,1.9071312599182129
1758278418263376000,174.6253759765625,-0.6519710395812988,6.966528280639648,1.976563108062744
1758278418273459700,174.63545971679687,-0.5702689079284667,7.478737798309326,2.028487356567383
1758278418283543600,174.64554345703124,-0.4343979637145996,8.200888874053955,2.1148282539367678
1758278418293628700,174.65562866210936,-0.6432920585632323,8.946084140777588,2.283320195770264
1758278418303712500,174.66571240234376,-0.8848071510314941,9.86441011505127,2.6746225296020505
1758278418313796900,174.675796875,-1.025167223358154,10.951527306365966,3.248482740020752
1758278418323880700,174.68588061523437,-1.0045172340393065,11.81119533996582,3.948786725616455
1758278418333966300,174.69596630859374,-0.8783727340698242,12.158803493499756,4.400093738555908
1758278418344050200,174.70605029296874,-0.6857891380310058,12.04178688735962,4.074332675170898
1758278418354134000,174.71613403320313,-0.7487865692138671,11.8239145362854,3.2116718894958494
1758278418364218000,174.72621801757813,-0.8583212951660156,11.81748011932373,2.4392425788879395
1758278418374303000,174.73630297851562,-0.9466074813842772,11.928660858917237,1.8857330825805665
1758278418384387300,174.74638720703126,-0.5856815811157227,11.744307331085205,1.474379309844971
1758278418394471200,174.75647119140626,0.137217682647705,11.250802513885498,1.3013982398986816
1758278418404555000,174.76655493164063,0.8255506599426269,10.71285532836914,1.2183493698120116
1758278418414639400,174.77663940429687,1.35990654296875,10.383652600097657,1.1339537612915038
1758278418424724200,174.78672412109376,1.7579425689697266,10.223091451263429,1.0489596023559569
1758278418434808300,174.79680834960936,2.0669442207336424,10.243741440582276,0.969202759552002
1758278418444892200,174.80689208984376,2.1484967147827145,10.551097078704831,0.9689034843444824
1758278418454976000,174.81697607421876,1.959205146026611,11.353902822875977,1.3576619789123534
1758278418465061000,174.82706103515625,1.828421880340576,12.580332623291016,2.147299613952637
1758278418475145200,174.83714526367189,1.75569800491333,13.928567433166505,3.13460852355957
1758278418485229300,174.8472292480469,1.6716016716003417,15.13704072113037,4.068796083831787
1758278418495313200,174.8573132324219,1.7758990814208984,16.087089867401122,4.848258361816406
1758278418505398000,174.86739794921874,2.3546973327636715,16.2162271194458,5.19077883682251
1758278418515482000,174.87748217773438,3.273172944641113,14.985607466125488,4.758924712371826
1758278418525566200,174.88756616210938,4.31629668045044,13.034033837890624,3.7578491432189938
1758278418535650300,174.897650390625,5.218312155914306,11.505784990692138,2.6415526191711423
1758278418545734100,174.90773413085938,5.52207649154663,10.478522840881348,1.428739840698242
1758278418555819000,174.91781909179687,5.211728101348877,9.810540577697754,0.5597942756652832
1758278418565903000,174.92790307617187,4.629787460327148,9.460687860107422,-0.0366612129211425
1758278418575987200,174.9379873046875,3.925742534637451,9.28980171661377,-0.3916016090393066
1758278418586071300,174.9480712890625,3.061435735321045,9.131485131835936,-0.4707599014282226
1758278418596156200,174.95815625,2.316090830993652,9.12370397644043,-0.3573345977783203
1758278418606240000,174.96823999023437,1.7853262504577636,9.472958143615722,0.0421978042602539
1758278418616324000,174.97832397460937,1.1885714866638184,9.911396322631836,0.6277297477722168
1758278418626408200,174.988408203125,0.4590881683349609,10.191517916870117,1.2214917594909669
1758278418636493300,174.99849340820313,0.0668880088806152,10.15156467666626,1.6885107208251953
1758278418646577200,175.0085771484375,-0.0591068534851074,9.852588744354248,1.9313725517272948
1758278418656661000,175.0186608886719,0.0778115539550781,9.310900618743895,1.8951602516174315
1758278418666745000,175.0287451171875,0.3369838836669921,8.72821178970337,1.7145476638793944
1758278418676829200,175.0388291015625,0.5023334358215332,8.118438554382324,1.4921861846923827
1758278418686914300,175.04891430664065,0.4938040924072265,7.497442498779296,1.2728174575805664
1758278418696998100,175.058998046875,0.3289034530639648,6.973112335205077,1.1430816551208496
1758278418707082000,175.06908203125,0.1282394264221191,6.496965480041504,1.088463929748535
1758278418717166000,175.079166015625,-0.0016460136413574,6.0707975845336914,1.0717045181274414
1758278418727251000,175.0892509765625,-0.0219967277526855,5.766434698486328,1.0914566818237303
1758278418737335300,175.09933520507812,-0.0234931037902832,5.552004012298584,1.0699088668823242
1758278418747419100,175.10941918945312,0.0412999786376953,5.45848050994873,1.0467150382995605
1758278418757503000,175.1195029296875,0.1340752929687499,5.522675041961669,0.9220669143676756
1758278418767588000,175.1295881347656,0.1735796203613281,5.7207952293396,0.7537246101379395
1758278418777672000,175.139671875,0.2050035171508789,6.073191786193847,0.5325602317810059
1758278418787756300,175.14975634765625,0.2326864738464355,6.701370446777343,0.3567360473632812
1758278418797840100,175.1598400878906,0.2099415580749511,7.484872940063476,0.1843535278320312
1758278418807924000,175.16992407226562,0.2139817733764648,8.28049607925415,0.0532709869384765
1758278418818009000,175.1800090332031,0.2787748558044433,9.034519964599609,-0.0130184715270996
1758278418828093000,175.19009301757814,0.2986766571044921,9.600748657226562,-0.0309749839782714
1758278418838177300,175.20017724609374,0.328155265045166,10.001178884887697,-0.0125695587158203
1758278418848261000,175.21026123046877,0.4987421333312988,10.339958419799803,0.1080383499145507
1758278418858346200,175.22034619140624,0.7176619476318359,10.669759698486327,0.2605190681457519
1758278418868430000,175.23043017578124,0.8970774345397948,10.908581314086913,0.3728969085693359
1758278418878514200,175.24051416015624,1.1818377944946288,11.040262405395508,0.5744587608337401
1758278418888598300,175.25059838867188,1.5509937629699706,11.023802268981932,0.8945335952758788
1758278418898682000,175.26068212890624,1.9508254402160643,10.82657990722656,1.3000515014648435
1758278418908767200,175.27076733398437,2.397792962646484,10.56636011428833,1.874360624694824
1758278418918851000,175.28085107421876,2.754828285217285,10.301501555633545,2.5176526832580564
1758278418928935200,175.29093505859376,2.996193740081787,10.097545501708984,3.060537909698486
1758278418939019300,175.30101928710937,3.118746937561035,9.862464826202393,3.412635191345214
1758278418949104000,175.3111042480469,3.1200936759948728,9.530718258666992,3.536086214447021
1758278418959188200,175.3211882324219,3.103932814788818,9.04005655593872,3.237259919738769
1758278418969272000,175.33127197265625,3.161094379425049,8.626308581542968,2.653673265075684
1758278418979356200,175.34135620117186,3.1673791587829587,8.504802847290039,1.9003975677490232
1758278418989441300,175.35144116210938,2.956689412689209,8.711302740478516,1.0568903953552244
1758278418999525000,175.36152514648438,2.5260323890686034,9.189245246887207,0.2120364845275879
1758278419009609200,175.37160913085938,2.054374662017822,9.864709390258788,-0.4906617027282715
1758278419019693000,175.38169311523438,1.5933412048339843,10.6356423248291,-1.0357914932250976
1758278419029777200,175.3917770996094,1.1840823585510254,11.356147386932372,-1.428889478302002
1758278419039862300,175.4018623046875,0.841412245941162,11.88721124267578,-1.6457143661499023
1758278419049946000,175.41194604492188,0.6609492958068848,12.122890468597411,-1.690156734466553
1758278419060030200,175.4220302734375,0.6317699630737305,12.05989303741455,-1.5949872184753418
1758278419070114000,175.43211401367188,0.8176198669433593,11.68340482635498,-1.364994221496582
1758278419080199200,175.44219921875,1.1315595596313477,11.061211669921876,-1.0619780738830569
1758278419090283300,175.452283203125,1.4360720832824707,10.315417852783202,-0.6992565223693847
1758278419100367000,175.4623671875,1.765274811553955,9.685742816162108,-0.2997241203308105
1758278419110451200,175.472451171875,2.0588637901306157,9.395146589660644,0.0851437965393066
1758278419120536000,175.4825361328125,2.189347780609131,9.497349073028564,0.4375403533935547
1758278419130620200,175.4926201171875,2.1971289360046384,10.04173067550659,0.7589619262695312
1758278419140704300,175.50270434570314,2.066644945526123,10.918457395935055,0.9910498497009276
1758278419150788000,175.5127880859375,1.7616835090637206,11.917737313842771,1.179293955230713
1758278419160872200,175.5228720703125,1.3346177879333496,12.848782484436034,1.2791022369384766
1758278419170957000,175.53295703125,0.8689455650329589,13.570634284973144,1.2765583976745605
1758278419181041200,175.54304125976563,0.4391863670349121,13.95625038986206,1.169717148590088
1758278419191125200,175.55312524414063,0.172981069946289,13.927519969940183,0.982520506286621
1758278419201209000,175.563208984375,-0.0137666595458984,13.826215312194824,0.9186252494812012
1758278419211294200,175.57329418945312,-0.1215057342529296,13.686004877471923,0.7610568527221679
1758278419221378000,175.5833779296875,-0.232387198638916,13.34273621444702,0.5716156463623047
1758278419231462100,175.59346215820312,-0.3289034530639648,12.681637281036377,0.4700117134094238
1758278419241546200,175.60354614257812,-0.3507505432128906,11.901875727844237,0.476895043182373
1758278419251630000,175.61363012695313,-0.309001651763916,11.072135214996337,0.4869207626342773
1758278419261715200,175.62371508789062,-0.3214215728759765,10.25945338897705,0.5048772750854492
1758278419271799000,175.63379907226562,-0.3351882324218749,9.415796578979492,0.4697124382019043
1758278419281883100,175.64388305664062,-0.4064157318115234,8.58620570373535,0.4982932205200195
1758278419291967200,175.65396728515626,-0.5039794494628906,7.816020957183837,0.6193500419616699
1758278419302052400,175.66405224609375,-0.560542463684082,7.181707154846191,0.8164227661132812
1758278419312136200,175.67413623046875,-0.5765536872863769,6.737732384490967,0.9660603698730468
1758278419322220000,175.6842199707031,-0.5415384880065918,6.4356140625,1.122431665802002
1758278419332304100,175.69430419921875,-0.5497685562133788,6.235099673461914,1.3213000411987303
1758278419342389000,175.70438891601563,-0.4785410568237304,6.141127258300781,1.5185224029541016
1758278419352473000,175.71447314453124,-0.374094009399414,6.203825414276123,1.732803451538086
1758278419362557000,175.72455688476563,-0.3763385734558105,6.350470265960693,1.9402011703491209
1758278419372641000,175.73464111328124,-0.3872621185302734,6.553528494262695,2.177376772308349
1758278419382725000,175.74472509765624,-0.3345896820068359,6.796091049957275,2.39405202255249
1758278419392810000,175.75481005859376,-0.3570353225708008,7.0652890991210935,2.6165631393432616
1758278419402894000,175.76489404296876,-0.4700117134094238,7.389703424072265,2.8631659103393554
1758278419412978000,175.77497802734376,-0.5659294174194336,7.804199586486816,3.10303498916626
1758278419423062000,175.78506201171874,-0.586729044342041,8.400505437469482,3.3515830490112304
1758278419433147000,175.79514697265626,-0.6802525466918945,9.23189196395874,3.4956840614318847
1758278419443231200,175.80523120117186,-0.7658452560424804,10.06821653137207,3.6324528312683104
1758278419453315000,175.81531518554686,-0.8397662322998046,10.869076986694337,3.84314257736206
1758278419463399000,175.82539892578126,-0.7838017684936524,11.489474491882325,4.189852905273438
1758278419473483000,175.83548291015626,-0.3401262733459472,11.819874320983883,4.579808500671386
1758278419483567900,175.84556787109375,0.3688566932678222,11.774833402252195,4.776581949615478
1758278419493652200,175.85565234375,0.8167220413208007,11.1842137802124,4.580407051086426
1758278419503736000,175.8657360839844,1.2728174575805664,10.165331336212155,3.95851316986084
1758278419513820000,175.87581982421875,1.6735469604492186,9.170540546417236,3.199102330780029
1758278419523905000,175.88590502929688,1.3786112434387203,8.337059093475341,2.7103859169006346
1758278419533988900,175.89598876953124,1.149815347290039,7.732972087097168,2.587084531402588
1758278419544073200,175.9060732421875,1.6261118400573729,7.7130702857971185,2.5302222419738767
1758278419554157000,175.91615698242188,2.538452310180664,8.210465680694579,2.264765132904053
1758278419564241000,175.92624096679688,3.374477602386474,8.988132307434082,2.009184105682373
1758278419574326000,175.93632592773437,3.691410047149658,9.76160908126831,2.010231568908692
1758278419584409900,175.94640991210937,3.721337567901611,10.544662661743164,2.2029648025512696
1758278419594494200,175.956494140625,3.6354455833435058,11.303325312805176,2.5960627876281737
1758278419604578000,175.966578125,3.5057097808837887,12.118850253295898,3.240103034210205
1758278419614663200,175.9766630859375,3.429843515777588,13.038522966003416,4.144662348937988
1758278419624747000,175.9867470703125,3.4467525650024413,13.77698454055786,5.0382981185913085
1758278419634830800,175.99683081054687,3.583371697235107,13.813496115875244,5.6824880027771
1758278419644915200,176.0069152832031,3.991732717895508,12.713659728240966,5.661838013458252
1758278419655000000,176.017,4.493766878509521,11.058967105865475,4.889408702850342
1758278419665084200,176.02708422851563,5.06867455215454,9.817872820281982,3.716249889373779
1758278419675168000,176.03716796875,5.288641829681396,9.166949243927002,2.4875755249023435
1758278419685251800,176.047251953125,4.986523507690429,9.095572106933592,1.5764321556091307
1758278419695336200,176.05733618164064,4.358793759918212,9.446023374938964,1.0634744499206543
1758278419705421000,176.06742114257813,3.805882814025879,10.129867224121092,0.9344868354797364
1758278419715505200,176.07750512695313,3.412186278533935,10.919654496765135,1.2005424949645995
1758278419725589000,176.08758911132813,3.046771250152588,11.48498536376953,1.71095636138916
1758278419735672800,176.0976728515625,2.733280470275879,11.781716732025146,2.4028806411743164
1758278419745758000,176.10775805664062,2.471564301300049,11.905167755126952,3.175609226989746
1758278419755842000,176.11784204101562,2.034772135925293,11.84905365371704,3.8513726455688473
1758278419765926100,176.12792602539062,1.762132421875,11.545139680480956,4.262277505493164
1758278419776010000,176.13801000976562,1.5387234794616698,10.99327619781494,4.265569532775879
1758278419786093800,176.14809375,1.389834063720703,10.239401950073242,3.98365228729248
1758278419796179000,176.1581789550781,1.1655272956848144,9.407416873168945,3.4491467666625977
1758278419806263000,176.16826293945311,1.1001356628417969,8.551938692474364,2.871844891357421
1758278419816347100,176.17834716796875,1.0975918235778808,7.685536966705322,2.315641918182373
1758278419826431000,176.18843090820312,0.853532891845703,6.956652198791503,1.911021837615967
1758278419836515800,176.19851586914064,0.2219125663757324,6.316951442718506,1.5273510215759276
1758278419846600000,176.20859985351564,-0.3295020034790039,5.782595559692383,1.0959458099365234
1758278419856684000,176.21868408203125,-0.6385036552429199,5.435137043762206,0.6872855140686035
1758278419866768100,176.22876806640625,-0.680551821899414,5.233275916290283,0.2554313896179199
1758278419876853000,176.23885302734374,-0.5910685348510741,5.15187305984497,-0.3182791831970215
1758278419886936800,176.24893676757813,-0.4044704429626464,5.285499440002441,-0.7279869422912597
1758278419897021000,176.25902099609374,-0.1584662223815917,5.6477720787048336,-0.9834183319091796
1758278419907105000,176.26910498046874,0.000598550415039,6.251410172271728,-0.9460089309692382
1758278419917189000,176.27918920898438,0.1173158813476562,7.003039855957031,-0.639700756072998
1758278419927274000,176.28927392578126,0.2702455123901367,7.842057900238037,-0.199167650604248
1758278419937358000,176.29935815429687,0.3761889358520507,8.617629600524902,0.2044049667358398
1758278419947442200,176.30944213867187,0.3908534210205078,9.303867651367186,0.5638344909667968
1758278419957526000,176.31952612304687,0.4550479530334472,9.868749605560302,0.89378540725708
1758278419967611100,176.3296110839844,0.589272883605957,10.350133776855468,1.2478279777526855
1758278419977695000,176.33969506835936,0.7656956184387207,10.795604923248291,1.6335937202453612
1758278419987779000,176.34977905273436,1.022024833679199,11.12795004119873,2.0705355232238767
1758278419997863200,176.35986328125,1.4704887321472166,11.27489416809082,2.5010429092407227
1758278420007947000,176.36994702148436,1.960551884460449,11.244966647338869,2.916436897277832
1758278420018032000,176.3800322265625,2.354098782348633,11.046846459960936,3.3816602073669437
1758278420028116000,176.39011596679688,2.580500476837158,10.748768353271483,3.7280712600708
1758278420038200000,176.40019995117189,2.7289409797668456,10.534936217498778,3.746027772521973
1758278420048284200,176.4102841796875,2.645143921661377,10.382006586456296,3.557933304595947
1758278420058369000,176.420369140625,2.4576480041503905,10.127473022460936,3.1618425674438475
1758278420068453000,176.430453125,2.2973861305236816,9.606285248565673,2.5516204193115235
1758278420078537000,176.44053686523438,2.2945430160522458,8.939350448608398,1.7393875061035156
1758278420088621000,176.45062109375,2.3970447746276853,8.478616266632079,0.7791630027770996
1758278420098705200,176.460705078125,2.476203067016601,8.43402426071167,-0.1744774459838867
1758278420108790000,176.4707900390625,2.331503504180908,8.724171574401854,-0.9594763153076172
1758278420118874000,176.4808740234375,1.99212541885376,9.195978939056396,-1.5646107849121094
1758278420128958000,176.4909580078125,1.6738462356567383,9.74185691757202,-1.960551884460449
1758278420139042000,176.5010419921875,1.4514847564697264,10.37467434387207,-2.190544881439209
1758278420149127000,176.511126953125,1.2580033348083497,11.04520044631958,-2.2067057426452634
1758278420159211000,176.5212109375,1.1252747802734375,11.603199070739745,-2.088192760467529
1758278420169295000,176.53129516601564,1.0595838722229003,11.990461189270018,-1.8733131614685057
1758278420179379000,176.54137890625,1.2852373786926268,12.039841598510742,-1.5101426971435543
1758278420189463000,176.5514631347656,1.6244658264160154,11.745354794311522,-1.1067197174072263
1758278420199548000,176.5615478515625,1.9189526306152345,11.150844594573972,-0.7242460021972655
1758278420209632000,176.57163208007813,2.1691467041015624,10.345794286346434,-0.4032733421325683
1758278420219716000,176.58171606445313,2.4247277313232423,9.53086789627075,-0.0495300468444824
1758278420229800000,176.59180004882813,2.6755203552246094,8.863783458709717,0.3719990829467773
1758278420239885000,176.60188500976562,2.911947769165039,8.457068451690674,0.8360252922058105
1758278420249969000,176.61196899414062,3.0729578308105467,8.413374271392822,1.240495735168457
1758278420260053000,176.62205297851563,3.068618340301513,8.802432041168212,1.5261539207458494
1758278420270137000,176.63213720703126,2.830844187927246,9.54478419342041,1.6608277641296385
1758278420280221000,176.64222094726563,2.385373041534424,10.471639511108398,1.6102502540588377
1758278420290306000,176.65230615234375,1.785026975250244,11.291803217315673,1.4414590370178222
1758278420300390000,176.66238989257812,1.2123638656616211,12.001085459136965,1.1743559143066409
1758278420310474000,176.67247387695312,0.6212953308105469,12.610559419250489,0.8722375923156738
1758278420320558000,176.68255810546876,0.1031003089904785,13.089848664093015,0.6109703361511231
1758278420330643000,176.6926428222656,-0.2397194412231445,13.33136375656128,0.4951508308410644
1758278420340726500,176.7027265625,-0.3893570449829101,13.3937626373291,0.5621884773254394
1758278420350811000,176.7128107910156,-0.402824429321289,13.460800283813477,0.7179612228393554
1758278420360894700,176.7228947753906,-0.3742436470031738,13.366229318237304,0.7267898414611816
1758278420370978600,176.732978515625,-0.385616104888916,12.956521559143066,0.7791630027770996
1758278420381063700,176.74306372070313,-0.3244143249511718,12.300510304260252,0.8854057014465332
1758278420391147500,176.7531474609375,-0.2371756019592285,11.573121912384032,0.9760860893249512
1758278420401232000,176.76323193359374,-0.2096422828674316,10.826130994415282,0.9986813674926758
1758278420411315700,176.77331567382814,-0.1713350563049316,10.071059645843505,1.0266635993957518
1758278420421400600,176.78340063476563,-0.2660556594848632,9.356689725494384,1.0045172340393065
1758278420431484700,176.79348461914063,-0.4911106155395507,8.607603881072997,0.9427169036865234
1758278420441568500,176.80356860351563,-0.4857236618041992,8.01877991027832,1.0003273811340332
1758278420451652900,176.81365283203124,-0.410455947113037,7.578994992828369,1.2057798110961913
1758278420461736700,176.82373681640624,-0.337732071685791,7.275380294799804,1.419761584472656
1758278420471821600,176.83382153320312,-0.3250128753662109,7.149684707641601,1.7028759307861328
1758278420481905700,176.84390576171876,-0.3751414726257324,7.15701695022583,1.9660884757995605
1758278420491989500,176.85398950195312,-0.39579146194458,7.210287937164306,2.184110464477539
1758278420502073900,176.86407397460937,-0.2361281387329101,7.3457099685668945,2.450315761566162
1758278420512158700,176.87415869140625,-0.2029085906982421,7.569118910980224,2.7418098136901854
1758278420522242600,176.88424267578125,-0.2475005966186523,7.908945909118652,2.9255647911071776
1758278420532326700,176.89432666015625,-0.131531453704834,8.356212706756592,3.0699650787353514
1758278420542410500,176.90441040039062,-0.0603039543151855,8.627056769561767,3.2794577239990232
1758278420552494800,176.91449487304686,0.0041898529052734,8.844929120635985,3.646518766021728
1758278420562579700,176.92457983398438,0.1518821678161621,9.012672874450685,4.059668190002441
1758278420572663600,176.93466357421875,0.3422211997985839,9.034519964599609,4.415506411743164
1758278420582747600,176.94474755859375,0.59376201171875,9.037512716674804,4.454561826324463
1758278420592831500,176.95483154296875,0.6989572471618652,9.14255831451416,4.164414512634277
1758278420602916600,176.96491650390624,0.608426496887207,9.362675229644775,3.6912604095458974
1758278420613000700,176.97500073242188,0.5880757827758789,9.732429748535155,3.1950621154785157
1758278420623084500,176.98508447265624,0.3648164779663085,9.92261914291382,2.8185739044189453
1758278420633168600,176.99516870117188,0.0240916542053222,9.453205979919431,2.864662286376953
1758278420643252700,177.00525268554688,0.129586164855957,8.685265797424316,3.051260378265381
1758278420653337600,177.01533764648437,0.780809016418457,8.081627703857421,3.030760026550293
1758278420663421700,177.02542163085937,1.4781202499389647,7.661894225311279,2.8303952751159667
1758278420673505500,177.03550561523437,1.912817488861084,7.422623696899413,2.7136779441833494
1758278420683589600,177.04558959960937,2.238279277038574,7.40571464767456,2.7002105598449706
1758278420693674500,177.05567456054686,2.5201965225219727,7.668179004669189,2.6027964797973637
1758278420703758600,177.06575854492186,2.7225065628051754,8.33825619430542,2.3828292022705075
1758278420713842700,177.0758427734375,2.771587696838379,9.279327084350586,2.3000796073913574
1758278420723926500,177.08592651367186,2.626888134002685,10.25975266418457,2.50283856048584
1758278420734010600,177.0960107421875,2.3876176055908203,11.10296056137085,2.9773394020080564
1758278420744095500,177.10609545898438,2.257881803131103,11.807005487060549,3.726425246429443
1758278420754179800,177.11617993164063,2.2082021186828613,12.493842088317871,4.589834220123291
1758278420764263700,177.126263671875,2.2432173179626465,13.20896019668579,5.492897158813476
1758278420774347500,177.1363474121094,2.282422370147705,13.736133474731444,6.331615927886962
1758278420784432600,177.1464326171875,2.43265852432251,13.582006742858884,6.9430351768493646
1758278420794516500,177.1565166015625,2.8707974281311035,12.624326078796386,7.013664125823974
1758278420804600800,177.16660083007812,3.611353929138184,11.375600275421142,6.569838993072509
1758278420814684700,177.1766845703125,4.306121323394775,10.35507181777954,5.8631005905151365
1758278420824768500,177.1867685546875,4.696825106811523,9.698162737274169,5.154416899108886
1758278420834853600,177.196853515625,4.7852609306335445,9.323021264648435,4.430919084930419
1758278420844937500,177.2069375,4.530278453826904,9.219920955657958,3.8238393264770503
1758278420855021800,177.21702172851562,3.9456443359375,9.297133959197998,3.3928830276489257
1758278420865105700,177.22710571289062,3.380014193725586,9.424774835205078,3.160944741821289
1758278420875190800,177.23719067382814,2.935291235351562,9.565883095550536,3.079242610168457
1758278420885274600,177.24727465820314,2.4652795219421386,9.650278704071043,3.2040403717041013
1758278420895358500,177.2573583984375,2.060210528564453,9.578901567077637,3.456628646850586
1758278420905442800,177.26744287109375,1.5605705696105956,9.376890802001952,3.76039298248291
1758278420915526700,177.2775266113281,1.1945569908142089,9.083002548217772,3.912873700714111
1758278420925611800,177.28761181640624,1.0401309837341308,8.751405618286132,3.986345764160156
1758278420935695600,177.29769555664063,0.9051578651428224,8.309675411987305,3.882796542358398
1758278420945779500,177.30777954101563,0.773776049041748,7.812878567504883,3.568108661651612
1758278420955863800,177.31786376953124,0.792929662322998,7.338976276397704,3.127126643371582
1758278420965948700,177.32794873046876,0.9889549232482908,6.931064168548583,2.648435948944092
1758278420976032800,177.33803271484376,1.1360486877441405,6.543502774810791,2.1027076080322264
1758278420986116600,177.34811669921876,1.060481697845459,6.216394972991943,1.5358803649902344
1758278420996200400,177.35820043945313,0.8747814315795898,6.1273605987548825,1.105672254180908
1758278421006284800,177.36828491210937,0.6708253776550293,6.244526842498779,0.694617756652832
1758278421016369700,177.37836962890626,0.5080196647644043,6.475417665100097,0.0641945320129394
1758278421026453800,177.3884538574219,0.4762964927673339,6.763619689941406,-0.6676829879760742
1758278421036537600,177.39853759765626,0.5976525894165039,7.199364392089843,-1.3623007446289062
1758278421046621400,177.40862133789062,0.8822633117675781,7.775169891357422,-1.8535609977722167
1758278421056706600,177.41870654296875,1.2759598472595215,8.428487669372558,-2.0076877296447755
1758278421066790700,177.4287907714844,1.6747440612792968,9.18131445388794,-1.8368015861511229
1758278421076874800,177.4388747558594,1.982847887420654,9.852289469146728,-1.5771803436279297
1758278421086958600,177.44895849609375,2.2565350646972653,10.402806213378906,-1.2384008087158205
1758278421097042700,177.45904272460936,2.401833177947998,10.863540395355225,-0.7887398094177246
1758278421107127600,177.46912744140624,2.3918074584960936,11.192593486022949,-0.3347393196105956
1758278421117211600,177.47921166992188,2.205359004211425,11.44772560043335,0.1849520782470703
1758278421127295700,177.48929565429688,1.890970398712158,11.594520089721678,0.9250596664428712
1758278421137379600,177.49937963867188,1.6250643768310546,11.604246533966064,1.7432780838012694
1758278421147464700,177.50946459960937,1.4576198982238768,11.539154176330566,2.707991715240478
1758278421157548500,177.51954858398437,1.4829086532592772,11.433360390472412,3.734056764221191
1758278421167632600,177.52963256835938,1.476025323486328,11.203068118286131,4.364629626464843
1758278421177716700,177.539716796875,1.521515155029297,10.847229896545407,4.560954162597656
1758278421187800600,177.54980053710938,1.5366285530090331,10.465803644561769,4.354603907012939
1758278421197885700,177.5598857421875,1.6579846496582031,10.008211852264404,3.6551977470397943
1758278421207969800,177.5699697265625,1.690007096862793,9.57037222366333,2.6599580444335937
1758278421218053600,177.5800537109375,1.5037082801818846,9.191938723754882,1.718288603973389
1758278421228137700,177.5901376953125,1.397465581512451,8.772953433227539,0.8702923034667969
1758278421238222600,177.60022265625,1.445349614715576,8.393023557281493,-0.0626981559753418
1758278421248306700,177.610306640625,1.499069514465332,8.11469761428833,-0.8488941261291504
1758278421258390800,177.62039086914064,1.509244871520996,8.027608528900146,-1.3045406295776367
1758278421268474600,177.630474609375,1.3914800773620604,8.185925113677978,-1.5028104545593262
1758278421278558700,177.64055883789064,1.260696811676025,8.533084354400634,-1.3335703247070312
1758278421288643600,177.6506435546875,1.2226888603210448,8.86872149963379,-0.9944915145874024
1758278421298727700,177.66072778320313,1.250671092224121,9.098415221405029,-0.7776666267395019
1758278421308811800,177.67081176757813,1.43652099609375,9.204209007263184,-0.4776432312011718
1758278421318895600,177.6808955078125,1.9572598571777344,9.128043466949462,-0.2346317626953125
1758278421328979700,177.69097973632813,2.63032979888916,8.9248356010437,-0.1647510017395019
1758278421339064300,177.70106420898438,3.271078018188476,8.61927561416626,-0.1903390319824218
1758278421349148400,177.7111484375,3.748870886993408,8.226776179504395,-0.304512523651123
1758278421359232500,177.721232421875,4.130746051788329,7.88470461730957,-0.5002385093688965
1758278421369316400,177.73131640625,4.28382532043457,7.87183578338623,-0.8316858016967773
1758278421379401500,177.7414013671875,4.155436256408692,8.289025422668457,-1.2285247268676758
1758278421389485300,177.7514853515625,3.648464054870605,9.14181012649536,-1.7010802795410156
1758278421399569400,177.7615693359375,2.7922376861572262,10.3805102104187,-2.230498121643066
1758278421409653500,177.77165356445312,1.7750012557983397,11.88137537612915,-2.727743878936768
1758278421419737300,177.7817373046875,0.7733271362304687,13.628843312835691,-3.1112650573730467
1758278421429822500,177.79182250976564,-0.0568622894287109,15.414019925689695,-3.433734093475341
1758278421439906300,177.80190625,-0.6868366012573242,16.900220606231688,-3.561524607086181
1758278421449990400,177.8119904785156,-0.9753379013061524,17.835455629730223,-3.416825044250488
1758278421460074500,177.8220744628906,-0.9587281272888184,17.982848669433594,-3.0000843177795407
1758278421470159400,177.83215942382813,-0.7267898414611816,17.30798307647705,-2.2520459365844725
1758278421480243500,177.84224340820313,-0.4076128326416015,16.06793625411987,-1.3124714225769043
1758278421490327300,177.85232739257813,0.0169090492248535,14.641440977478029,-0.4905120651245117
1758278421500411400,177.86241137695313,0.4559457786560058,13.31774673461914,0.0586579406738281
1758278421510495500,177.87249560546874,0.8035539321899413,12.045078914642334,0.296881005859375
1758278421520580400,177.88258032226562,1.0345943923950194,10.896161392974854,0.4777928688049316
1758278421530664400,177.89266455078126,1.0733505317687988,9.846303964996338,0.8328829025268554
1758278421540748300,177.90274829101563,1.1162965240478515,8.856002303314208,1.1276689819335937
1758278421550832400,177.91283227539063,1.1852794593811034,7.94246473236084,1.3857938484191894
1758278421560917500,177.92291748046875,1.1710638870239256,7.060351058197021,1.6045640251159667
1758278421571001300,177.93300146484376,1.0299556266784666,6.227917068481445,1.8296189811706545
1758278421581085400,177.94308544921876,0.995987890625,5.510704033660889,2.0114286697387693
1758278421591169300,177.95316918945312,1.1266215187072752,4.99864415359497,2.168697791290283
1758278421601253600,177.96325366210937,1.0257657737731931,4.593425522613525,2.301725621032715
1758278421611338500,177.97333837890625,0.8010100929260253,4.319439070129394,2.406322306060791
1758278421621422300,177.98342236328125,0.522833787536621,4.138976119995117,2.554463533782959
1758278421631506400,177.99350634765625,0.2729389892578124,4.11129316329956,2.7711387840271
1758278421641590300,178.00359033203125,0.1123778404235839,4.1846155891418455,2.991106061553955
1758278421651674600,178.0136745605469,0.2139817733764648,4.478952755737304,3.2905309066772457
1758278421661759500,178.02375952148438,0.118064069366455,4.821922143554687,3.4775779113769527
1758278421671843300,178.03384326171874,-0.0900818374633789,5.354183100128173,3.669263681793213
1758278421681927400,178.04392749023438,-0.0552162757873535,6.16701456375122,3.914070801544189
1758278421692011300,178.05401123046877,-0.1656488273620605,7.275679570007323,4.196287322235107
1758278421702096400,178.06409643554687,-0.5786486137390137,8.540715872192383,4.661360994720459
1758278421712180500,178.07418041992187,-0.6325181510925293,9.803806885528564,5.34355883026123
1758278421722264300,178.08426440429687,-0.5397428367614746,11.097573607635498,6.157886669921875
1758278421732348400,178.09434838867188,-0.7059902145385741,11.71602582397461,6.743717888641357
1758278421742432300,178.10443237304688,-0.4756979423522949,11.535862149047851,6.738630210113525
1758278421752517400,178.11451733398437,0.1815104133605957,11.107150414276122,6.176591370391845
1758278421762601500,178.1246015625,0.6979097839355468,10.635193412017822,5.632658680725097
1758278421772685300,178.13468530273437,1.105672254180908,10.212916094207763,5.249436777496338
1758278421782769400,178.14476928710937,1.7075146965026855,9.910348859405516,5.129876332092285
1758278421792854300,178.1548542480469,2.270301724243164,9.745148944854735,5.257666845703125
1758278421802938400,178.1649384765625,2.4938603042602536,9.454552718353272,5.37543163986206
1758278421813022500,178.1750224609375,2.1808184371948243,8.542960436248778,5.206341147613525
1758278421823106300,178.18510620117186,1.5065513946533202,7.612962728881835,4.765209491729736
1758278421833190400,178.1951904296875,0.4964975692749023,7.491307357025146,3.9264907226562498
1758278421843275300,178.20527514648438,0.6679822631835937,8.089408859252929,2.9008745864868164
1758278421853359400,178.215359375,1.732055263519287,9.18011735305786,2.6336218261718747
1758278421863443500,178.225443359375,2.77727392578125,10.402955850982666,3.508702532958984
1758278421873527300,178.23552734375,3.355623264312744,11.418097354888916,5.077054257965088
1758278421883612400,178.2456123046875,3.3610102180480954,12.318915729522704,6.546645164489746
1758278421893696300,178.2556962890625,3.0015806938171385,13.203423605346678,7.566275796508789
1758278421903780400,178.2657802734375,2.6068366950988766,13.735983837127684,7.918073802947998
1758278421913864400,178.27586450195312,2.610427997589112,13.543998791503906,7.339125914001464
1758278421923948300,178.2859482421875,3.3077392311096188,12.650662297058105,6.054337448120116
1758278421934033400,178.2960334472656,4.444835382080078,11.430068363189696,4.523844036865234
1758278421944117200,178.3061171875,5.217863243103027,10.402955850982666,3.191021900177002
1758278421954201300,178.31620141601562,5.047575650024414,10.122534981536864,2.436698739624023
1758278421964285400,178.32628540039062,4.407425981140136,10.6233720413208,2.2590789039611816
1758278421974369300,178.33636938476562,3.778648770141601,11.358840863800047,2.457049453735352
1758278421984454400,178.34645434570314,3.198952693176269,11.83094750366211,2.8145336891174315
1758278421994538200,178.35653833007814,2.7916391357421872,11.96442424621582,3.2830490264892576
1758278422004622300,178.36662231445314,2.639308055114746,11.641356659698486,3.6002807464599607
1758278422014706400,178.37670654296875,2.676418180847168,10.90334399795532,3.5248633941650387
1758278422024791600,178.38679150390624,3.066972326660156,10.070161820220946,3.1859342216491697
1758278422034875400,178.39687548828124,3.389291725158692,9.53864905166626,2.9372365242004395
1758278422044959200,178.40695922851563,3.308936331939697,9.213187263488768,2.818723542022705
1758278422055043600,178.41704370117188,2.9040169761657717,8.882338521575928,2.620154441833496
1758278422065127400,178.42712744140624,2.345719076538086,8.472481124877929,2.264615495300293
1758278422075212500,178.43721264648437,1.7405846069335935,7.950844438171386,1.891718586730957
1758278422085296400,178.44729638671876,1.0630255371093749,7.369502347564697,1.504606105804443
1758278422095380200,178.45738012695313,0.4010287780761719,6.802375829315185,1.1703156990051269
1758278422105464600,178.46746459960937,-0.2702455123901367,6.23779315032959,0.7896376350402832
1758278422115548400,178.47754833984374,-0.601393529510498,5.735160439300537,0.4608838195800781
1758278422125633500,178.48763354492186,-0.7484872940063476,5.418976182556152,0.2504933486938476
1758278422135717400,178.49771728515626,-0.9305962577819824,5.229235700988769,0.101454295349121
1758278422145801200,178.50780126953126,-0.9968857162475584,5.265597638702392,0.1707365058898925
1758278422155885600,178.5178854980469,-0.8488941261291504,5.494094259643554,0.4830301849365234
1758278422165970400,178.52797045898438,-0.6337152519226074,5.976076981353759,1.067365027618408
1758278422176054500,178.5380544433594,-0.5704185455322265,6.59497811050415,1.6519991455078125
1758278422186138400,178.5481384277344,-0.5199906730651855,7.266850951385497,2.1698948921203614
1758278422196222200,178.55822216796875,-0.3708019821166992,7.98690710067749,2.5680805557250976
1758278422206306600,178.568306640625,-0.1792658493041992,8.725667950439453,2.9034184257507323
1758278422216391400,178.57839135742188,0.0662894584655761,9.424176284790038,3.210624426269531
1758278422226475500,178.5884755859375,0.397736750793457,10.018985759735108,3.4516906059265136
1758278422236559400,178.59855932617188,0.7492354820251464,10.389638104248046,3.75380892791748
1758278422246643200,178.60864331054688,0.9810241302490234,10.468347483825683,3.991433442687988
1758278422256728300,178.61872827148437,1.1858780097961426,10.358214207458497,4.132392065429687
1758278422266812400,178.6288125,1.5336358009338378,10.130914687347412,4.071639198303222
1758278422276896500,178.638896484375,1.7887679153442382,9.995642293548585,3.681234690093994
1758278422286980400,178.64898046875,1.9770120208740236,9.90900212097168,3.1425393165588376
1758278422297064200,178.65906420898438,2.199074224853516,9.79946739501953,2.705747151184082
1758278422307149300,178.6691494140625,2.55371534576416,9.737966339874268,2.275239765167236
1758278422317233400,178.6792333984375,2.7296891677856445,9.827748902130129,1.789516103363037
1758278422327317500,178.6893173828125,2.8069021713256834,9.89658219985962,1.4341267944335936
1758278422337401900,178.69940185546875,3.0048727210998534,9.803208335113524,0.9847650703430176
1758278422347486700,178.70948681640624,3.4585739356994627,9.581595043945311,0.4396352798461914
1758278422357570800,178.71957080078124,3.907337109375,9.351153134155274,-0.2489969726562499
1758278422367655000,178.72965502929688,4.182520662689209,9.1807159034729,-0.931494083404541
1758278422377738800,178.73973876953124,4.202721739196777,9.224709358978272,-1.3199533027648924
1758278422387822800,178.74982275390624,3.965097224426269,9.661202249145507,-1.395520292663574
1758278422397907700,178.75990771484376,3.502567391204834,10.353276166534425,-1.3121721473693846
1758278422407991800,178.76999169921876,3.033303865814209,11.034576176452637,-1.2102689392089845
1758278422418076000,178.78007592773437,2.785354356384277,11.529278094482422,-0.8099883491516113
1758278422428159700,178.79015966796874,2.7439047401428223,11.713631622314452,-0.39579146194458
1758278422438243800,178.80024389648435,2.8522423652648925,11.780968544006347,0.0501285972595214
1758278422448328700,178.81032861328126,3.02612126083374,11.710040319824218,0.5134066184997559
1758278422458412800,178.82041284179687,3.262847949981689,11.35076043319702,0.8987234481811522
1758278422468497000,178.83049682617187,3.61973363494873,10.587608654022215,1.2457330513000489
1758278422478580700,178.84058081054687,4.037072911834716,9.490465743255614,1.4654010536193849
1758278422488665900,178.8506657714844,4.281880031585693,8.328679387664794,1.4966753128051755
1758278422498749700,178.8607497558594,4.291157563018799,7.388805598449706,1.5119383483886717
1758278422508833800,178.8708337402344,4.174739507293701,6.931064168548583,1.5652093353271483
1758278422518918000,178.88091796875,3.994575832366943,7.012915937805175,1.4893430702209471
1758278422529001700,178.89100170898436,3.802590786743164,7.6945152229309075,1.121084927368164
1758278422539086800,178.9010869140625,3.540276067352295,8.882787434387206,0.4569932418823242
1758278422549170700,178.91117065429688,3.238905933380127,10.37452470626831,-0.2995744827270508
1758278422559254800,178.9212548828125,2.964021655273437,11.911302896881104,-0.873434693145752
1758278422569339000,178.9313388671875,2.671929052734374,13.243077570343017,-1.1409867286682127
1758278422579422700,178.94142260742188,2.3937527473449705,14.158710067749023,-1.1414356414794922
1758278422589507800,178.9515078125,2.036867062377929,14.444517890930175,-0.8891466415405272
1758278422599591700,178.961591796875,1.693149486541748,14.186841937255858,-0.5559036979675293
1758278422609675800,178.97167578125,1.4308347671508788,13.577966527557372,-0.2576759536743164
1758278422619759900,178.981759765625,1.293467446899414,12.835764012908935,0.0203507141113281
1758278422629844700,178.9918447265625,1.2292729148864745,12.02757131500244,0.2193687271118164
1758278422639928800,179.0019287109375,1.1846809089660644,11.230751074981688,0.3078045509338378
1758278422650012700,179.0120126953125,1.12347912902832,10.4586210395813,0.366462491607666
1758278422660096800,179.0220966796875,1.0404302589416503,9.681552963256836,0.3467103279113769
1758278422670180900,179.03218090820312,1.0375871444702147,8.941894287872314,0.3272574394226074
1758278422680265700,179.042265625,1.096843635559082,8.272266011047362,0.4017769660949706
1758278422690349800,179.05234985351564,1.077540384674072,7.653364881896972,0.4640262092590331
1758278422700433700,179.06243359375,0.9578303016662596,7.089081478118896,0.6223427940368652
1758278422710517800,179.07251782226564,0.8016086433410644,6.629843672180176,0.8762778076171874
1758278422720601900,179.08260180664064,0.7926303871154785,6.23779315032959,1.1942577156066894
1758278422730686700,179.09268676757813,0.8698433906555175,5.961861408996581,1.5447089836120604
1758278422740770800,179.10277075195313,0.7465420051574707,5.780799908447265,1.930774001312256
1758278422750854700,179.11285473632813,0.6009446166992187,5.674856484985352,2.2737433891296384
1758278422760939000,179.12293896484374,0.6464344482421874,5.688772782135009,2.605938869476318
1758278422771022800,179.13302294921874,0.716913759613037,5.884049855041504,2.907907553863525
1758278422781107700,179.14310766601562,0.59376201171875,6.359747797393799,3.1356559867858884
1758278422791191800,179.15319189453126,0.4173392768859863,7.0838441619873045,3.3797149185180664
1758278422801275600,179.16327563476565,0.2569277656555175,8.03763424835205,3.859453076171875
1758278422811360000,179.17336010742187,0.0327706352233886,9.1293902053833,4.793640636444091
1758278422821444900,179.18344482421875,0.0703296737670898,9.840917011260986,5.753565864562988
1758278422831528700,179.19352880859375,0.386214655303955,9.992948816680908,5.713462986755371
1758278422841612800,179.20361279296876,0.7119757186889648,10.129268673706054,4.957793087768555
1758278422851696600,179.21369653320312,1.1786954048156737,10.477625015258788,4.399644825744629
1758278422861781000,179.22378100585937,1.8640356300354,10.771513269042968,4.1289504005432125
1758278422871865900,179.23386596679688,2.633023275756836,10.669310785675048,3.91362188873291
1758278422881949700,179.24394970703125,3.065625588226318,10.034996983337402,3.722684306335449
1758278422892033800,179.25403369140625,3.110666506958008,9.392153837585449,3.5506010620117183
1758278422902117600,179.26411767578125,2.8151322395324705,9.02808554763794,3.312228359222412
1758278422912202000,179.2742019042969,2.2991817817687985,8.88144069595337,3.194762840270996
1758278422922286800,179.28428686523438,1.8189947113037108,8.992172522735595,2.9405285514831543
1758278422932370700,179.29437060546874,1.757493656158447,9.49256066970825,2.5137621055603026
1758278422942454800,179.30445483398438,2.1918916198730467,10.207080227661132,2.0878934852600097
1758278422952538600,179.31453857421874,2.5297733291625977,10.889876613616943,2.0675427711486813
1758278422962623700,179.32462377929687,2.588580907440185,11.527781718444825,2.7008091102600096
1758278422972707800,179.33470776367187,2.367566166687012,12.12363865661621,3.5748423538208005
1758278422982791700,179.34479174804687,2.337189733123779,12.58961015472412,4.319139794921875
1758278422992875800,179.35487573242187,2.5016414596557617,12.917166869354247,4.780173252105713
1758278423002959600,179.36495971679688,2.849099975585937,13.003058853912352,5.065382524871826
1758278423013044700,179.37504467773437,3.3066917678833008,12.6023293510437,5.089773454284668
1758278423023128800,179.38512890625,3.6837785293579097,11.611878051757811,4.6821606216430665
1758278423033212700,179.39521264648437,4.0800189041137696,10.484957257843018,4.018068936157226
1758278423043296800,179.405296875,4.599560664367676,9.674370358276366,3.337068201446533
1758278423053380600,179.41538061523437,5.102043737792968,9.287706790161131,2.6910826660156246
