time,seconds_elapsed,z,y,x
1759310161678355200,0.034355224609375,0.26867139494121073,-0.30117315009534357,-0.4084450456820428
1759310161688438300,0.044438232421875,0.28234160837531086,-0.380951620209217,-0.45901963314339517
1759310161698521000,0.05452099609375,0.2743897725880146,-0.4301186789602041,-0.5686825155198574
1759310161708604200,0.064604248046875,0.285769244736433,-0.4616507122993469,-0.6648062634959817
1759310161718687000,0.07468701171875,0.3126315326988697,-0.4694529104828834,-0.72022799872756
1759310161728770300,0.084770263671875,0.2689560571014881,-0.46065644056499,-0.7162130639977753
1759310161738853000,0.09485302734375,0.2595183666706085,-0.43734453856050964,-0.7789277327165007
1759310161748936200,0.104936279296875,0.3077005060374737,-0.48176001887023445,-0.8285648931972682
1759310161759019300,0.115019287109375,0.3021913872271776,-0.5862748708337545,-0.8118120574474335
1759310161769102000,0.12510205078125,0.36528526452183724,-0.7018038687646388,-0.7978463681980967
1759310161779185200,0.13518505859375,0.45097792711555956,-0.705173637458682,-0.7818718233443797
1759310161789268200,0.145268310546875,0.5141735112190247,-0.6787380504757166,-0.7235659109786152
1759310161799351300,0.155351318359375,0.5523094728678465,-0.6812123316347599,-0.6309988325707614
1759310161809434000,0.16543408203125,0.5512795452982187,-0.6564262654244899,-0.5327326657384633
1759310161819517200,0.17551708984375,0.5426654462099075,-0.6182751062065363,-0.43925840935781596
1759310161829599200,0.18559912109375,0.5128782107114792,-0.5282715946763754,-0.33507585808858276
1759310161839682000,0.19568212890625,0.48717561417818067,-0.36206337986588477,-0.31503596349209545
1759310161849765000,0.20576513671875,0.4819710312724113,-0.09114449825882912,-0.28741394320353864
1759310161859848200,0.21584814453125,0.4538689723819494,0.19099603458642958,-0.24427710452750323
1759310161869931300,0.22593115234375,0.33196108706891536,0.3811380826920271,-0.2715339447654784
1759310161880014000,0.23601416015625,0.3179752318143844,0.501488801690936,-0.30739129395782944
1759310161890097200,0.24609716796875,0.40690263854563236,0.5710358006477355,-0.3656637424454093
1759310161900180200,0.25618017578125,0.45215807681083675,0.5280231728732585,-0.39188334859013557
1759310161910263000,0.266262939453125,0.4488485138714313,0.4401531662404537,-0.41511297913864253
1759310161920346400,0.276346435546875,0.5004068516731262,0.3165864078044891,-0.3658550272338092
1759310161930429200,0.28642919921875,0.5671306099027394,0.1292985800862312,-0.24194354701340198
1759310161940512300,0.29651220703125,0.5804658922940492,-0.05375146393179893,-0.030559973436594008
1759310161950595000,0.306594970703125,0.5450444503009318,-0.15797580851614473,0.26686756038963794
1759310161960678100,0.31667822265625,0.4882376904517412,-0.16016601203680036,0.5396892068780959
1759310161970761000,0.326760986328125,0.3809820153474808,-0.03583177635967731,0.7306462246283888
1759310161980844300,0.33684423828125,0.270088276001811,0.18569442104697226,0.88502473930493
1759310161990927000,0.346927001953125,0.18023031042218207,0.43453357279300686,0.9896202552892267
1759310162001010200,0.35701025390625,0.08352116377353667,0.6580337006211281,1.0873619598560034
1759310162011093200,0.36709326171875,-0.027879940572381016,0.8088964622616768,1.1465224432244896
1759310162021176000,0.377176025390625,-0.13826105422079563,0.864564573469758,1.065520861056447
1759310162031259100,0.387259033203125,-0.15034136811494828,0.6826999398440122,0.9573248363621533
1759310162041342200,0.39734228515625,-0.04740940142869949,0.3446481346845627,0.7576037896588445
1759310162051425300,0.40742529296875,0.12264029124081134,-0.09791910696029663,0.5216165207013488
1759310162061508000,0.417508056640625,0.24114801272153852,-0.46467678212225433,0.29855551494285465
1759310162071591200,0.427591064453125,0.14206921433210373,-0.6492021593898535,0.12600421471595763
1759310162081674000,0.437674072265625,0.020686229676008222,-0.5695312413036823,0.12659896573871374
1759310162091757000,0.447757080078125,-0.09358779975771904,-0.23816169038712978,0.26778189875558017
1759310162101840400,0.45784033203125,-0.2213198611795902,0.16658932308256624,0.5295908605813979
1759310162111923200,0.467923095703125,-0.3793447695344686,0.45852410471141336,0.7993560421086847
1759310162122006300,0.47800634765625,-0.5619570066571236,0.5863286468476057,0.9570870820835232
1759310162132089000,0.488089111328125,-0.6105202542960644,0.6105594172626734,1.0542629694610834
1759310162142172200,0.498172119140625,-0.5261702384829521,0.5928355445235968,1.0998344879381359
1759310162152255000,0.5082548828125,-0.4237210868775844,0.5229080218166112,1.0545027695663274
1759310162162338300,0.51833837890625,-0.288751475417614,0.4421837952852249,1.019877446386963
1759310162172421000,0.528421142578125,-0.1338350544720888,0.28059213435947894,0.9516692948184907
1759310162182504200,0.538504150390625,0.038110242685675616,-0.006603928309679031,0.8386873510219156
1759310162192587300,0.548587158203125,0.1742430527061224,-0.3343389221161604,0.7174133796982467
1759310162202669000,0.5586689453125,0.2688455824643373,-0.5915373214066029,0.5652845436446369
1759310162212752100,0.568752197265625,0.3689017014533281,-0.7465349908947945,0.4496528159916401
1759310162222835000,0.5788349609375,0.37498540528118607,-0.8031605489581823,0.3623967034734785
1759310162232917800,0.588917724609375,0.3097153529912233,-0.815798496735096,0.30433789773657915
1759310162243000800,0.599000732421875,0.31019407641887664,-0.8056850989997386,0.303841200260818
1759310162253083600,0.609083740234375,0.2925666497915983,-0.8075777808785438,0.35437516345083714
1759310162263166700,0.619166748046875,0.2314940491914749,-0.8587129248321056,0.3640241585448384
1759310162273249500,0.62924951171875,0.16900749014019964,-0.9289391382247209,0.333110549364984
1759310162283332900,0.639332763671875,0.13528291519284247,-0.9169248753041028,0.2528181383796036
1759310162293415700,0.649415771484375,-0.0017301847934722899,-0.8968097235143184,0.19354279645979403
1759310162303498800,0.659498779296875,-0.2065636060744524,-0.887023073515296,0.2210489352837205
1759310162313581800,0.669581787109375,-0.3556476676046848,-0.8178250341266393,0.3201347479358315
1759310162323664600,0.67966455078125,-0.42864743736386296,-0.6822334913760423,0.3942505161128938
1759310162333747700,0.689747802734375,-0.5033317992091179,-0.5328454784631729,0.45649084531813855
1759310162343830800,0.699830810546875,-0.5785217724889516,-0.4601695338308811,0.5209763231016695
1759310162353913900,0.709913818359375,-0.6392138493388891,-0.4655155710339546,0.5752436276011169
1759310162363996700,0.71999658203125,-0.7070119588017463,-0.4758528406530618,0.5926731935687363
1759310162374079700,0.730079833984375,-0.6904156287878751,-0.3772685477823019,0.5599282773084938
1759310162384162600,0.74016259765625,-0.5829296520590782,-0.23471534932553767,0.5227088459827005
1759310162394245600,0.75024560546875,-0.4252262307435274,-0.09564005611240864,0.6010435470290482
1759310162404328700,0.76032861328125,-0.25296762985289095,-0.10919745682179927,0.7444372879631816
1759310162414411800,0.770411865234375,-0.06648351973295212,-0.22334464500546455,0.8411686464436352
1759310162424494800,0.780494873046875,0.07098258471786975,-0.3866536312431097,0.9184232971683144
1759310162434577700,0.79057763671875,0.24578736295998094,-0.5180331092566252,0.9792163501746952
1759310162444660700,0.80066064453125,0.4375385998278856,-0.5274152701079845,0.9929736573703587
1759310162454743600,0.81074365234375,0.5456488459348678,-0.45294308970868585,1.0285695791475473
1759310162464827000,0.820826904296875,0.5724924291968345,-0.40886663209497925,1.048293831923604
1759310162474909700,0.83090966796875,0.6666495532751083,-0.43351650470495223,1.036030416547507
1759310162484992800,0.84099267578125,0.7372106977105141,-0.48525779785811896,0.99257004500553
1759310162495075600,0.85107568359375,0.7469435716956854,-0.49485681633055206,0.9182140383318066
1759310162505158700,0.86115869140625,0.7490975348591804,-0.4356663762152195,0.8266865321047604
1759310162515241700,0.87124169921875,0.7170300794690847,-0.31770459817945956,0.7188057108394801
1759310162525324800,0.88132470703125,0.7909259212851524,-0.1834749914318323,0.639616877181828
1759310162535407900,0.891407958984375,0.9732388832002877,-0.14433774378597736,0.5399789836049079
1759310162545490700,0.90149072265625,1.164890166825056,-0.12077625093460083,0.40559170207753775
1759310162555573800,0.91157373046875,1.3785738340377807,-0.12439619499742983,0.26828751019015906
1759310162565656600,0.921656494140625,1.5592127252608536,-0.20738895098268983,0.14955270195528864
1759310162575739600,0.93173974609375,1.6309534348696468,-0.4073492132693529,0.06614230507984757
1759310162585821700,0.94182177734375,1.5230565392524003,-0.5411860213071108,0.0038334406830370423
1759310162595904800,0.95190478515625,1.3827876523405314,-0.2802583723604679,-0.04725041147470474
1759310162605987800,0.96198779296875,1.272590663087368,0.387113649970293,-0.025464988385140896
1759310162616070700,0.972070556640625,1.333848557126522,1.1512556092262267,0.06266176948770881
1759310162626153700,0.98215380859375,1.4669535437583923,1.7016168706357477,0.18460487224459646
1759310162636236500,0.992236572265625,1.4227999292552471,1.9022966793686151,0.19360387899726628
1759310162646319600,1.002319580078125,1.123663837945461,1.8221932150840758,0.040394992621988056
1759310162656403000,1.01240283203125,0.7310720488250255,1.6761211948513983,-0.1722070168338716
1759310162666485800,1.02248583984375,0.3576794656932354,1.6341852563977242,-0.4176787379734218
1759310162676568800,1.03256884765625,-0.2699269479602575,1.5641332305282354,-0.7317113696418702
1759310162686651600,1.042651611328125,-1.3296125269919634,1.5443372276902199,-1.1633997821368276
1759310162696734700,1.052734619140625,-2.5905215201139447,1.7597703689187765,-1.7050373466037212
1759310162706817500,1.062817626953125,-3.7266573016196487,2.186239877721667,-2.5294021577626467
1759310162716900900,1.07290087890625,-4.627486782169342,2.6417881814926862,-3.4625668047279117
1759310162726983700,1.082983642578125,-5.390794044166803,2.9897844575613735,-4.137530012840032
1759310162737066800,1.093066650390625,-6.093696229562163,3.1674060467898846,-4.530320539402961
1759310162747149800,1.10314990234375,-6.746362850192189,3.0476772590816017,-4.862485040089488
1759310162757232600,1.113232666015625,-7.17482733220458,2.6131834337770936,-5.3823687456488605
1759310162767315700,1.123315673828125,-7.189457330581545,2.220776353573799,-6.1161214118599885
1759310162777398800,1.133398681640625,-7.051192769229412,2.1838047595292327,-6.768685741159319
1759310162787481900,1.14348193359375,-6.930020212453603,2.402322422769666,-7.12577776235342
1759310162797564700,1.153564697265625,-6.828460703164339,2.7999101204812527,-7.047038572159409
1759310162807647700,1.163647705078125,-6.76573799726963,3.2639830914914607,-6.5302352969586845
1759310162817730600,1.17373046875,-6.603484073042869,3.7248616503745313,-5.75781300061345
1759310162827813600,1.183813720703125,-6.522171232968568,4.068962672570348,-4.979796245262026
1759310162837896700,1.193896728515625,-6.50118689712882,4.434688666597008,-4.258583911672234
1759310162847979800,1.203979736328125,-6.671236005276441,4.873403908988833,-3.5234295619696376
1759310162858062800,1.214062744140625,-6.9919538137972355,5.313171290782094,-2.736502939453721
1759310162868145700,1.224145751953125,-7.425425894838571,5.591427091148495,-1.8456858804829417
1759310162878228700,1.234228759765625,-7.461674435305595,5.74873245305717,-0.7802890841975808
1759310162888311600,1.2443115234375,-6.844094910147786,5.5600739215075965,0.4435790490359068
1759310162898395000,1.254394775390625,-5.684065042835473,4.866722823789716,1.7513304573535917
1759310162908477700,1.264477783203125,-4.405473678028583,3.9196073928833006,2.9672365256667135
1759310162918560800,1.274560791015625,-3.2249697624862192,2.8818922381192444,3.9461464402407405
1759310162928643600,1.2846435546875,-2.2885107501506803,2.0174433999836445,4.6561222172841426
1759310162938726700,1.2947265625,-1.8359039066590368,1.4026380157142877,5.026770177882909
1759310162948809700,1.304809814453125,-1.7698130395054816,1.0207201808214188,5.093655848675966
1759310162958892800,1.314892822265625,-1.852087418088317,0.7736310876131057,4.936942022919655
1759310162968976000,1.324975830078125,-1.9603420411020516,0.48995618480741976,4.788845218861103
1759310162979058700,1.33505859375,-2.009527220031619,0.07456395033597946,4.750040856431425
1759310162989141800,1.345141845703125,-1.988722916933894,-0.4368278212100267,4.733092936500906
1759310162999224600,1.355224609375,-1.7849528871007263,-0.9677046299487352,4.662139577877522
1759310163009307600,1.3653076171875,-1.54834646333158,-1.396492352566123,4.617850354295968
1759310163019390700,1.375390625,-1.3075515018314123,-1.6871230658590792,4.526745019003749
1759310163029472800,1.38547265625,-1.148980065509677,-1.7835715157449243,4.359576726989448
1759310163039555800,1.395555908203125,-1.0643712526299058,-1.6456079831659793,4.116704374693334
1759310163049638700,1.405638671875,-1.1048610839284956,-1.3055202882647514,3.8259059036180374
1759310163059721700,1.4157216796875,-1.3382257492974399,-0.8991805442988872,3.5220462909176944
1759310163069804500,1.425804443359375,-1.5817033740103243,-0.4815174422860145,3.2374723934456706
1759310163079887600,1.4358876953125,-1.8200433435738086,-0.06010229426324367,3.035174043600261
1759310163089971000,1.445970947265625,-1.9541630602061748,0.4129045093089342,2.953216475881636
1759310163100053800,1.4560537109375,-1.9708087823197245,0.9050117346704005,2.88971489456892
1759310163110136800,1.46613671875,-1.9497452437639236,1.5002280368506908,2.8232009796977042
1759310163120219600,1.4762197265625,-1.8651915220722555,2.060885651347041,2.7115964617341755
1759310163130302700,1.486302734375,-1.6665940725713968,2.2643004380017517,2.5599101087510583
1759310163140385500,1.496385498046875,-1.4276625668555498,2.0140490813702345,2.522097972229123
1759310163150468900,1.50646875,-1.0937936003386974,1.4455547818988561,2.610264331459999
1759310163160551700,1.5165517578125,-0.7338152100533246,0.8678612769275903,2.829343135714531
1759310163170634800,1.526634765625,-0.38634967986047264,0.514831098344922,3.0116122584879395
1759310163180717800,1.5367177734375,-0.09923311216831207,0.3579781563788652,3.1656326073765753
1759310163190800600,1.546800537109375,0.11287819116115569,0.3555442072302103,3.30297216283828
1759310163200883700,1.5568837890625,0.20275632274597882,0.4009603890150785,3.424615844257176
1759310163210966800,1.566966796875,0.3566512916892767,0.4966594818383455,3.5582699892044065
1759310163221049900,1.5770498046875,0.44384442197382445,0.8648375451922417,3.7680160247072574
1759310163231132700,1.587132568359375,0.5276525859951973,1.4089263022035359,3.95670349009037
1759310163241215700,1.5972158203125,0.4953378778457641,2.0385276890665294,4.087544038921594
1759310163251298600,1.607298583984375,0.2707628142625093,2.6107459774971007,4.106972962012887
1759310163261381600,1.617381591796875,-0.06520195548981428,3.0420757858127354,3.914696239966154
1759310163271464700,1.627464599609375,-0.3725242758646607,3.1402953370243307,3.5914582653179763
1759310163281547800,1.6375478515625,-0.5206994058564305,2.9159488214999434,3.227560655762255
1759310163291630800,1.647630859375,-0.4446592454880476,2.4731840114563703,2.9074335066109893
1759310163301713700,1.657713623046875,-0.259866157194972,1.9093033432602882,2.6587325942918656
1759310163311796700,1.667796630859375,-0.08471066581904887,1.2775211052268742,2.424601620725542
1759310163321879600,1.677879638671875,0.09063713325858115,0.6261579684108496,2.2597439437411726
1759310163331963000,1.687962890625,0.21301468190997838,-0.01892389617860317,2.067892022977769
1759310163342045700,1.698045654296875,0.30913901440799235,-0.6227344237029552,1.8806623551875352
1759310163352128800,1.708128662109375,0.36550387570858,-1.101065637168288,1.6736713174812494
1759310163362211600,1.718211669921875,0.38442484927773474,-1.487150528612733,1.4622105870150028
1759310163372294700,1.728294677734375,0.35382717417925597,-1.7870313008099794,1.2767125653229654
1759310163382377700,1.738377685546875,0.35867227612286806,-2.0051380451619623,1.1287062160268426
1759310163392460800,1.748460693359375,0.2498009825155139,-2.1779180395781994,1.0342363727375865
1759310163402543900,1.7585439453125,0.21216741743087766,-2.2399270442456007,0.9632876902893185
1759310163412626700,1.768626708984375,0.013327683606743811,-2.0978601680010556,0.857481337210536
1759310163422709800,1.778709716796875,-0.2849124817766249,-1.9111217908591032,0.7008531439110637
1759310163432792600,1.78879248046875,-0.595453618067503,-1.665925964051485,0.5318571250129491
1759310163442875600,1.798875732421875,-0.8621212719708681,-1.4264175352305173,0.3962744231559336
1759310163452958700,1.808958740234375,-1.1056477042615414,-1.1980325579702853,0.21854630481302736
1759310163463041800,1.819041748046875,-1.3454483940273523,-0.9285276348143815,-0.003110021779313683
1759310163473124900,1.829124755859375,-1.5638935765534638,-0.6336234819859266,-0.29514563343413175
1759310163483207700,1.839207763671875,-1.7229624410033224,-0.4061462672203779,-0.5852947737552225
1759310163493290800,1.849290771484375,-1.804637684649229,-0.3749456577926874,-0.8390678747721015
1759310163503373600,1.85937353515625,-1.807457418245077,-0.5928261921733617,-1.0815315732020885
1759310163513457000,1.869456787109375,-1.6927379831314087,-0.9297223975569009,-1.1595024824373423
1759310163523539700,1.879539794921875,-1.4523093707256018,-1.2789917623013258,-1.1153900036621838
1759310163533622800,1.889622802734375,-1.1279174037367106,-1.6179600977838038,-0.9905706878818571
1759310163543705600,1.89970556640625,-0.7641804646354168,-1.9509405910283326,-0.8336234186958521
1759310163553788700,1.90978857421875,-0.5450432812571525,-2.2104431756079195,-0.607265490283817
1759310163563871700,1.919871826171875,-0.4250293199319392,-2.3663486075907945,-0.40013500757422293
1759310163573954800,1.929954833984375,-0.3934463601231575,-2.416755437269807,-0.262898656758666
1759310163584038000,1.940037841796875,-0.42304486811645325,-2.360471239989996,-0.17686558322943746
1759310163594120700,1.95012060546875,-0.48645730984099206,-2.226899804890156,-0.11882555525824427
1759310163604203800,1.960203857421875,-0.5366537116397172,-1.8609031772285698,-0.09991371484361589
1759310163614285800,1.970285888671875,-0.5798995636481792,-1.2754337775588034,-0.06390906613506377
1759310163624368600,1.98036865234375,-0.5567484051633625,-0.6941425403565168,0.001003770215064287
1759310163634451700,1.99045166015625,-0.5243425115991384,-0.1745177779942751,0.034929347627237435
1759310163644534800,2.00053466796875,-0.5186597897876054,0.23811902028918264,0.048619727066531775
1759310163654617900,2.010617919921875,-0.4692413135588169,0.6343558879137039,-0.09080905575938522
1759310163664700700,2.02070068359375,-0.47071898489594455,1.0790268238395453,-0.24021445819847284
1759310163674783700,2.03078369140625,-0.5077034384220839,1.6486451589047908,-0.4619721262734383
1759310163684866600,2.040866455078125,-0.5317851557552814,2.559262458497286,-0.670671429202333
1759310163694949600,2.05094970703125,-0.5911905537955463,3.8422751468777654,-0.9224127321306616
1759310163705032700,2.06103271484375,-0.7306137836635113,5.212544678428769,-1.1209106667798012
1759310163715115800,2.07111572265625,-0.9745893479611724,6.335728039380908,-1.2658064097747206
1759310163725198800,2.08119873046875,-1.3242897245340048,6.8304936702966685,-1.3598212027728558
1759310163735281700,2.09128173828125,-1.6463615780122578,6.711147744426131,-1.4273366959020495
1759310163745364700,2.10136474609375,-1.6286990800715981,6.267726516300439,-1.5152318369761109
1759310163755447600,2.111447509765625,-1.4386463176846502,6.0133560339123004,-1.7191130720987915
1759310163765531000,2.12153076171875,-1.358691468090564,5.875387825158238,-2.00330527677685
1759310163775613700,2.13161376953125,-1.4570125799804925,5.5226785490930075,-2.2944953775182366
1759310163785696800,2.14169677734375,-1.637771882712841,4.93521592977941,-2.406882862553
1759310163795779600,2.151779541015625,-1.703252362883091,4.104293513670563,-2.2928803435370324
1759310163805862700,2.161862548828125,-1.5325293009966612,3.2608588219910857,-2.0227298159539697
1759310163815945700,2.17194580078125,-1.1535307145513594,2.599630709242821,-1.773954377093911
1759310163826028800,2.18202880859375,-0.6841358178660273,2.16404148991704,-1.5509079843826592
1759310163836112000,2.19211181640625,-0.23540698485150932,1.8212088802218436,-1.3722928540721535
1759310163846194700,2.202194580078125,0.06238587515577673,1.663726992702484,-1.3026638759203255
1759310163856277800,2.21227783203125,0.19118162028640506,1.5747487325668335,-1.31569652210325
1759310163866360600,2.222360595703125,0.28474808499515053,1.4789496865004301,-1.4106843979172408
1759310163876443600,2.232443603515625,0.3141195792995393,1.1315689119815826,-1.5240677621215581
1759310163886526700,2.242526611328125,0.33397461884841323,0.3987210856556892,-1.7257848049476743
1759310163896609800,2.25260986328125,0.6103248778544366,-0.5559615656346082,-1.9500440805800259
1759310163906692900,2.26269287109375,1.1232913513712584,-1.3790952275633812,-2.1190141613192854
1759310163916775700,2.272775634765625,1.5971436658568678,-1.889111034581065,-2.1646580143801866
1759310163926858800,2.282858642578125,1.7387948009073733,-1.8406746281921862,-1.9349175308577715
1759310163936941600,2.292941650390625,1.5416105792053043,-1.3673977755069733,-1.5164591868139803
1759310163947025000,2.30302490234375,1.075179500761628,-0.8019055804610252,-0.9825283973321318
1759310163957107700,2.313107666015625,0.49509047895595426,-0.40744215224981306,-0.5620027454949915
1759310163967190800,2.323190673828125,0.15697963708564638,-0.26065000104904174,-0.24385208404846487
1759310163977273600,2.333273681640625,0.18088555946052073,-0.40385552593469615,-0.03311126535460353
1759310163987356700,2.343356689453125,0.47093408895134925,-0.8171879052668809,0.1790497954007238
1759310163997439700,2.353439697265625,0.8549778299570083,-1.3624457060575483,0.4794886398721486
1759310164007522800,2.363522705078125,1.104491373833269,-1.9501433031708002,0.7619931837242097
1759310164017606000,2.37360595703125,1.212101853724569,-2.4411703320801257,0.9720628251582384
1759310164027688700,2.383688720703125,1.2531662700407207,-2.783669179776311,1.0077182951029389
1759310164037771800,2.393771728515625,1.1702385421156882,-3.0408038661807772,0.870420240695402
1759310164047854600,2.4038544921875,1.0484713804475962,-3.255428029114008,0.6987417777802795
1759310164057937700,2.413937744140625,0.9916079219751059,-3.446133556321263,0.47520752848684783
1759310164068020700,2.424020751953125,0.8861723019048571,-3.6068770759850737,0.2688224938496947
1759310164078103800,2.434103759765625,0.795109928971529,-3.788095812922716,0.14641908010467886
1759310164088186600,2.4441865234375,0.598939122095704,-4.032991780000925,0.0878046863116324
1759310164098269700,2.454269775390625,0.44059389574527735,-4.209861674079299,0.1484939866825938
1759310164108352800,2.464352783203125,0.22258447428792713,-4.294448421257734,0.22295593794882296
1759310164118435600,2.474435546875,-0.03332476197481155,-4.285443277025222,0.3375624142073095
1759310164128519000,2.484518798828125,-0.3508256542757153,-4.117725826695561,0.4548910089060664
1759310164138601700,2.494601806640625,-0.706479167099297,-3.807722304412722,0.5602275525160133
1759310164148684800,2.504684814453125,-1.1317276096746325,-3.389128059029579,0.6839353268578648
1759310164158767600,2.514767578125,-1.6032798305243252,-2.9052216757804152,0.7949629217162728
1759310164168850700,2.5248505859375,-2.0507573483034967,-2.3370441871732472,0.8969367108948528
1759310164178933500,2.53493359375,-2.4457877627477047,-1.7103753466308116,0.9675761812634766
1759310164189016800,2.545016845703125,-2.740707113145292,-1.0449895296812057,1.098777818492055
1759310164199100000,2.555099853515625,-3.0001144206568595,-0.38958617756366726,1.2821509569846092
1759310164209182700,2.5651826171875,-3.1639164511084554,0.1812584844261408,1.6140996229633688
1759310164219265800,2.575265869140625,-3.172760851821303,0.6303185952216387,2.006690827561915
1759310164229348600,2.5853486328125,-3.0217858619779348,1.1529425393998622,2.430580987396091
1759310164239431700,2.595431640625,-2.7370594042927023,1.7380857758551835,2.953660420256853
1759310164249514800,2.6055146484375,-2.3676725496709343,2.398988894432783,3.541639172399044
1759310164259597800,2.615597900390625,-1.9247060795754194,2.901401240709424,4.181121901807189
1759310164269680600,2.6256806640625,-1.3681181987360118,2.9425159259080886,4.779879529856145
1759310164279763700,2.635763671875,-0.7766022123783827,2.401521043258905,5.219392352366447
1759310164289846800,2.6458466796875,-0.11931260812282561,1.5958552334815264,5.431677258697152
1759310164299929600,2.6559296875,0.6290604118540882,0.8691764511793851,5.380612841892242
1759310164310013000,2.666012939453125,1.2176666482448577,0.3619371231377125,5.118691505733132
1759310164320095700,2.676095703125,1.550384983421862,0.0419581502854824,4.734585805407166
1759310164330178800,2.6861787109375,1.7185364412546156,-0.04176291997432709,4.315472504585981
1759310164340261600,2.69626171875,1.781988922728598,0.03166179719865322,4.024345532208681
1759310164350344700,2.7063447265625,1.7380840222895144,0.29142741662859917,3.8045685165569183
1759310164360427500,2.716427490234375,1.598100966581702,0.8140127823621034,3.4904879540935156
1759310164370510800,2.7265107421875,1.4128995897486805,1.4757798242926596,3.093563980987668
1759310164380593700,2.73659375,1.128389989684522,2.146095498859882,2.6980840692102905
1759310164390676700,2.7466767578125,0.8748749550819397,2.704103475630283,2.2931305189058184
1759310164400759800,2.756759765625,0.7077297516822815,3.16924203004539,1.7971324235856532
1759310164410842600,2.766842529296875,0.6169099553331733,3.517318970134854,1.1597578454378992
1759310164420925700,2.77692578125,0.5145537427082657,3.582928045120835,0.365565908094123
1759310164431008800,2.7870087890625,0.4442471575558185,3.251584213167429,-0.3716084761939943
1759310164441091800,2.797091796875,0.4589160266384482,2.5855647744894026,-0.9129311294928193
1759310164451174700,2.807174560546875,0.5899091356828808,1.8194523919433354,-1.1893365527521818
1759310164461257700,2.8172578125,0.8318167346000671,1.1860890221983194,-1.2347853946976364
1759310164471340500,2.827340576171875,1.1039853240072726,0.9253834915697574,-1.2269719444677234
1759310164481423600,2.837423583984375,1.1472699005909264,0.8620809399604796,-1.3064581536367534
1759310164491506700,2.847506591796875,1.0200367286019028,0.7831932812064886,-1.4721142875224351
1759310164501589800,2.85758984375,0.8323543486081063,0.6469172633230685,-1.639360613209009
1759310164511672800,2.8676728515625,0.6951829162549227,0.5272545265883207,-1.6638023960262536
1759310164521754600,2.877754638671875,0.6294049875080585,0.3474742980211973,-1.5491495964080095
1759310164531838700,2.887838623046875,0.5464391925949603,0.0674643474638462,-1.3051494091257452
1759310164541920800,2.897920654296875,0.4397626325529068,-0.39204643019735813,-1.1248800818674265
1759310164552003600,2.908003662109375,0.2684930426996201,-0.9000468057394028,-1.000810123149678
1759310164562087000,2.9180869140625,0.09373214013185352,-1.3757359802633524,-0.9814813724972307
1759310164572169700,2.928169677734375,-0.0520621956706047,-1.7293378212541342,-1.019483697829023
1759310164582253600,2.938253662109375,-0.15585863369908182,-2.004573397016525,-1.0409439075522124
1759310164592335600,2.948335693359375,-0.25840543699264523,-2.2470044352859255,-1.0597565984413027
1759310164602418700,2.958418701171875,-0.31965222511589525,-2.488138419482112,-1.0348533355921505
1759310164612501500,2.96850146484375,-0.3853314427286386,-2.747254635092616,-0.9104189274761825
1759310164622584800,2.978584716796875,-0.44573651933073993,-3.0523797376841304,-0.7483639598876237
1759310164632668000,2.98866796875,-0.470309819573164,-3.3623324065625666,-0.59287616879493
1759310164642750700,2.998750732421875,-0.48868835682868955,-3.656154609373212,-0.4587408892672509
1759310164652833800,3.008833740234375,-0.4515308848232031,-3.890717398485541,-0.38052053531557317
1759310164662916600,3.01891650390625,-0.41371407212615013,-4.055317593577504,-0.3989282986655831
1759310164672999700,3.028999755859375,-0.47024610668718814,-4.128945724368095,-0.4792159604106098
1759310164683082800,3.039082763671875,-0.5711182182341814,-4.147972496399283,-0.60544148972705
1759310164693165800,3.049165771484375,-0.6691904699295759,-4.0374738938510415,-0.7223135728299618
1759310164703248600,3.05924853515625,-0.6786386817544698,-3.7191637309938668,-0.845590846800059
1759310164713331700,3.069331787109375,-0.6113175421535968,-3.178278153938055,-0.9047001845031977
1759310164723414800,3.079414794921875,-0.541847700086236,-2.472508888673782,-0.8503226976275443
1759310164733497600,3.08949755859375,-0.6035410629332065,-1.6070219396620988,-0.7343675832390785
1759310164743581000,3.099580810546875,-0.7001929264366626,-0.639601971873641,-0.5612720931328833
1759310164753663700,3.109663818359375,-0.7805641017466783,0.4419476484417915,-0.3959625807277858
1759310164763746800,3.119746826171875,-0.9380682010978459,1.7252204490631817,-0.2766357979491353
1759310164773829600,3.12982958984375,-1.1340192277431487,3.1596137854784727,-0.20033508694842456
1759310164783912700,3.13991259765625,-1.3022475502043962,4.576859587737918,-0.0505614357188344
1759310164793995500,3.14999560546875,-1.3973188665181397,6.021117900085449,0.19903993257135152
1759310164804078800,3.160078857421875,-1.4876877042293548,7.271032036462426,0.44697190634459255
1759310164814161700,3.17016162109375,-1.4705103594571352,7.995677267110347,0.7604168012529611
1759310164824244700,3.18024462890625,-1.3722475536257028,8.074905117604136,1.016937447412312
1759310164834327800,3.190327880859375,-1.146889230710268,7.899851917558908,1.105288515560329
1759310164844410600,3.20041064453125,-0.802259727660939,7.722335542270541,1.003152521557361
1759310164854493700,3.21049365234375,-0.5083861599892378,7.537199924150109,0.8695997911579907
1759310164864576800,3.22057666015625,-0.36397242835760113,7.065034832099079,0.7749518148228526
1759310164874659800,3.230659912109375,-0.34103754297196864,6.1963534709602595,0.550076014727354
1759310164884742700,3.24074267578125,-0.3264771026998758,5.029349088460207,0.2012925338037312
1759310164894825700,3.25082568359375,-0.3466683154005557,3.961733300951123,-0.23411212273538112
1759310164904908500,3.260908447265625,-0.46482926927022633,2.9150165090858935,-0.7618276909641921
1759310164914991600,3.27099169921875,-0.4989326144021004,1.810288842278719,-1.2996857368923722
1759310164925074700,3.28107470703125,-0.3275269040137529,0.8558242176532744,-1.7045085004240272
1759310164935157800,3.29115771484375,0.03539806111752987,0.16161504180133343,-2.007865132038295
1759310164945240800,3.30124072265625,0.37311895382218063,-0.3430260864406824,-2.183845091539621
1759310164955323600,3.31132373046875,0.6224462544113397,-0.676590517053008,-2.275630956441909
1759310164965406700,3.32140673828125,0.7425987474244088,-0.8107435514330863,-2.324955689972639
1759310164975489500,3.331489501953125,0.8009422883868217,-0.8327911325901747,-2.325356964249909
1759310164985572900,3.34157275390625,0.8652491216678172,-0.7732318591624497,-2.1466249295614657
1759310164995655700,3.35165576171875,0.8652495600592345,-0.6987906584233046,-1.7691496071606874
1759310165005738800,3.36173876953125,0.7841115650951862,-0.6239812088936567,-1.275779814517498
1759310165015821600,3.371821533203125,0.665398676431179,-0.6079769995540381,-0.9322387642920017
1759310165025904600,3.381904541015625,0.5591291628200561,-0.6318652401417494,-0.690810327193886
1759310165035987700,3.39198779296875,0.457310637268424,-0.6632265930891037,-0.5942867662452161
1759310165046070800,3.40207080078125,0.38646424615085123,-0.6894295403599738,-0.5308977053962648
1759310165056153900,3.41215380859375,0.36103166219796984,-0.7790659721434116,-0.4794056377638131
1759310165066236700,3.422236572265625,0.46231823629736896,-0.997839655971527,-0.3755658355176449
1759310165076319700,3.43231982421875,0.738982383558154,-1.3193021453797817,-0.25306626792177556
1759310165086402600,3.442402587890625,1.0692051025271414,-1.6623340770393609,-0.15930661872848867
1759310165096485600,3.452485595703125,1.292456808552146,-2.0093477718114854,-0.2063098505090922
1759310165106568700,3.462568603515625,1.387133572590351,-2.3282032935917374,-0.30868126070313157
1759310165116651800,3.47265185546875,1.3580647144943474,-2.630477098405361,-0.4482759746804833
1759310165126734800,3.48273486328125,1.263327160179615,-2.859025741794705,-0.5425673926629125
1759310165136817700,3.492817626953125,1.1691816534738988,-3.0431179883420465,-0.6505730093516409
1759310165146900700,3.502900634765625,1.0274714086472987,-3.1900568545371293,-0.6936332756601273
1759310165156983600,3.512983642578125,0.8668822027623653,-3.3144203163087367,-0.697121410036832
1759310165167067000,3.52306689453125,0.6760417971290648,-3.4145565147966144,-0.647215807878226
1759310165177149700,3.533149658203125,0.494813488645479,-3.48026905015707,-0.5637095494128763
1759310165187232800,3.543232666015625,0.3294551686625927,-3.513738189038634,-0.4565016589730978
1759310165197315600,3.553315673828125,0.17082710678279397,-3.5233909835249184,-0.3043113019905984
1759310165207398700,3.563398681640625,0.031538024688512085,-3.483391566091776,-0.12929945686906574
1759310165217481700,3.573481689453125,-0.11924714167118072,-3.4076948123335837,0.07391922269165516
1759310165227564800,3.583564697265625,-0.2816834367275238,-3.3045787212520836,0.2250118475653231
1759310165237647400,3.5936474609375,-0.3988946886569261,-3.12032339309752,0.3979628146342933
1759310165247730400,3.60373046875,-0.4880097269147634,-2.7831068697184325,0.5613441354557871
1759310165257813500,3.6138134765625,-0.5372545270770788,-2.3777952997565266,0.6924537104867399
1759310165267896300,3.623896240234375,-0.745045629119873,-1.7971914602965116,0.8882157904312014
1759310165277979400,3.6339794921875,-0.9621963879212736,-1.2524059531927108,1.0733675559688358
1759310165288062200,3.644062255859375,-1.2158882403954863,-0.6654542060106993,1.3363487033791839
1759310165298145300,3.654145263671875,-1.3779491262681782,0.05500409434139728,1.6894450790658593
1759310165308228600,3.664228515625,-1.4717925082221626,0.8273422195345163,2.045809078246355
1759310165318311400,3.6743115234375,-1.5299515594631432,1.5279495719909668,2.4250477570578455
1759310165328394500,3.68439453125,-1.5956249318569897,2.052735078117251,2.7441619297742843
1759310165338477300,3.694477294921875,-1.5523089372217653,2.307296114641428,3.01136968190372
1759310165348560400,3.704560302734375,-1.424204243095219,2.318795413777232,3.1296386261925098
1759310165358643200,3.714643310546875,-1.1869573294654487,2.1267232743918894,3.0530332331568
1759310165368726500,3.7247265625,-0.8821008146822452,1.9132395136654377,2.8385674756556747
1759310165378809300,3.734809326171875,-0.5899599890872835,1.7587965554505585,2.6002631619274617
1759310165388892400,3.744892333984375,-0.31971096956580874,1.6538912428647279,2.4320595355160535
1759310165398975500,3.7549755859375,-0.09263064516335726,1.5421557919979094,2.3830288164958358
1759310165409058300,3.765058349609375,0.1875336191728711,1.4621879367917776,2.384736497196555
1759310165419141400,3.775141357421875,0.38455724348574877,1.4147031320393084,2.3216122247636317
1759310165429224400,3.785224365234375,0.3999193555295467,1.3529700217038392,2.175816683384776
1759310165439307500,3.7953076171875,0.2869192915543914,1.4427011460334063,1.985532742590457
1759310165449390300,3.805390380859375,0.07671060697585344,1.6930583011269569,1.8319290116786955
1759310165459473400,3.815473388671875,-0.2348641101464629,2.14113875323534,1.7468115186244249
1759310165469556200,3.82555615234375,-0.5062333658695221,2.7589304598391053,1.678259375923872
1759310165479639300,3.835639404296875,-0.7553308762907981,3.364239701488614,1.6394705033242702
1759310165489722400,3.845722412109375,-0.8938555498838424,3.8949762249737976,1.6594621748648584
1759310165499805400,3.855805419921875,-0.7638605119660496,4.242349400708079,1.7104036959424613
1759310165509888500,3.865888427734375,-0.44814124238491054,4.245810354816913,1.801382043854147
1759310165519971300,3.875971435546875,0.0897334624171257,3.8389498018473383,1.9756078531645238
1759310165530054400,3.886054443359375,0.8896013995707035,3.276472570708394,2.211739937420189
1759310165540137200,3.89613720703125,1.7838222756356,2.8648867427825926,2.3321146218165754
1759310165550220500,3.906220458984375,2.4877172714605926,2.39435071323812,2.3266011190921065
1759310165560303400,3.916303466796875,2.899299299994111,1.6662936283200978,2.154250894395262
1759310165570386400,3.926386474609375,3.2316420798569916,0.927633316323161,1.849888446739316
1759310165580469200,3.93646923828125,3.300236308133602,0.32225393204689023,1.4154197558760642
1759310165590552300,3.94655224609375,3.0933319257974623,-0.1891132895797491,0.9811871387910097
1759310165600635400,3.956635498046875,2.570013569614291,-0.717009036681056,0.5964356879074126
1759310165610718500,3.966718505859375,1.8154774969629943,-1.154511396151781,0.2019993668988347
1759310165620801500,3.976801513671875,0.8893677369453012,-1.4567495451301335,-0.3399931484855711
1759310165630884400,3.98688427734375,-0.04651800554692745,-1.7136317180782557,-0.9656556615296751
1759310165640967400,3.996967529296875,-0.8311778521746397,-1.9824831457614898,-1.6717276360675692
1759310165651050200,4.00705029296875,-1.334871324303001,-2.3158161057054993,-2.388124678330123
1759310165661133300,4.01713330078125,-1.6708048221342264,-2.6966929071128365,-2.9348057899221778
1759310165671216400,4.02721630859375,-1.9077894315659998,-3.0730010854303833,-3.271175633344054
1759310165681299500,4.037299560546875,-2.1295592284701765,-3.5305227351009845,-3.327226898650825
1759310165691382500,4.047382568359375,-2.3128389895908534,-4.005651353132724,-3.0997268875315784
1759310165701465300,4.05746533203125,-2.3979022682398554,-4.4801673922240735,-2.6654543037623166
1759310165711548400,4.06754833984375,-2.401995090511441,-4.846622285047173,-2.0462240887880325
1759310165721631200,4.07763134765625,-2.36357738931179,-5.145452086886763,-1.3610663805283605
1759310165731714600,4.087714599609375,-2.1679447809658945,-5.349551348674297,-0.7102270483907311
1759310165741797400,4.09779736328125,-1.9345096807092428,-5.420451515805721,-0.1264656947478652
1759310165751880400,4.10788037109375,-1.6360586490541695,-5.384589928829669,0.42444530949890613
1759310165761963300,4.11796337890625,-1.3704938418261705,-5.247191628918052,0.9261560833774507
1759310165772046300,4.12804638671875,-1.2156401108533144,-5.005080324122309,1.3683740731932221
1759310165782129400,4.13812939453125,-1.0289940881699322,-4.668295177897811,1.7008119839936493
1759310165792212500,4.14821240234375,-0.8568729229886084,-4.256920946896076,1.8417039712399244
1759310165802295600,4.158295654296875,-0.7378398624595254,-3.8669250194877383,1.8215704070106147
1759310165812378400,4.16837841796875,-0.6467313853621482,-3.4153526336103677,1.7153787078760563
1759310165822461400,4.17846142578125,-0.6040722472004592,-2.715133403688669,1.615792398355901
1759310165832544300,4.188544189453125,-0.5964052197039127,-1.6449001271575687,1.568585533761978
1759310165842627300,4.19862744140625,-0.7943157098539173,-0.12336217577457427,1.5891132118754088
1759310165852710400,4.20871044921875,-1.4528446466460823,1.877325904241204,1.6395700181759894
1759310165862793500,4.21879345703125,-2.470528528511524,3.9665556065410374,1.6197040188416838
1759310165872876300,4.228876220703125,-2.976535099887848,5.482914693981408,1.3181148352913559
1759310165882959400,4.23895947265625,-2.708128493362665,5.98956014778316,0.9945295815754681
1759310165893042400,4.24904248046875,-2.3343273294299838,5.911432367485761,0.8567040692277252
1759310165903125200,4.259125244140625,-2.19645439774394,6.2692620553046465,0.9604984248969703
1759310165913208600,4.26920849609375,-2.163772025325894,7.708432104602456,1.0646753501430153
1759310165923291400,4.27929150390625,-2.08496503059268,9.87662428445816,1.1280593694906682
1759310165933374500,4.28937451171875,-2.147619931948185,11.762619232845307,1.3143565056711435
1759310165943457300,4.299457275390625,-2.17750595164597,12.12427227834463,1.3781824966326355
1759310165953540400,4.309540283203125,-1.6782096915632485,10.528436334085464,1.0868409316565841
1759310165963623200,4.319623046875,-0.5441027855366468,7.883104196375608,0.5413709859525785
1759310165973705200,4.329705322265625,0.8661170636087655,5.67795445100069,-0.06438234620261937
1759310165983789600,4.33978955078125,1.6697259408563374,3.9686575472563503,-0.965729457418248
1759310165993871400,4.349871337890625,1.8610867171019314,2.5506518665403126,-2.027684223490953
1759310166003954400,4.359954345703125,1.452039467743039,1.5419307510703801,-3.0923914300769564
1759310166014037200,4.370037353515625,0.8298930730611085,1.0104314265191554,-4.143334607465565
1759310166024120300,4.380120361328125,0.4742196499606594,0.8947428541123866,-5.205649658218026
1759310166034203400,4.390203369140625,0.5738560822328552,1.0582651908397673,-6.101035486409068
1759310166044286500,4.400286376953125,1.0173545037806033,1.1184791287839413,-6.6383478811532255
1759310166054369500,4.41036962890625,1.3442483705878256,0.8377917173564433,-6.626958472132682
1759310166064452400,4.420452392578125,1.5048878453552723,0.294601955011487,-6.031475043448806
1759310166074535400,4.430535400390625,1.647258672982454,-0.187183198300004,-5.183829456076026
1759310166084618200,4.4406181640625,1.9204308864742516,-0.44796354773044583,-4.441242618285119
1759310166094701300,4.450701416015625,2.1362276003181933,-0.5088882642924786,-3.90750486715734
1759310166104784400,4.460784423828125,2.190024656957388,-0.4332195675849914,-3.528029749241471
1759310166114867500,4.470867431640625,2.057535756397247,-0.2827414213478565,-3.0764415812730785
1759310166124950500,4.480950439453125,1.9214619830876587,-0.204214412599802,-2.4302102543875574
1759310166135033300,4.491033447265625,1.8871166458934545,-0.33872809698581696,-1.52881086499542
1759310166145116400,4.501116455078125,1.8444915561318396,-0.6835252847522497,-0.6949328139513731
1759310166155199200,4.51119921875,1.820027561482787,-1.189101648017764,-0.0607114391375333
1759310166165282600,4.521282470703125,1.7849644314080475,-1.7465508218616246,0.3190461855141446
1759310166175365400,4.531365478515625,1.5903198111861943,-2.3236861084282396,0.5032814572613686
1759310166185448400,4.541448486328125,1.3620266038626432,-2.869296960440278,0.5820480469189584
1759310166195531300,4.55153125,1.0567120431136339,-3.3881443086892364,0.5948148087073117
1759310166205614300,4.5616142578125,0.7494551161251962,-3.8207664949029683,0.6077220749448985
1759310166215697400,4.571697509765625,0.36998613568916916,-4.1435196086436505,0.6793989986024797
1759310166225780500,4.581780517578125,-0.021026275285333393,-4.354880385866761,0.8023861305195837
1759310166235863600,4.591863525390625,-0.3968874404877424,-4.492821122092009,0.9877462050456554
1759310166245946400,4.6019462890625,-0.7229425183832645,-4.496068725711107,1.2240290228836237
1759310166256029400,4.612029541015625,-1.1097422800987957,-4.498752850228548,1.478446120892465
1759310166266112300,4.6221123046875,-1.409403564326465,-4.507419556286931,1.7324882481090724
1759310166276195300,4.6321953125,-1.5799727508254349,-4.484626709720492,2.002870977012813
1759310166286278100,4.642278076171875,-1.7798722228355706,-4.51379902819097,2.1845764745540914
1759310166296361500,4.652361572265625,-1.9806424863308667,-4.586016707661748,2.293551520796865
1759310166306444300,4.6624443359375,-2.1548048750162123,-4.593035061991214,2.315638557181507
1759310166316527400,4.67252734375,-2.274865963418782,-4.517729353377223,2.2989758839331564
1759310166326610400,4.6826103515625,-2.351962939363718,-4.29857748388648,2.2648680087566375
1759310166336693200,4.692693359375,-2.4058014970570802,-3.9638486856698987,2.2104875992715356
1759310166346776300,4.7027763671875,-2.4199390357419848,-3.5022903278291224,2.089153129932284
1759310166356859400,4.712859375,-2.470095690052211,-3.019512071827054,1.931737877908349
1759310166366942500,4.7229423828125,-2.578890995813906,-2.630522106590867,1.694868857680261
1759310166377025300,4.733025390625,-2.6853280480116606,-2.2675644082337616,1.4459177699923516
1759310166387108400,4.7431083984375,-2.6893083498194814,-1.7480618109464645,1.150677224816382
1759310166397191200,4.753191162109375,-2.533376322090626,-1.0881856973290442,0.8150289736673235
1759310166407274200,4.763274169921875,-2.2830726507499812,-0.3651648530125618,0.47302302405461666
1759310166417357600,4.773357666015625,-1.9547417368769644,0.3553010461241007,0.13374167710021137
1759310166427440400,4.7834404296875,-1.4928306200757622,1.1783411845505236,-0.15453516654297708
1759310166437523500,4.7935234375,-1.0376078949972987,2.21696994702816,-0.33224107305407524
1759310166447606300,4.803606201171875,-0.6911597251534461,3.6092443896383046,-0.287758226596564
1759310166457689300,4.813689453125,-0.5241550992682575,5.37694321346879,0.005243161350488662
1759310166467772200,4.823772216796875,-0.4316963035404682,7.146272268849611,0.5283036703150719
1759310166477855500,4.83385546875,-0.11695990751683712,8.300113802915812,1.1293567888900637
1759310166487938300,4.843938232421875,0.5267942156001925,8.392173077932,1.7591447843663393
1759310166498021400,4.854021484375,1.5080213210754096,7.5393445349633685,2.177883991178125
1759310166508104400,4.8641044921875,2.564520817416906,6.654536214888095,2.1431910095900295
1759310166518187300,4.874187255859375,3.2199899282470343,5.976353460207581,1.7783453055292366
1759310166528270300,4.884270263671875,3.5108518199473617,5.21308360761106,1.4022186212584375
1759310166538353400,4.894353515625,3.601240531402826,4.349555391451716,1.172179593180865
1759310166548436500,4.9044365234375,3.6074703657031058,3.529067275595665,1.080168395090103
1759310166558519300,4.914519287109375,3.6354081739425657,2.8586434644788503,1.0629374204345048
1759310166568602400,4.924602294921875,3.6231390594780444,2.428662732684612,1.1520987820520996
1759310166578685200,4.934685302734375,3.420276061487198,2.003029674705863,1.2927461468875407
1759310166588768300,4.944768310546875,3.0578783351004124,1.4505150346547364,1.4069121859021485
1759310166598851300,4.954851318359375,2.5847517045408486,0.7292629535764455,1.4420064417675136
1759310166608934400,4.964934326171875,2.1384166347950697,-0.08724924438595771,1.3779757220141589
1759310166619017500,4.975017578125,1.7275677428416907,-0.8417103521049022,1.2122904350992292
1759310166629100300,4.985100341796875,1.408234228286147,-1.344313252517581,1.0041273579388856
1759310166639183400,4.995183349609375,1.2342319985985755,-1.586124113062024,0.8832190050572156
1759310166649266200,5.00526611328125,1.0650094044029712,-1.6293687960267067,0.9130164696887135
1759310166659349500,5.015349609375,0.8820090447455644,-1.6396131266653537,1.1068399827860296
1759310166669432300,5.025432373046875,0.7323821085102856,-1.6916566176354884,1.4237991694256662
1759310166679515400,5.035515380859375,0.5756026701718568,-1.8276696006685493,1.6524910206779837
1759310166689598200,5.04559814453125,0.4394956521797925,-2.0671283451288938,1.7386951399251818
1759310166699681300,5.055681396484375,0.30383915443420406,-2.3572493553340435,1.6141203734904526
1759310166709764400,5.065764404296875,0.11232523345351218,-2.6268320199012756,1.2979551137074827
1759310166719847400,5.075847412109375,-0.09171097303517162,-2.9003987856686115,0.8830445252731441
1759310166729930500,5.085930419921875,-0.3339268341839313,-3.1622359506756066,0.47755299563445147
1759310166740013300,5.096013427734375,-0.5264256745487451,-3.359149684873223,0.13721077798288314
1759310166750096400,5.106096435546875,-0.6687713677346706,-3.4945594413161274,-0.09203207648200913
1759310166760179200,5.11617919921875,-0.7329214760839938,-3.6196360197931527,-0.23465479651102794
1759310166770262300,5.12626220703125,-0.7662310404896736,-3.744896722665429,-0.2930825268918648
1759310166780345300,5.136345458984375,-0.7840507017534226,-3.8255443768292663,-0.3242207386078313
1759310166790428400,5.146428466796875,-0.8006020966470241,-3.8517566764503717,-0.284790864690952
1759310166800511500,5.156511474609375,-0.8524725691378117,-3.8175884493887424,-0.25157111572688445
1759310166810594300,5.16659423828125,-0.9841911429125815,-3.7525107048004864,-0.1989827042250894
1759310166820677400,5.176677490234375,-1.132908197761327,-3.59526496412456,-0.1945767426174134
1759310166830760200,5.18676025390625,-1.2413679879583417,-3.35167715703547,-0.21199045342877507
1759310166840843500,5.196843505859375,-1.333419518059492,-3.0642145523846147,-0.25380857418905944
1759310166850926300,5.20692626953125,-1.3955787448525427,-2.717092136541009,-0.30307949517332017
1759310166861009400,5.217009521484375,-1.4734884984850882,-2.3229969571202993,-0.3638970250338316
1759310166871092200,5.22709228515625,-1.5850579451352358,-1.9308178404539822,-0.4589616193458438
1759310166881175300,5.23717529296875,-1.698033751451969,-1.551854763713479,-0.5259133411124348
1759310166891258000,5.247258056640625,-1.742260431191325,-1.1015326701581478,-0.5948126898154616
1759310166901341400,5.257341552734375,-1.7377635581634938,-0.42162031520605087,-0.6196165839433669
1759310166911424500,5.267424560546875,-1.699383266364783,0.4193891951531172,-0.5672246448617428
1759310166921507300,5.27750732421875,-1.7402188423611222,1.2646113547712563,-0.47606275707669554
1759310166931590400,5.28759033203125,-1.8597364715367555,1.8927561130851507,-0.36553047145456075
1759310166941673200,5.297673095703125,-1.880948186391592,2.2186662295520305,-0.24798604204803704
1759310166951756300,5.30775634765625,-1.755904195009917,2.313772617179155,-0.2211975499741733
1759310166961839400,5.31783935546875,-1.5781066646926105,2.3873873039662836,-0.2773698113121092
1759310166971922400,5.32792236328125,-1.3612943440653382,2.646422271034121,-0.4162120264217257
1759310166982005200,5.338005126953125,-1.1795189961582422,3.397412487772107,-0.550830486356467
1759310166992088300,5.34808837890625,-1.1436392890036104,4.575561949142814,-0.6689996235325932
1759310167002171400,5.35817138671875,-1.267224752140045,5.877271154686809,-0.678012804941088
1759310167012254200,5.368254150390625,-1.4619880303055046,6.993139808711409,-0.5723313934162259
1759310167022337500,5.378337646484375,-1.6159641016609967,7.630104417818784,-0.40510172660350796
1759310167032420400,5.38842041015625,-1.5957545495860277,7.541887205183506,-0.30363267207667227
1759310167042503400,5.39850341796875,-1.1953482873223722,7.148648350331187,-0.2991920592807233
1759310167052586200,5.408586181640625,-0.5640874428145587,6.999754258415103,-0.4066321510411799
1759310167062669300,5.41866943359375,-0.11882277877926825,6.585670768454671,-0.5571987062141299
1759310167072752000,5.428752197265625,0.26774258965849873,5.715284356963634,-0.625955723837018
1759310167082835500,5.43883544921875,0.6627525458365678,4.724304065367579,-0.6226597510315478
1759310167092918300,5.448918212890625,1.0307141899608074,3.8454508543044326,-0.6663868837509304
1759310167103001300,5.45900146484375,1.3468978621833025,2.9812931080698966,-0.7999412946507334
1759310167113084400,5.46908447265625,1.6312316672891378,2.073392081698775,-0.9337809522327035
1759310167123167200,5.479167236328125,1.9251848030030727,1.208697159847617,-1.0405709095213562
1759310167133250300,5.489250244140625,2.269996457686275,0.42811552244424816,-1.1338223899967967
1759310167143333400,5.49933349609375,2.5691683509618044,-0.3060013009041548,-1.2572282587826251
1759310167153416400,5.50941650390625,2.6530203541249033,-0.9803174432843923,-1.465954595848918
1759310167163499300,5.519499267578125,2.46044611043632,-1.5239309839993715,-1.67110132086277
1759310167173582300,5.529582275390625,2.0967320407539605,-1.8787673352211713,-1.8335995752394199
1759310167183665200,5.5396650390625,1.6326333507806061,-1.9631091677278278,-1.9377558230236172
1759310167193748200,5.549748291015625,1.1819465155661106,-1.7592863847941158,-1.9151172902360558
1759310167203831600,5.55983154296875,0.855330881178379,-1.3694704901278019,-1.818515111093223
1759310167213914400,5.569914306640625,0.7013170350957662,-0.8420452831476927,-1.6897259418338537
1759310167223997400,5.57999755859375,0.7220669776577502,-0.30984453232884407,-1.5572105916582046
1759310167234079700,5.590079833984375,0.8639929841268807,0.0877069250255823,-1.314273503562808
1759310167244162800,5.600162841796875,1.0662773785121737,0.15169453628957272,-0.8830142762653529
1759310167254245600,5.61024560546875,1.3056816163063047,-0.15951485465168952,-0.3675906188547611
1759310167264329000,5.620328857421875,1.549992330842465,-0.746248575168848,0.09346771704200654
1759310167274412000,5.630412109375,1.7730390158146618,-1.3540870430350302,0.3982929599041119
1759310167284494800,5.640494873046875,1.8900918623119591,-1.908302057263255,0.561223833544366
1759310167294578000,5.650577880859375,1.8060135030470787,-2.321637943726778,0.5485384298965335
1759310167304660700,5.66066064453125,1.520959713103622,-2.632401344466209,0.43901846312209963
1759310167314743800,5.670743896484375,1.1025093331705778,-2.82451440038383,0.34871352095995095
1759310167324827000,5.680826904296875,0.6109466630145907,-2.932658548760414,0.32893344634342936
1759310167334910000,5.690909912109375,0.1369755444549024,-3.0109581784933805,0.34324988525919614
1759310167344992800,5.70099267578125,-0.2927420063585043,-3.1114673019468784,0.3881931523026898
1759310167355075800,5.711075927734375,-0.6774918498069048,-3.2789421756923196,0.4358132373400032
1759310167365159000,5.721158935546875,-0.9731371763914823,-3.4150551119685173,0.5168516443870962
1759310167375241700,5.73124169921875,-1.209140373570472,-3.471645014196634,0.5688546572163701
1759310167385325000,5.741324951171875,-1.3742460339665412,-3.5088159302055835,0.679524597743526
1759310167395408000,5.751407958984375,-1.5472180438235401,-3.5724814699083565,0.7951319946728647
1759310167405491000,5.761490966796875,-1.7026042742379008,-3.6470477583318948,0.8945182515762746
1759310167415573800,5.77157373046875,-1.884115564381331,-3.6612387807697058,1.0003343223314731
1759310167425656800,5.78165673828125,-2.014545924976468,-3.5501848824262616,1.1160401381339877
1759310167435739600,5.79173974609375,-2.161775298550725,-3.3467204114109275,1.2676070294559
1759310167445823000,5.801822998046875,-2.2942384801477194,-3.101222971308231,1.4261376953758298
1759310167455905800,5.81190576171875,-2.45298585755825,-2.767249375373125,1.5580882512755692
1759310167465988900,5.82198876953125,-2.5403549289315936,-2.385825461477041,1.6732659515507518
1759310167476072000,5.832072021484375,-2.5990058553427455,-1.9493220499157904,1.7734338603511453
1759310167486154800,5.84215478515625,-2.6137375605285165,-1.5264654709130525,1.8372380778722464
1759310167496237800,5.85223779296875,-2.5499016326948998,-1.155753505167365,1.805552607537061
1759310167506321000,5.86232080078125,-2.434253246168047,-0.9244131852328776,1.7179146560944616
1759310167516404000,5.872404052734375,-2.227710536751151,-0.7047919446647167,1.670870873107761
1759310167526486800,5.88248681640625,-1.9296157711878419,-0.3306558496892452,1.700161995652318
1759310167536569900,5.89256982421875,-1.5787252349823713,0.15283435397446155,1.8222379310086367
1759310167546652700,5.902652587890625,-1.1506614427253603,0.7250041270881891,2.019092628495395
1759310167556735700,5.91273583984375,-0.6538128680557013,1.3307944302529096,2.275127098572999
1759310167566819000,5.922819091796875,-0.15541867137923837,2.0665514220237733,2.6085902607679365
1759310167576902000,5.93290185546875,0.31294702838882804,2.8635931958407164,2.9287685555845497
1759310167586985000,5.94298486328125,0.7342242292456328,3.666759005495906,3.2011329598248004
1759310167597067800,5.95306787109375,1.0697427165351807,4.374827779874205,3.4531510338678952
1759310167607150800,5.96315087890625,1.3622737104915081,4.804278934836387,3.692961660505831
1759310167617233700,5.973233642578125,1.6211971800088882,4.914423901641369,3.9231887585014102
1759310167627317000,5.98331689453125,1.9009785825073717,4.816251112180948,4.010328405033052
1759310167637399800,5.99339990234375,2.1339343748144803,4.492312588047981,3.830625917877257
1759310167647483000,6.00348291015625,2.3207395335823295,4.059311047127843,3.3780382174775
1759310167657566000,6.01356591796875,2.507837391686439,3.648943362820148,2.7264573462575674
1759310167667648800,6.023648681640625,2.690444368112087,3.3225743966698644,2.1146736478969452
1759310167677731800,6.03373193359375,2.9012434197992083,3.249461229664087,1.8023194708347319
1759310167687815000,6.04381494140625,3.1242876205533743,3.4067718522697685,1.6618372334331273
1759310167697898000,6.05389794921875,3.2313644319593906,3.5790666935175657,1.5736428171515464
1759310167707980800,6.063980712890625,3.1070243510633704,3.50785263813138,1.4500529701009393
1759310167718063900,6.07406396484375,2.7432366316229104,3.025951749485731,1.1896917959306388
1759310167728146700,6.084146728515625,2.1783621300838885,2.213698378011584,0.8384056114710867
1759310167738229800,6.094229736328125,1.6598777699284255,1.3707593608945607,0.50748446190916
1759310167748312800,6.104312744140625,1.2657948654673994,0.6877630684524774,0.30958865787163375
1759310167758396000,6.11439599609375,0.9697510410845279,0.16844576460421085,0.17706812006421385
1759310167768479000,6.12447900390625,0.7345164901904762,-0.23003975872993468,0.042798911958560344
1759310167778561800,6.134561767578125,0.42515009676739574,-0.4892904143750667,-0.11312851266041397
1759310167788644900,6.144644775390625,-0.017895868305116892,-0.6853577608764171,-0.2247214132513851
1759310167798727700,6.154727783203125,-0.48586511610150335,-0.7936667444258928,-0.34709304361864923
1759310167808811000,6.16481103515625,-0.931055691987276,-0.8662047418922185,-0.5269439993344247
1759310167818893800,6.174893798828125,-1.3071456975094973,-0.8687567644625902,-0.6437614296406508
1759310167828977000,6.184976806640625,-1.6145971972219646,-0.7840197951585054,-0.6868779561810195
1759310167839059700,6.195059814453125,-1.8942695863880217,-0.8287591005951166,-0.6462134989678859
1759310167849142800,6.205142822265625,-2.086350347471237,-0.942165699544549,-0.5485359456785023
1759310167859225900,6.215225830078125,-2.078111949827522,-1.1512854198426008,-0.4088951275371015
1759310167869309000,6.225308837890625,-1.8408670820243656,-1.4999538960844276,-0.29923951515164227
1759310167879392000,6.23539208984375,-1.5407739822506903,-1.9444447992682456,-0.29092238971590995
1759310167889474800,6.245474853515625,-1.0821462710343301,-2.3574977771371604,-0.31345541630238294
1759310167899558000,6.255557861328125,-0.687612846326828,-2.6992683105587956,-0.28979466432761397
1759310167909640700,6.265640625,-0.449582088842988,-3.018396219539642,-0.23489640498086808
1759310167919723800,6.275723876953125,-0.31006738129928707,-3.25818346530199,-0.14669404285484924
1759310167929806800,6.285806884765625,-0.2721815950192511,-3.444717844304442,-0.018234306479245423
1759310167939890000,6.295889892578125,-0.3397686920799315,-3.539386425036192,0.08450520637482405
1759310167949973000,6.305972900390625,-0.5386101794697344,-3.533136132469773,0.14148198902867734
1759310167960055800,6.316055908203125,-0.8286006951630115,-3.4028625698715445,0.11640928789675235
1759310167970139000,6.326138916015625,-1.0750766249090433,-3.0919068614304064,0.04772343581393361
1759310167980221700,6.3362216796875,-1.3063586387850343,-2.6317741524785756,-0.017911942657083273
1759310167990305000,6.346304931640625,-1.5039553868107496,-2.1111077721089124,-0.07102496255487203
1759310168000387800,6.356387939453125,-1.702883967962116,-1.568371014228463,-0.14625826351977883
1759310168010471000,6.366470947265625,-1.8582726825945077,-1.0839759706795216,-0.17563640676066278
1759310168020553700,6.3765537109375,-1.9822750559687614,-0.6566939764499664,-0.23421287969611584
1759310168030636800,6.38663671875,-2.0322738893687724,-0.1646662460654974,-0.2911170355051756
1759310168040720000,6.396719970703125,-1.9644648201204835,0.46367900325655936,-0.3288842369068414
1759310168050803000,6.406802978515625,-1.826130700663477,1.2342004344165325,-0.3977861428931355
1759310168060886000,6.416885986328125,-1.6286868051119148,2.1202572932481765,-0.45712183669805523
1759310168070968800,6.42696875,-1.4021614842437207,2.9995120708495375,-0.5670325563557446
1759310168081052000,6.437052001953125,-1.1879204754091799,3.7796313514381645,-0.7092286119379103
1759310168091134700,6.447134765625,-0.962132382774353,4.287027331346273,-0.910274915895611
1759310168101217800,6.4572177734375,-0.7947673991441726,4.597304409873486,-1.0972402336612344
1759310168111300900,6.46730078125,-0.8394158114269376,4.807124971917271,-1.1945432545498014
1759310168121384000,6.477384033203125,-1.0194377397954464,5.0131034715801475,-1.2410647672280668
1759310168131466800,6.487466796875,-0.7248705638363957,4.930501760739088,-1.5703965287066994
1759310168141549800,6.4975498046875,0.2354623683005571,4.43071274870336,-2.001554049195349
1759310168151633000,6.5076328125,0.8628457868531346,3.740748370814323,-2.0973389206059276
1759310168161715700,6.5177158203125,0.8004511438690125,3.0438275979161262,-2.038945183826238
1759310168171799000,6.527799072265625,0.5381763180971145,2.5337182673960923,-2.009353909291327
1759310168181881900,6.5378818359375,0.4128261833757162,2.2828443949520585,-2.080076381768286
1759310168191965000,6.54796484375,0.4807382746070623,2.0206600239425896,-2.1425328379422424
1759310168202047700,6.5580478515625,0.5786468601733445,1.8005524611622095,-2.0958171178661287
1759310168212130800,6.568130859375,0.6553580516710877,1.6981459796547889,-1.9750437895409763
1759310168222213600,6.578213623046875,0.7929618110269308,1.620382356494665,-1.866548197378218
1759310168232297000,6.588296875,1.0258902769356966,1.5973416726469993,-1.8165204301446676
1759310168242379800,6.5983798828125,1.2897247532397509,1.6379904938995837,-1.7146312505096195
1759310168252461600,6.608461669921875,1.4677104996055363,1.6524696856290102,-1.548003348982334
1759310168262545700,6.618545654296875,1.4967057079434394,1.5117629918217659,-1.2641934216201305
1759310168272627700,6.628627685546875,1.4744833547413347,1.1286819583684204,-1.0344513306625187
1759310168282710500,6.63871044921875,1.5061480745494364,0.5617243669450283,-0.9669283118139952
1759310168292793600,6.648793701171875,1.590358535761386,0.07046060667037964,-1.0358558636981994
1759310168302876700,6.658876708984375,1.744695110992342,-0.28208441874384876,-1.1739191303245722
1759310168312959700,6.668959716796875,1.8365894047051667,-0.5289297663241624,-1.3029735263913869
1759310168323042600,6.67904248046875,1.8078619073927402,-0.6968477076619863,-1.399073308970034
1759310168333125600,6.689125732421875,1.607963019904494,-0.8106541195839643,-1.41761901948601
1759310168343208400,6.69920849609375,1.3491596696354449,-0.9139783004581927,-1.3448480900466442
1759310168353291500,6.70929150390625,1.1593687730550766,-1.040704984229803,-1.2143699447870253
1759310168363374600,6.71937451171875,1.0219443157888948,-1.2235942847281693,-1.000115930340439
1759310168373457700,6.729457763671875,0.9674046240888535,-1.4586936649352311,-0.7606799822337925
1759310168383540700,6.739540771484375,0.9057024934135377,-1.7436171064972876,-0.5107403218999504
1759310168393623600,6.74962353515625,0.7678190403334796,-2.028167623093724,-0.3169149456391111
1759310168403706600,6.75970654296875,0.6047190206713974,-2.2752000176787375,-0.1110642736069858
1759310168413789400,6.76978955078125,0.389030881768465,-2.4550351913034913,0.0923306667029392
1759310168423872800,6.779872802734375,0.11341580516919493,-2.5528783104181287,0.3049344023250043
1759310168433955600,6.78995556640625,-0.14471359136104583,-2.6439737088382245,0.4887344975253567
1759310168444038700,6.80003857421875,-0.36232656084671616,-2.727479675042629,0.6688849111117422
1759310168454121500,6.81012158203125,-0.5857429559141397,-2.8565298333257436,0.7876800712317228
1759310168464204500,6.82020458984375,-0.6953910791128873,-3.052037792378664,0.9067962799996138
1759310168474287600,6.83028759765625,-0.7319513158775866,-3.2921021015167233,1.0857426880910992
1759310168484370700,6.84037060546875,-0.7606320514388382,-3.493735849973559,1.2896847134903073
1759310168494453800,6.850453857421875,-0.8353286882437765,-3.6862609938234088,1.4460647772476076
1759310168504536600,6.86053662109375,-0.9016695846356451,-3.765117088395357,1.5644406890422105
1759310168514619600,6.87061962890625,-0.9351546517387032,-3.7835418028801677,1.6507982452854513
1759310168524702500,6.880702392578125,-0.9776008778020739,-3.729765789029002,1.6510586497873068
1759310168534785500,6.89078564453125,-1.0160868219323456,-3.6218367447078226,1.6384392605803906
1759310168544868600,6.90086865234375,-1.0500282545007764,-3.507408986017108,1.6082701861575246
1759310168554951700,6.91095166015625,-1.0981946117766201,-3.3571120415657756,1.5935545553237198
1759310168565034800,6.92103466796875,-1.1406249096184968,-3.263133781185746,1.6499556569814682
1759310168575117600,6.93111767578125,-1.1788356900691985,-3.130664754369855,1.669689115977287
1759310168585200600,6.94120068359375,-1.1884639346361159,-2.851264460143447,1.6238341043837368
1759310168595283500,6.951283447265625,-1.1837971118688582,-2.4046271925807,1.5414442827276884
1759310168605366800,6.96136669921875,-1.1302613365143537,-1.8228110547214746,1.512649565397948
1759310168615449600,6.97144970703125,-1.096686983692646,-1.1715063700944184,1.5130957017302513
1759310168625532700,6.98153271484375,-1.0529887117415666,-0.447549121710658,1.5239548032663761
1759310168635615500,6.991615478515625,-1.0079106758698821,0.3401408863931894,1.5938108681723475
1759310168645698600,7.001698486328125,-0.9840773803398013,1.167857199937105,1.7115581266745923
1759310168655781600,7.01178173828125,-0.9844462136521935,2.0166654013484715,1.9933923700496554
1759310168665864700,7.02186474609375,-0.9373533308267593,2.8069921876966952,2.3348878859221935
1759310168675947800,7.03194775390625,-0.8398217618793249,3.373573931545019,2.641173556725681
1759310168686030600,7.042030517578125,-0.7081579139664769,3.6402217117041347,2.751663683706522
1759310168696113700,7.05211376953125,-0.5850763086989522,3.7285932381182905,2.6454893740981817
1759310168706196500,7.062196533203125,-0.4543690308585763,3.826895206916332,2.4628455727934835
1759310168716279600,7.072279541015625,-0.25456542043834923,3.992358156317472,2.2240922001235184
1759310168726362600,7.082362548828125,-0.0012853636354207992,4.214350802192092,2.003086665590107
1759310168736445700,7.09244580078125,0.27877953197956085,4.472362271431088,1.6570950073421
1759310168746528500,7.102528564453125,0.539736407020688,4.505039383152127,1.178974440952763
1759310168756611600,7.112611572265625,0.903216667947173,4.104088346487283,0.7211671792738139
1759310168766694700,7.122694580078125,1.2919728244274853,3.396222985726595,0.3956844944387674
1759310168776777500,7.132777587890625,1.6731060848139225,2.6920143939077854,0.1403029353119433
1759310168786860800,7.14286083984375,1.9631644050464032,2.190211119440198,-0.10651844687089324
1759310168796943600,7.152943603515625,2.049570476606488,1.9656535915136335,-0.2549556618649512
1759310168807026700,7.163026611328125,2.0092897580139337,1.8915344623357055,-0.25887612324431536
1759310168817109500,7.173109619140625,1.9043441134177148,1.9430004456788301,-0.1732027498729527
1759310168827192600,7.183192626953125,1.7832452064000068,2.010097713395953,-0.04397613904438913
1759310168837275400,7.193275390625,1.6188672757565974,1.8614485361516475,0.05904511336050927
1759310168847358700,7.203358642578125,1.4456616032741962,1.5429016419291495,0.29560009920336305
1759310168857441500,7.213441650390625,1.2778892078869044,1.2030945175349712,0.5990944953205064
1759310168867524600,7.223524658203125,1.153218287601322,0.9293395357191562,0.8622188140612095
1759310168877607700,7.233607666015625,1.1094545491985977,0.7242939329922199,1.0916461399812252
1759310168887690500,7.2436904296875,1.1156108068060129,0.5382365238517522,1.3823482380099594
1759310168897773600,7.253773681640625,1.2211086784575134,0.2868383352726698,1.6985095522701739
1759310168907856600,7.263856689453125,1.3459534209400414,-0.12780395761430263,1.9853226069711147
1759310168917939700,7.273939697265625,1.305558282187581,-0.6483405741244554,2.0868620963856577
1759310168928022500,7.2840224609375,1.1941121696561574,-1.2191203541845081,2.0098446154177187
1759310168938105600,7.294105712890625,1.0213274990648031,-1.7545055802583693,1.7843401620298622
1759310168948188400,7.3041884765625,0.7557767934273928,-2.211954749214649,1.3287218617625534
1759310168958271500,7.314271484375,0.3690360684227198,-2.5579443616360424,0.7934835698787123
1759310168968354800,7.324354736328125,-0.052934886851906775,-2.7578543550401924,0.2833326652392745
1759310168978437600,7.334437744140625,-0.5169651877641678,-2.893450573965907,-0.2298288376593031
1759310168988520700,7.344520751953125,-0.9482768028359859,-2.9762299794614315,-0.6628921004377305
1759310168998603500,7.354603515625,-1.25210901607275,-2.98203311278224,-1.000492289372161
1759310169008686600,7.3646865234375,-1.436181388875842,-2.9319840104997157,-1.1889398815847934
1759310169018769400,7.374769287109375,-1.504990721207857,-2.7851766617298126,-1.219125468751043
1759310169028852700,7.384852783203125,-1.4958651654660702,-2.594702605190873,-1.1054757817607372
1759310169038935600,7.394935546875,-1.4523971951395271,-2.3827613977313042,-0.9085919312447309
1759310169049018600,7.4050185546875,-1.4092986426472662,-2.23537771037817,-0.6978647026848047
1759310169059101700,7.415101806640625,-1.3279396253436804,-2.1190432412832974,-0.5293824054624885
1759310169069184500,7.4251845703125,-1.2247311798036098,-1.9338614459335803,-0.3848730314366519
1759310169079267600,7.435267578125,-1.0602999115377665,-1.7435872958809135,-0.27320202410817146
1759310169089350700,7.4453505859375,-0.9285591989964246,-1.5169494545489548,-0.2087671074680984
1759310169099433700,7.455433837890625,-0.788390265327692,-1.1834534129977226,-0.13611388612426817
1759310169109516500,7.4655166015625,-0.6625303544532507,-0.7038105324119329,-0.10180573913529514
1759310169119599600,7.475599609375,-0.6259440333992242,-0.1703302631765604,-0.06882409150972962
1759310169129682400,7.485682373046875,-0.6132458068024367,0.41893735973238944,-0.011515373487770557
1759310169139765500,7.495765625,-0.6814069774240255,1.0653127712637185,0.01965425627976656
1759310169149848600,7.5058486328125,-0.7523311099529266,1.8736159438073634,0.03052665568888187
1759310169159931600,7.515931640625,-0.8818664214044809,2.962763764166832,0.017934739010781048
1759310169170014700,7.5260146484375,-1.0574148576207458,4.286363899001479,-0.0887215088956058
1759310169180097500,7.53609765625,-1.29561965649724,5.62310350139439,-0.3202561823584139
1759310169190180600,7.5461806640625,-1.5868015739321708,6.695767219942808,-0.5800633028425276
1759310169200262700,7.5562626953125,-1.7510387809306383,7.330214877793193,-0.8654648833103478
1759310169210345500,7.566345458984375,-1.7464235422201453,7.375078101870417,-1.2269564546376466
1759310169220428800,7.5764287109375,-1.5122417152494192,6.974698143091797,-1.554688671965152
1759310169230511600,7.58651171875,-1.1736522960819302,6.214740191522241,-1.7837872043222187
1759310169240595200,7.59659521484375,-0.7107962996460497,5.038959797370434,-2.012422795342654
1759310169250678000,7.606677978515625,-0.33733415840938685,3.6606583505332466,-2.2181267158478497
1759310169260761000,7.616760986328125,-0.16083017503395675,2.501614571648836,-2.4198279765829445
1759310169270844000,7.626843994140625,-0.27301570775583384,1.737449231517315,-2.6813509610742328
1759310169280927200,7.63692724609375,-0.4319740975685417,1.1855389871001243,-2.9389024115860463
1759310169291010000,7.647010009765625,-0.4365671244472265,0.8503384797185659,-3.0695868930727244
1759310169301093000,7.657093017578125,-0.2859434322595596,0.7141986554354429,-3.03360021841228
1759310169311176000,7.667176025390625,-0.0654559302508831,0.7991478061854839,-2.7936256333842873
1759310169321259000,7.677259033203125,0.1358257898978889,1.0098656093299387,-2.455509238556027
1759310169331342300,7.68734228515625,0.2745201209694147,1.1208546257436274,-2.004799753118306
1759310169341425200,7.697425048828125,0.5003462075270713,1.0987035842120647,-1.4342973286949097
1759310169351508200,7.70750830078125,0.8680394099734723,0.9133855952620505,-0.7329349200874566
1759310169361591000,7.717591064453125,1.2437304793059825,0.5150426952689886,-0.12311492301523684
1759310169371674000,7.727674072265625,1.565914414856583,-0.006518003591895103,0.23246198090817777
1759310169381757000,7.7377568359375,1.7961878362119197,-0.47375499159097667,0.28619380855774507
1759310169391840300,7.74784033203125,1.9569027143031357,-0.7282131522625684,0.08021762871611864
1759310169401923000,7.757923095703125,1.9652023406147956,-0.7647387561053037,-0.2513476274356246
1759310169412006100,7.768006103515625,1.8570652065008877,-0.6940215443253517,-0.47006998293530194
1759310169422089200,7.778089111328125,1.6901310155034064,-0.7390770761042833,-0.5196870139434934
1759310169432172000,7.788172119140625,1.5815654268443584,-0.9661702599883079,-0.3608900617701933
1759310169442255000,7.798255126953125,1.5795242764055728,-1.4290192421615122,-0.19739578209351746
1759310169452338200,7.808338134765625,1.5872433263503014,-1.9922487529724835,-0.15677421417403964
1759310169462421200,7.818421142578125,1.5364724856644867,-2.5531138727396727,-0.3101950262669474
1759310169472504000,7.828504150390625,1.3710878621965645,-3.0353637209534643,-0.5438769408915192
1759310169482587100,7.838587158203125,1.1506294401519,-3.4172651892334223,-0.7818466889031231
1759310169492670000,7.848669921875,0.9419820135407149,-3.721107850798964,-0.9394660851970315
1759310169502753000,7.8587529296875,0.7758920182824134,-3.9719618494987485,-0.9721040339514613
1759310169512836000,7.868836181640625,0.6152683256059884,-4.1801124325037,-0.834011175904423
1759310169522919200,7.878919189453125,0.4719434121243655,-4.294980336177349,-0.5638160785272717
1759310169533002200,7.889002197265625,0.29938217502534387,-4.373787330910563,-0.19123342353887854
1759310169543085000,7.8990849609375,0.1055102927416563,-4.382276926836371,0.2233624729231
1759310169553168100,7.909168212890625,-0.12375380544066428,-4.334598645338416,0.6274433320462703
1759310169563251000,7.9192509765625,-0.35498905756548044,-4.259909607318043,0.9206113087318837
1759310169573334300,7.929334228515625,-0.6094536479778587,-4.149326249095798,1.1303586594089865
1759310169583417000,7.9394169921875,-0.869640123168379,-3.9901574314028023,1.2614793403558433
1759310169593500200,7.949500244140625,-1.119406472761929,-3.825377203568816,1.3900282711185514
1759310169603583000,7.9595830078125,-1.3866680009052157,-3.6217549116432664,1.4863213843122123
1759310169613666000,7.969666015625,-1.6163263591021297,-3.3488983399718997,1.5855759776599705
1759310169623749000,7.9797490234375,-1.8224997968152163,-2.959863366550207,1.660683094961941
1759310169633832200,7.989832275390625,-1.9967939951866864,-2.4131547824293373,1.7439935385942458
1759310169643915300,7.999915283203125,-2.1474223635494707,-1.750729568850994,1.7809625022903084
1759310169653998000,8.009998046875,-2.29567289686501,-0.9633253919512033,1.849787616713345
1759310169664081200,8.0200810546875,-2.4769775585204363,-0.08472820147573948,1.9870675509423017
1759310169674164000,8.0301640625,-2.6455025258406994,0.7986006936967373,2.1285386532507835
1759310169684247000,8.0402470703125,-2.7639398124337196,1.6311626937061547,2.246154832719266
1759310169694330000,8.050330078125,-2.7802584945499897,2.284087673011422,2.339607315659523
1759310169704413200,8.0604130859375,-2.600112355279922,2.688407893848419,2.467770754235983
1759310169714496300,8.070496337890624,-2.146544119410217,2.8050737868547437,2.810426253798604
1759310169724579000,8.0805791015625,-1.4233704226195811,2.759729501262307,3.203923759587109
1759310169734662100,8.090662109375,-0.4807739304423332,2.6918647563040254,3.439475851997733
1759310169744745000,8.100744873046875,0.5246963665381074,2.6885464255362748,3.4117595775544642
1759310169754828300,8.110828369140625,1.3124296292617916,2.5320541335761546,3.1826684978514908
1759310169764911000,8.1209111328125,1.9094272619009016,2.233141329628229,2.7533918226733802
1759310169774994200,8.130994140625,2.268259404760599,1.9057295764267443,2.2979480021901426
1759310169785077000,8.141076904296876,2.3797749292664228,1.655888554161787,1.8600537207923828
1759310169795160000,8.15116015625,2.3420374654158946,1.5539251402467489,1.4089854850448666
1759310169805243100,8.1612431640625,2.113333631464839,1.6160264993727207,0.9885827289350331
1759310169815326200,8.171326171875,1.7725345734238624,1.9052841707468031,0.6175907772041856
1759310169825409300,8.1814091796875,1.4356979892730712,2.439830607908964,0.3605738719604909
1759310169835492000,8.1914921875,1.2340899597793817,3.037824558109045,0.18097557583153248
1759310169845575200,8.2015751953125,1.1076040990263223,3.5013720439404246,0.06130714000836014
1759310169855658000,8.211657958984375,1.0478452113732695,3.7239275843948123,-0.021462913136929274
1759310169865741000,8.221740966796874,1.1368826543502508,3.7228842128217217,-0.08169175638929009
1759310169875824000,8.23182421875,1.3118217264965175,3.4538515833526846,-0.12118351656123995
1759310169885907200,8.2419072265625,1.4372443419322372,2.8384166690081356,-0.11636544875502586
1759310169895990000,8.251989990234375,1.52218516324535,2.110285934332013,-0.1117069554246962
1759310169906073000,8.262072998046875,1.548327027978748,1.28709615830183,-0.09812456640452145
1759310169916156200,8.27215625,1.5754278008721767,0.4610030620455742,-0.02115560075342655
1759310169926239000,8.282239013671875,1.5732336518287657,-0.14187164593338966,0.06279796308800578
1759310169936322300,8.292322265625,1.474791836168617,-0.491940052101016,0.17774112395495176
1759310169946405000,8.302405029296875,1.32346876353994,-0.6287678586483001,0.3285710062392056
1759310169956488200,8.31248828125,1.0275060415692627,-0.6062520754575729,0.4924753280214965
1759310169966571000,8.322571044921874,0.5935718959741294,-0.5482885467886924,0.6567128272809087
1759310169976654000,8.332654052734375,0.1363653036020696,-0.5690846665799617,0.7516298298157751
1759310169986737000,8.34273681640625,-0.25182605860233304,-0.5934399401575327,0.8801115405611694
1759310169996820200,8.3528203125,-0.48235696185007687,-0.629693156799674,0.9503364387795329
1759310170006903300,8.3629033203125,-0.6787422882594167,-0.6546925734996796,0.9378105730749666
1759310170016986000,8.372986083984374,-0.7786902706988156,-0.6469611024647951,0.8732266033530235
1759310170027069200,8.383069091796875,-0.8515129303254186,-0.7206447628349065,0.8104187764581292
1759310170037152000,8.393152099609376,-0.9088627110101282,-0.8882920705378055,0.7538348655793815
1759310170047235000,8.403235107421875,-0.9826042390473186,-1.181945346522331,0.6735974727168679
1759310170057318100,8.413318115234375,-1.0379911952264607,-1.5300070890426636,0.6177708830114453
1759310170067401200,8.423401123046874,-1.0379350811250507,-1.8663333855837583,0.55886298616454
1759310170077484000,8.433484130859375,-0.9598587387539446,-2.1461393380016087,0.5325871928531676
1759310170087567000,8.443567138671876,-0.8921518147058785,-2.332702943098545,0.5485693364914507
1759310170097650200,8.453650146484375,-0.8493355862863361,-2.4610809012085197,0.5720093218550085
1759310170107733000,8.46373291015625,-0.8296620407842099,-2.5472762526273725,0.5929759028423577
1759310170117816300,8.47381640625,-0.8381209493108093,-2.5935224554955956,0.5759487801957875
1759310170127899100,8.483899169921875,-0.8814778604783117,-2.549130940583348,0.5208288774549961
1759310170137982200,8.493982177734376,-0.9578951835960149,-2.4504262362033127,0.39606487205848095
1759310170148065000,8.50406494140625,-1.038549267500639,-2.313834576499462,0.2937722992543131
1759310170158148000,8.514148193359375,-1.1446342913903296,-2.113916984310746,0.1985908005643636
1759310170168231000,8.52423095703125,-1.2634966715276241,-1.8171072901219127,0.10952274325340985
1759310170178314200,8.534314208984375,-1.32876087859869,-1.3714964429974554,-0.0071721566516906015
1759310170188397000,8.54439697265625,-1.353198715893179,-0.8125070539742708,-0.1519739377528429
1759310170198480100,8.554480224609375,-1.4314232345633209,-0.32636662806272504,-0.30213837839830665
1759310170208563200,8.564563232421875,-1.5178829360067843,0.02785188352167606,-0.4737312819218263
1759310170218646000,8.57464599609375,-1.5474334401398897,0.4346586604773998,-0.6299289383169263
1759310170228729000,8.58472900390625,-1.575724153470248,0.9717214643746613,-0.7858768212020397
1759310170238812400,8.5948125,-1.5655698392026125,1.6918857502162457,-0.9818110428430139
1759310170248895500,8.6048955078125,-1.609808501640707,2.5380630186021325,-1.2194098386503756
1759310170258978300,8.614978271484375,-1.7135148137003182,3.472559790953994,-1.4878621840134263
1759310170269061400,8.625061279296874,-1.9132769230663775,4.30299822293818,-1.8183209036953747
1759310170279144200,8.635144287109375,-2.073573721875995,4.88239911634922,-2.1222074044026433
1759310170289227500,8.6452275390625,-2.1534511223196984,5.0998745770603415,-2.3761386185906828
1759310170299310300,8.655310302734375,-2.0405426821507513,5.073693257099389,-2.5641721501097083
1759310170309393400,8.665393310546875,-1.7040100493825971,4.784791559556126,-2.7554885026916858
1759310170319476500,8.6754765625,-1.1791831883326171,4.210958237144351,-2.9499422765165564
1759310170329559300,8.685559326171875,-0.5797767409861088,3.445983334195614,-3.2342797348842023
1759310170339642400,8.695642333984376,-0.053412733496725553,2.5380519126862287,-3.5793136540159582
1759310170349725400,8.705725341796875,0.34808892278820275,1.798781359836459,-3.9474388181388376
1759310170359808500,8.71580859375,0.5200500020369887,1.2860861044764518,-4.102384757439792
1759310170369891300,8.725891357421874,0.5898837089806794,1.260061436381936,-3.8283430676370855
1759310170379974400,8.735974365234375,0.8082147636078297,1.7365391309350728,-3.3774460968032476
1759310170390057200,8.74605712890625,1.3980544873163103,2.107353972533345,-3.309895240099728
1759310170400140300,8.756140380859375,2.3640467603892086,2.31098503228724,-3.3678847799926994
1759310170410223400,8.766223388671875,3.2119363856509326,2.557444010898471,-2.8646237079322336
1759310170420306400,8.776306396484374,3.2939375002503395,2.469411507180333,-1.7782453522861004
1759310170430389500,8.786389404296875,3.0098844117820263,1.9250825116723775,-0.8622199100397526
1759310170440472300,8.796472412109376,2.7168109815120696,1.103546348068118,-0.46142011841386554
1759310170450555400,8.806555419921875,2.616538004902005,0.168508892968297,-0.46084582565724846
1759310170460638200,8.81663818359375,2.68674609811604,-0.7203238603174686,-0.6308003873892128
1759310170470721500,8.826721435546874,2.642780699661374,-1.3811948301911354,-0.7341575206849723
1759310170480804400,8.836804443359375,2.452517947785556,-1.731514580771327,-0.7265094170846045
1759310170490887400,8.846887451171876,2.203953813588619,-1.8360709337890146,-0.5431929772153496
1759310170500970200,8.85697021484375,1.8623069065466522,-1.786707475683093,-0.3139033062003553
1759310170511053300,8.86705322265625,1.5918085884392261,-1.7154262002795935,-0.2428707448609173
1759310170521136400,8.877136474609374,1.3848662121802569,-1.7924357902020216,-0.27417554531544447
1759310170531219500,8.887219482421875,1.2010796705812214,-2.020601571753621,-0.36614670365676283
1759310170541302500,8.897302490234376,1.0171680412977933,-2.392763736307621,-0.43751726477891206
1759310170551385300,8.90738525390625,0.8533338621422648,-2.7861873000770805,-0.45198988063707946
1759310170561468400,8.917468505859375,0.6135602065138518,-3.202763191375136,-0.3725118547745049
1759310170571551200,8.92755126953125,0.36438846181258555,-3.5856074934631583,-0.24778277456089853
1759310170581634300,8.93763427734375,0.07218377720117569,-3.9094916570603844,-0.048906654249131674
1759310170591717400,8.94771728515625,-0.16332739867717028,-4.1516894710958,0.2327240293778479
1759310170601800400,8.957800537109375,-0.31983474207594986,-4.392672064122557,0.5694248583197593
1759310170611883500,8.967883544921875,-0.50157472640872,-4.527648105323315,0.9380987423665821
1759310170621966300,8.97796630859375,-0.6256675545454025,-4.620865318202972,1.2956211178019643
1759310170632049400,8.98804931640625,-0.7287094113469124,-4.675208318287134,1.6281946376807988
1759310170642132200,8.99813232421875,-0.8090481456920504,-4.646999291890859,1.876590429573506
1759310170652215600,9.008215576171875,-0.8493003688424825,-4.451197318327426,2.016675484351069
1759310170662298400,9.01829833984375,-0.9380030269071459,-4.1196658548474305,1.9853917266845702
1759310170672381400,9.02838134765625,-1.0528548562288285,-3.777493170365691,1.8621221976295113
1759310170682464300,9.03846435546875,-1.2163790926523506,-3.423949197041988,1.7242628560774027
1759310170692547300,9.04854736328125,-1.4316098431766033,-3.060094842106104,1.5909218687325715
1759310170702630400,9.05863037109375,-1.676483598423004,-2.6432980015337466,1.4756433384314178
1759310170712713500,9.06871337890625,-1.8481266977638005,-2.137735082271695,1.3984854260794817
1759310170722796500,9.078796630859374,-1.978743374711275,-1.54221073705554,1.3959339880309998
1759310170732879400,9.08887939453125,-2.0709610551595685,-0.8508370768904685,1.3925246179789303
1759310170742962400,9.09896240234375,-2.1491569322571156,-0.10145078821778297,1.4532581958830355
1759310170753045200,9.109045166015624,-2.1672291800424457,0.6364642583698034,1.5801524913065135
1759310170763128300,9.11912841796875,-2.2069924506321548,1.2788923935800791,1.8207433085367082
1759310170773211400,9.12921142578125,-2.1514608252853153,1.7327607814401387,2.1745796889357267
1759310170783294500,9.13929443359375,-1.9428972775653004,1.953420132884383,2.627090378576517
1759310170793377300,9.149377197265625,-1.6032646329551934,1.9831880791604517,3.0715590699285267
1759310170803460400,9.15946044921875,-1.153345567242801,1.9368360778301954,3.426262150159478
1759310170813543400,9.16954345703125,-0.635401889835298,1.910536099925637,3.668389821568131
1759310170823626200,9.179626220703126,-0.16721972994059323,1.918817021536827,3.7561701040908693
1759310170833709600,9.18970947265625,0.29062252998650073,1.9429051686108112,3.736373808991909
1759310170843792400,9.19979248046875,0.6762634770557284,1.8782073632508516,3.586960077115893
1759310170853875500,9.20987548828125,0.9923349210754037,1.648705949181318,3.3423417579352854
1759310170863958300,9.219958251953125,1.3105027528524398,1.3511778775900603,3.0598060882925986
1759310170874041300,9.230041259765626,1.6537173476025462,0.9930068289875984,2.812655035763979
1759310170884124200,9.240124267578125,1.9576514868438242,0.6789514009654521,2.585328627645969
1759310170894207500,9.25020751953125,2.1366317972049114,0.48021220490634436,2.2856879478149117
1759310170904290600,9.26029052734375,2.274590653608739,0.5150076239556074,1.8889276408381759
1759310170914373400,9.270373291015625,2.354717791029811,0.8492465928286314,1.5014800827383994
1759310170924456400,9.28045654296875,2.337788868060708,1.4439169515639543,1.1564616534367202
1759310170934539300,9.290539306640625,2.2687486495822666,2.254379932489991,0.8124778278797864
1759310170944622300,9.300622314453125,2.2246523182243108,3.2095050668507814,0.520129497013986
1759310170954705400,9.310705322265624,2.1702502814292908,4.079471207103133,0.24911899160072207
1759310170964788500,9.32078857421875,2.1777520353615283,4.575853041043877,0.005883212819695473
1759310170974871300,9.330871337890626,2.206870577818155,4.594755894434452,-0.10536094739884137
1759310170984954400,9.340954345703125,2.2410382203578947,4.132598401656747,-0.056730918134003876
1759310170995037400,9.351037353515625,2.295495786732435,3.4247236885458228,0.08328530919104814
1759310171005120300,9.361120361328124,2.33156575576216,2.6763778488367795,0.16052900013029575
1759310171015203600,9.37120361328125,2.27259874913916,1.8853712635308504,0.14209157229438424
1759310171025286400,9.381286376953126,2.12325355245471,1.0509335327774285,0.08067731864973902
1759310171035369500,9.391369384765625,1.8977391621947288,0.26780396445691584,0.05449205316603183
1759310171045452300,9.401452392578125,1.6311048260390757,-0.4061059352099895,0.11030030349716544
1759310171055535400,9.411535400390624,1.3595504230074584,-0.858244138276577,0.18153247906193137
1759310171065618200,9.4216181640625,1.0385592043727636,-1.123473868331313,0.17139453140720723
1759310171075701500,9.431701416015626,0.670283964254707,-1.2318950800836086,0.1024352692104876
1759310171085784300,9.441784423828125,0.31125790625810623,-1.1900403901726007,0.05345408842042088
1759310171095867400,9.451867431640625,-0.05852876133620739,-1.1083049407720564,0.0031276305012404916
1759310171105950500,9.461950439453124,-0.3653513154953718,-0.9778098443776368,-0.059821139234304425
1759310171116033300,9.472033203125,-0.6149620361357927,-0.8234253383517265,-0.039433892504870886
1759310171126116400,9.482116455078126,-0.8428507543116808,-0.6893593977332115,0.009519377364963293
1759310171136199400,9.492199462890625,-1.0225859746932984,-0.6332897199869155,0.06194602243378758
1759310171146282500,9.502282470703125,-1.1476828653059898,-0.6250438696891069,0.13152356265932322
1759310171156365300,9.512365234375,-1.2562129442602394,-0.6725806968897581,0.19198007718771695
1759310171166448400,9.522448486328125,-1.3066655127771198,-0.798955498483777,0.1963663294479251
1759310171176531200,9.53253125,-1.323633014190942,-0.918437033432722,0.1852064913995564
1759310171186614300,9.5426142578125,-1.314322018879652,-1.048316043755412,0.1110292022936046
1759310171196697600,9.552697509765625,-1.3213273675970731,-1.2077116559416055,0.015829729555547237
1759310171206780400,9.562780517578124,-1.320387748659402,-1.3988672650039196,-0.037517245228588576
1759310171216863500,9.572863525390625,-1.3403859960712492,-1.5924059698104858,-0.053280339288711544
1759310171226946300,9.5829462890625,-1.3642600620031355,-1.8177227916717529,-0.07986892487630248
1759310171237028900,9.59302880859375,-1.384348910307884,-1.9361790752261876,-0.1425612356327474
1759310171247111700,9.603111572265625,-1.3952742089480161,-1.9658458992153405,-0.1545041868828237
1759310171257194800,9.61319482421875,-1.4279220945745705,-1.9269594114601611,-0.1495464183449745
1759310171267277800,9.62327783203125,-1.4744552976906298,-1.8380945485711098,-0.0835308083847165
1759310171277360600,9.633360595703126,-1.5775043148852883,-1.6922288645654915,0.043077801965177055
1759310171287443700,9.643443603515625,-1.673261129245162,-1.444033271420002,0.2175216379404068
1759310171297526800,9.65352685546875,-1.7202338928222656,-1.1866121692895888,0.3961621949531138
1759310171307609900,9.66360986328125,-1.6383176800273358,-1.0118599980175496,0.5419993104513734
1759310171317692700,9.673692626953125,-1.4732308704622088,-1.0158522825241088,0.6038394613578916
1759310171327775700,9.683775634765626,-1.287758421602845,-1.144533607494831,0.5830770977057517
1759310171337858600,9.693858642578125,-1.1191549822188913,-1.265822484126687,0.4876056761585176
1759310171347941600,9.703941650390625,-0.9925199222534894,-1.3505992009192704,0.4095243653513491
1759310171358025000,9.71402490234375,-0.8737630483172834,-1.2939642905056477,0.34392237769328055
1759310171368107800,9.724107666015625,-0.7688150656335055,-1.1445113956630228,0.24702289610430597
1759310171378190800,9.73419091796875,-0.7912251964926719,-0.9613438627451658,0.1144539160452783
1759310171388273700,9.744273681640625,-0.8009948953568935,-0.7791150719821452,-0.057512423900514836
1759310171398356700,9.754356689453125,-0.8290414246678351,-0.5468155516266823,-0.2753618324905634
1759310171408439600,9.764439453125,-0.8268852695472538,-0.2599082427710295,-0.47348987438138573
1759310171418523000,9.77452294921875,-0.7828620034255087,0.08680033157467841,-0.6530091504573822
1759310171428605700,9.784605712890626,-0.7335042444080114,0.5922983689069747,-0.7597600909098983
1759310171438688800,9.794688720703125,-0.6894464914947748,1.2477701100856065,-0.8550759565692394
1759310171448771800,9.804771728515625,-0.6296122005179524,1.94232883002758,-0.9622275137118994
1759310171458854700,9.814854736328124,-0.6068963647104799,2.545429163455963,-1.1005345990315079
1759310171468937700,9.824937744140625,-0.549855942235887,2.9582676217913626,-1.2366248850844799
1759310171479020800,9.835020751953126,-0.4935983407020569,3.23738909907639,-1.3766264993622899
1759310171489104000,9.845103759765625,-0.373651087937504,3.496120114761591,-1.537257206301391
1759310171499186700,9.855186767578125,-0.2619365337282419,3.7839983144760128,-1.7673481106966733
1759310171509269800,9.865269775390624,-0.1405433199390769,4.065631482321024,-1.9625673159360884
1759310171519352600,9.8753525390625,0.02421718028113246,4.270997987565398,-2.1442077854171395
1759310171529435600,9.885435546875,0.005828121631592512,4.373953335127235,-2.3369923108555377
1759310171539518700,9.895518798828125,0.01411941850632429,4.34870900375545,-2.4621494072228667
1759310171549601800,9.905601806640625,-0.005913607957959175,4.2625288499057294,-2.464851944179833
1759310171559684900,9.915684814453124,-0.03342120808660984,4.070566600635647,-2.3131889720723033
1759310171569767700,9.925767578125,0.005207505515217781,3.7422213659763335,-2.048908505566418
1759310171579850800,9.935850830078126,0.1997398975342512,3.454050320795178,-1.760595421566069
1759310171589933600,9.94593359375,0.45257893257141113,3.281080356764793,-1.5540093113988638
1759310171600017000,9.956016845703125,0.5988958674758672,3.0599867055565118,-1.4301793719820677
1759310171610099700,9.966099609375,0.6568202331781386,2.7049738287240266,-1.2855509746864437
1759310171620182800,9.976182861328125,0.74359177704975,2.2597470124810934,-1.1686491540323942
1759310171630265600,9.986265625,0.8208592872560023,1.6538000574499367,-1.1322428657203911
1759310171640348700,9.9963486328125,1.0507827261298894,0.915824220585823,-1.2001945583097635
1759310171650431700,10.006431640625,1.5007543988123535,0.2154465852320194,-1.1179909068755804
1759310171660514800,10.016514892578124,1.7332561637416481,-0.48161622648537156,-0.8339274431437254
1759310171670598000,10.026597900390625,1.6775544425249098,-1.246861178547144,-0.5961000992774963
1759310171680680700,10.0366806640625,1.541792803904414,-1.9622446598529815,-0.583379441653192
1759310171690763800,10.046763671875,1.4917559765815733,-2.5421996800154445,-0.796757550048083
1759310171700846600,10.0568466796875,1.464966169333458,-2.8021716356724498,-1.0530116542257368
1759310171710929700,10.0669296875,1.2899562239080666,-2.7210616246938706,-1.2765795865930616
1759310171721012700,10.0770126953125,0.9576857786290347,-2.4243980609774587,-1.43185344267413
1759310171731095800,10.087095703125,0.6592663111560046,-2.0165777230650184,-1.5632377429932356
1759310171741178600,10.0971787109375,0.5124547246024013,-1.5986889956027268,-1.6405872323945163
1759310171751261700,10.10726171875,0.4761404254227876,-1.3132500057339667,-1.6180723259866236
1759310171761344800,10.1173447265625,0.47396351977512235,-1.3084879058986902,-1.5066231447152794
1759310171771427600,10.127427490234375,0.5863933826468885,-1.5495394725084304,-1.279430299849063
1759310171781511000,10.137510986328126,0.7083905536785722,-1.8336989439606666,-1.049254201388359
1759310171791593700,10.14759375,0.8146846902742981,-2.082977071645856,-0.905826704315096
1759310171801676800,10.1576767578125,0.8764037720844149,-2.1887217576652764,-0.7948502551220357
1759310171811759600,10.167759521484374,0.9069774817854166,-2.2603736199468374,-0.7044660737112164
1759310171821842700,10.1778427734375,0.9432597783915698,-2.3949977789700028,-0.5835910385772586
1759310171831925500,10.187925537109376,0.9458128238752483,-2.6209587439537048,-0.401163656502217
1759310171842008800,10.1980087890625,0.9030342971175909,-2.7692233057945965,-0.14661343363299964
1759310171852092000,10.208091796875,0.823072725521773,-2.7782927474349735,0.1215241466924548
1759310171862174700,10.2181748046875,0.768919548921287,-2.700605112120509,0.44164048218876123
1759310171872257800,10.2282578125,0.6957055518895388,-2.588755094963312,0.7906737000897526
1759310171882340600,10.238340576171876,0.6236442320242523,-2.475808514741063,1.1478664051793515
1759310171892423700,10.248423583984374,0.6218722539156675,-2.3772628003150222,1.4593546130619943
1759310171902506800,10.2585068359375,0.595156973208487,-2.3792209486454725,1.7641257876493035
1759310171912589800,10.26858984375,0.5934726733833551,-2.4899445921212435,1.9762093261890112
1759310171922672600,10.278672607421875,0.5038692670866847,-2.656426947697997,2.10928406381309
1759310171932755700,10.288755615234376,0.40324689251706003,-2.826828522545099,2.1997212905853987
1759310171942838800,10.2988388671875,0.3248468711495399,-2.952324787738919,2.270987368419766
1759310171952921600,10.308921630859375,0.21016426091492174,-2.975644873049855,2.257498795162886
1759310171963005000,10.3190048828125,0.03231061649620533,-2.8520664241760967,2.1980708930298687
1759310171973087700,10.329087646484375,-0.1289513740837574,-2.605214062333107,2.1401994265586137
1759310171983170800,10.3391708984375,-0.279528889042139,-2.29666190790236,2.01942785179913
1759310171993253600,10.349253662109374,-0.4521791195988655,-1.9250152916550636,1.9205144731044768
1759310172003336700,10.359336669921875,-0.607579816929996,-1.6645342174321411,1.861806409678608
1759310172013419500,10.36941943359375,-0.7491518953949212,-1.5074170715719462,1.8379535326652228
1759310172023502800,10.3795029296875,-0.7835463324278593,-1.3007301313787698,1.8593274523444472
1759310172033585700,10.389585693359376,-0.7277507954478264,-0.9370528865754604,1.8896106546662748
1759310172043668700,10.399668701171874,-0.668764937993884,-0.6312883170366287,1.8766935976870356
1759310172053751800,10.409751708984375,-0.5861632271528243,-0.43025604160428044,1.8433887094564734
1759310172063834600,10.419834716796874,-0.47075201038271186,-0.4157943855315447,1.8187144330576062
1759310172073917700,10.429917724609375,-0.2989320931702852,-0.38983693745434284,1.7724254139609634
1759310172084000800,10.440000732421876,-0.03162555684149265,-0.25558570339679715,1.6987933376476168
1759310172094083800,10.450083740234374,0.33252222808301446,-0.07692541877031325,1.606305315825343
1759310172104166700,10.460166748046875,0.6746396752461791,0.07789046441018581,1.639327295461297
1759310172114249700,10.470249755859374,0.9433002565324305,0.08523381291031837,1.7247298890672622
1759310172124332500,10.48033251953125,1.1213418247386813,0.13680325662791729,1.7330416442081331
1759310172134415600,10.49041552734375,1.2395961559802293,0.26043431247174736,1.6894631992444396
1759310172144499000,10.5004990234375,1.3075275364339352,0.4327116180628538,1.5915562211133538
1759310172154581800,10.510581787109375,1.2752291948974133,0.6166770233601331,1.5440125257804989
1759310172164664800,10.520664794921874,1.253239189146459,0.8105442294687032,1.515077961588651
1759310172174747600,10.53074755859375,1.2322910936638711,0.8581494457304477,1.4330774315111339
1759310172184830700,10.540830810546876,1.296762981313467,0.7296709498554468,1.3414056945078074
1759310172194913500,10.55091357421875,1.4585191851511596,0.6262129134684801,1.1600123316556215
1759310172204996900,10.560996826171875,1.5547876022949814,0.8936264173030852,0.8622442407634109
1759310172215079700,10.57107958984375,1.422274151815474,1.595340854218602,0.5233368416879326
1759310172225162800,10.581162841796875,1.0462994432359933,2.495959906888008,0.2345656386565417
1759310172235245800,10.591245849609376,0.6316428295627236,3.3364877712100744,0.09312726957388222
1759310172245328600,10.60132861328125,0.29287264700084925,3.989999610492587,0.05432407618798315
1759310172255411700,10.61141162109375,0.0657630965039134,4.494807911995053,0.094199136589095
1759310172265494800,10.621494873046874,-0.043745179832726716,4.724240352481603,0.1681444435700774
1759310172275577900,10.631577880859375,-0.0330023981526494,4.57607223675251,0.2890663135204464
1759310172285660700,10.64166064453125,0.2014863028101623,4.096159307053685,0.34077392359972
1759310172295743700,10.65174365234375,0.5618133604027331,3.425505194312334,0.2715294877860695
1759310172305826600,10.66182666015625,1.0057141887389123,2.555106507861614,0.10166939940452575
1759310172315909600,10.67190966796875,1.3322095577478408,1.5683552321374414,-0.08127228886820376
1759310172325992700,10.68199267578125,1.4917425325781106,0.7300093880295753,-0.29101985874101516
1759310172336075800,10.69207568359375,1.427197871953249,0.19061492631435392,-0.513073294892162
1759310172346158800,10.702158935546874,1.2372913861691952,-0.1388373928040266,-0.7696229479502886
1759310172356241700,10.71224169921875,1.0034276852369308,-0.21679624627530575,-1.0191036855354905
1759310172366324700,10.72232470703125,0.7053336503259837,-0.013678981262445449,-1.1854932482622562
1759310172376407600,10.732407470703125,0.30720950765013694,0.34239246471226215,-1.1141840619385242
1759310172386491000,10.742490966796876,-0.12870470584630966,0.523947301736474,-0.7285118429481983
1759310172396573700,10.75257373046875,-0.4450704566374421,0.5971943242549896,-0.1392445123001933
1759310172406656800,10.76265673828125,-0.6647662237465382,0.606927198240161,0.4299010906867683
1759310172416739600,10.772739501953126,-0.8174237598493694,0.5102735811710357,0.8440474167503416
1759310172426822700,10.78282275390625,-1.0469237126141786,0.3214285871386528,1.0831294368527828
1759310172436905700,10.79290576171875,-1.2377788774251937,0.20171207439005373,1.1634161487497388
1759310172446988800,10.80298876953125,-1.3265534316822887,0.23187632650732992,1.020864119336754
1759310172457071900,10.81307177734375,-1.462627204991877,0.4766296702444553,0.7445968624390661
1759310172467154700,10.82315478515625,-1.6701159630872309,0.8179314171105623,0.4850694356791675
1759310172477237800,10.83323779296875,-1.8396821100234984,1.0313561411261558,0.32508827868998047
1759310172487320600,10.843320556640625,-1.877615242576599,1.0903075117886065,0.2548312317676842
1759310172497403600,10.853403564453124,-1.8830770151138305,1.057536876565218,0.24084902977496384
1759310172507486700,10.86348681640625,-1.9102917697757482,1.0625450601160527,0.21554595395326612
1759310172517569800,10.87356982421875,-2.0490888305693864,1.1480816553652287,0.20186551138609646
1759310172527652900,10.88365283203125,-2.24084240552485,1.350950498574972,0.11514555157124995
1759310172537735700,10.893735595703125,-2.548010412120819,1.41861650609076,-0.20812501017227766
1759310172547818800,10.90381884765625,-2.8963445418417453,1.3194184652358292,-0.7602830918706953
1759310172557901600,10.913901611328125,-2.9838813709974286,1.106896243017912,-1.4148795115195214
1759310172567985000,10.92398486328125,-2.9088378204509615,0.7619348046004771,-2.089021466376632
1759310172578067700,10.934067626953125,-2.6550027601137756,0.5205196653753519,-2.5800591628104446
1759310172588150800,10.94415087890625,-2.3277900366157294,0.4351332922518253,-2.7828970263600348
1759310172598233600,10.954233642578124,-2.040288853520155,0.5023685071349143,-2.6191812128871677
1759310172608316700,10.964316650390625,-1.724050820761919,0.6896861454695463,-2.272072094916552
1759310172618399700,10.974399658203126,-1.5279846433043478,0.8056260622888803,-1.8109958215042947
1759310172628482800,10.98448291015625,-1.5486948383778332,0.7341793671905994,-1.288925273425132
1759310172638566000,10.99456591796875,-1.7187416084378957,0.5161252298086881,-0.7158271334201097
1759310172648648700,11.004648681640624,-1.7338684504210948,0.29028116920292374,-0.1950930946417153
1759310172658731800,11.014731689453125,-1.6709543136075138,0.11444704791307449,0.37744536565393205
1759310172668814600,11.024814697265626,-1.5531705224871635,-0.04742985969483852,0.9253124721601604
1759310172678897700,11.034897705078125,-1.3263833358123898,-0.1516430983632803,1.3940262547135351
1759310172688980700,11.044980712890625,-1.209189619539678,-0.2564747611910105,1.7897411442905664
1759310172699063800,11.055063720703124,-1.0947563078910112,-0.3961848451763391,2.157127472744882
1759310172709146600,11.065146728515625,-1.0934925715655088,-0.4526689489424228,2.4774004601076243
1759310172719229700,11.075229736328126,-1.0768711071103811,-0.5366846182346343,2.703863529394567
1759310172729312800,11.085312744140625,-1.1809411379158496,-0.6315455066680907,2.8787998250618574
1759310172739395600,11.0953955078125,-1.3878940355688332,-0.6258692145973443,2.959389903819561
1759310172749479000,11.10547900390625,-1.6792057168632746,-0.30638124013245105,3.006859803263843
1759310172759561700,11.115561767578125,-1.9187807811796664,0.6560235298424959,3.0301325423017142
1759310172769644800,11.125644775390626,-2.2616835335016248,1.954140263852477,2.8915508778244257
1759310172779727600,11.1357275390625,-2.686691737580299,2.487662618663907,2.583272279638052
1759310172789810700,11.145810791015625,-2.6365964580684897,1.9015899924039839,2.3750454165264965
1759310172799893500,11.1558935546875,-2.1029028383433817,1.0855553488254546,2.1987169358484446
1759310172809976800,11.165976806640625,-1.7145938411086796,0.473812274736166,1.8323638959646225
1759310172820060000,11.176059814453126,-1.5867349384367464,-0.031737200522422786,1.298499595847726
1759310172830143700,11.186143798828125,-1.5835107156932353,-0.5496382078319788,0.6383953725628554
1759310172840225800,11.196225830078125,-1.8389169708698987,-1.0647978074789046,-0.11449147157669066
1759310172850308600,11.20630859375,-2.167898165345192,-1.5744032801300287,-0.7910888567619025
1759310172860391700,11.2163916015625,-2.3456956956624984,-1.9408774621754883,-1.251506666265428
1759310172870474800,11.226474853515626,-2.3021757028877734,-1.976852446398139,-1.7242611025117336
1759310172880557800,11.236557861328125,-2.0684125397205353,-1.729022763955593,-2.2789615621693433
1759310172890641700,11.2466416015625,-1.8630407737791537,-1.272454469487071,-2.851261829794943
1759310172900723700,11.2567236328125,-1.694119208356738,-0.601000146278739,-3.223832575149834
1759310172910807600,11.2668076171875,-1.5822528245866299,0.14111469008624553,-3.3093875828385353
1759310172920891000,11.276890869140624,-1.5199515589743853,0.6930278571128845,-3.2337977965861557
1759310172930973000,11.286972900390625,-1.3534575129598378,0.8710363998323678,-2.9855858368277546
1759310172941056800,11.297056884765626,-1.0575029742956161,0.7192384031683207,-2.627239431658387
1759310172951139600,11.3071396484375,-0.7147241406142711,0.39586686526834963,-2.3077178471848367
1759310172961222700,11.31722265625,-0.57535424836874,0.08515490245521068,-2.040007406230271
1759310172971305700,11.3273056640625,-0.6108768126487731,-0.09538052839338779,-1.8076488491639493
1759310172981388800,11.337388916015625,-0.09849018484652042,0.46741760526299475,-2.440391748923063
1759310172991471900,11.347471923828126,-0.009830489140748976,1.6194290012925863,-3.5941286535710093
1759310173001554700,11.3575546875,-1.3850731329292059,2.4187229379504918,-4.194990852683782
1759310173011637800,11.3676376953125,-4.3464603480458255,1.7948802607446908,-3.6824531259730455
1759310173021720600,11.377720458984374,-4.935895144215226,0.3171849582195282,-2.2370891904711723
1759310173031803600,11.3878037109375,-3.089119276538491,-0.819877290481329,-1.0330915866166352
1759310173041886700,11.39788671875,-0.6810650321185588,-1.3767653233110904,-0.7569123002633452
1759310173051969800,11.4079697265625,0.4657786058843136,-1.284175886940956,-0.8287728368595242
1759310173062052600,11.418052490234375,0.44748307073712346,-0.6713584616184234,-0.9971369145296514
1759310173072135700,11.4281357421875,0.24505612607598304,0.041297640550136565,-0.8787104415915906
1759310173082218800,11.43821875,-0.13093641042113302,0.40164194153845306,-0.07834566083177924
1759310173092301800,11.4483017578125,-0.5145125339150428,0.3220399970352649,1.1560570181585847
1759310173102385000,11.458385009765625,-0.45481355975568294,0.123657359328866,2.281972580553591
1759310173112467700,11.4684677734375,-0.15817220787107944,-0.06182312670648098,2.8319007112428545
1759310173122550800,11.47855078125,0.023589549902081487,-0.13821136986017227,2.8018156618416308
1759310173132633600,11.488633544921875,-0.17441724022924898,-0.1274994217097759,2.3287629733011124
1759310173142716700,11.498716552734376,-0.6560989331662654,-0.11723697089254856,1.6308201638787985
1759310173152799700,11.5087998046875,-1.0301613783836363,-0.049376902109384536,0.7569178532212972
1759310173162882800,11.5188828125,-1.11465810919106,-0.09869418298602103,-0.16187179304137825
1759310173172966000,11.5289658203125,-0.9232873960733413,-0.17587854495346544,-0.9253678556092083
1759310173183048700,11.539048583984375,-0.7881763303160667,-0.29138883818387984,-1.4822196480818093
1759310173193131800,11.5491318359375,-0.633525866830349,-0.4138941048681736,-1.827614363349974
1759310173203214600,11.559214599609374,-0.563936782297492,-0.4902712421059608,-1.893479166662693
1759310173213298000,11.5692978515625,-0.6535363892018795,-0.5429986236870289,-1.7115987509459256
1759310173223380700,11.579380615234374,-0.6295446882396936,-0.4649088373124599,-1.4542900231488047
1759310173233463800,11.5894638671875,-0.4872445877611637,-0.42006782506704327,-1.1836905827544628
1759310173243547000,11.599546875,-0.43955344678163527,-0.3432335917115211,-0.9455399982832372
1759310173253630000,11.6096298828125,-0.41345922058224677,-0.2064157220363617,-0.5874523901805281
1759310173263712800,11.619712646484375,-0.37013328907489773,0.09043430416285991,-0.11720774479806423
1759310173273795800,11.6297958984375,-0.2633224351286888,0.4013146092802286,0.3638587388500571
1759310173283879000,11.63987890625,-0.13273673784136772,0.5536702398270368,0.7470844414710998
1759310173293961700,11.649961669921876,0.1107037697315216,0.5246744469672441,0.9829165198668837
1759310173304045000,11.660045166015625,0.21388532726466655,0.42569793990850446,1.0669690140381454
1759310173314128000,11.6701279296875,0.21996260135173795,0.21304829191863536,0.9787127845667302
1759310173324211000,11.6802109375,0.24848960765600203,0.09986556485295295,0.8038176976926624
1759310173334293800,11.690293701171875,0.31374095524549483,0.05647708950340748,0.6113555360764265
1759310173344376800,11.700376953125,0.2831903341591358,0.039136663123965264,0.38831864184588194
1759310173354459600,11.710459716796874,0.2215285354942083,0.03837853823304176,0.1910629623427987
1759310173364543000,11.72054296875,0.20121523078382014,0.06925064635872841,0.008810060051828623
1759310173374626000,11.7306259765625,0.25163550446629523,0.05844926635921001,-0.10040040238201618
1759310173384708900,11.740708984375,0.2904115175843239,0.029376316609978675,-0.14548209151551125
1759310173394792000,11.7507919921875,0.18274492359161376,0.06521861436367035,-0.13824234952032566
1759310173404874800,11.760874755859374,0.1574076532393694,0.17498247289657592,-0.10819690147712827
1759310173414957800,11.770957763671875,0.20488895086050032,0.2375759994536638,-0.10619739822298288
1759310173425041000,11.781041015625,0.1680605646789074,0.3435504025757313,-0.09464037755057216
1759310173435124000,11.7911240234375,0.12921908510923386,0.43339667771756646,-0.1318731067493558
1759310173445206800,11.801206787109376,0.05363339051008224,0.4264584028869867,-0.0433515043400228
1759310173455289900,11.811289794921874,-0.03201601746380329,0.32405718207657336,0.06881546981185674
1759310173465373000,11.821373046875,0.43487785618603225,0.31223113520443435,0.17375468466728924
1759310173475455700,11.831455810546874,0.32320787177085875,0.21181027455627918,0.45957595185190436
1759310173485539000,11.8415390625,-0.3899181859970093,0.017176175728440282,0.5755610960524529
1759310173495622000,11.851621826171876,-0.35747605207562444,-0.13542729209959506,0.6144528445046394
1759310173505705000,11.861705078125,-0.7658733130931854,-0.21710545835494993,0.5291890748474747
1759310173515787800,11.871787841796875,-1.0943342830866574,-0.1285334409326315,0.11526026399210094
1759310173525870800,11.881870849609374,-1.0053548539072275,0.07089139930307865,-0.45044257812984284
1759310173535953700,11.89195361328125,-1.0245546444177627,0.2361649636119604,-0.9319060982715338
1759310173546037000,11.902037109375,-0.8565221367895602,0.16733108136057853,-1.3523293857127427
1759310173556119800,11.912119873046874,-0.33560908818244933,-0.10151274753808974,-1.5104562931373715
1759310173566203000,11.922202880859375,0.13438158243894577,0.02827157023847103,-1.3919722447931766
