time,seconds_elapsed,z,y,x
1759611242431729000,0.00572900390625,-0.06627462804317474,-0.0626753643155098,0.19728244841098785
1759611242441811700,0.015811767578125,-0.0598691925406456,-0.07398714125156403,0.20430625975131989
1759611242451896000,0.02589599609375,-0.0629185140132904,-0.08104478567838669,0.20720964670181274
1759611242461979000,0.035978759765625,-0.07092797011137009,-0.08669068664312363,0.20791831612586975
1759611242472062000,0.04606201171875,-0.08034863322973251,-0.07451551407575607,0.21214155852794647
1759611242482144800,0.056144775390625,-0.0837865099310875,-0.04748282954096794,0.2112797498703003
1759611242492227800,0.066227783203125,-0.08879058808088303,-0.029706496745347977,0.21807773411273956
1759611242502312000,0.07631201171875,-0.09307561814785004,-0.015535283833742142,0.2290070801973343
1759611242512395000,0.08639501953125,-0.09592972695827484,-0.017362745478749275,0.2342660278081894
1759611242522477800,0.096477783203125,-0.10532961785793304,-0.026212962344288826,0.2320779711008072
1759611242532561000,0.106560791015625,-0.11026152968406677,-0.03497209772467613,0.23194348812103271
1759611242542644700,0.116644775390625,-0.11180535703897476,-0.04640771076083183,0.23501437902450562
1759611242552728000,0.12672802734375,-0.10761328041553497,-0.03162983059883118,0.2296140193939209
1759611242562811000,0.136810791015625,-0.10667238384485245,-0.009465673007071018,0.22443044185638428
1759611242572894000,0.14689404296875,-0.10809184610843658,0.009118663147091866,0.211785227060318
1759611242582976800,0.156976806640625,-0.10632883757352829,0.033068470656871796,0.20944243669509888
1759611242593060600,0.167060546875,-0.10494718700647354,0.06740301102399826,0.20370519161224365
1759611242603144000,0.17714404296875,-0.0966557040810585,0.09861419349908829,0.19935545325279236
1759611242613227000,0.18722705078125,-0.08927261829376221,0.12473367899656296,0.1966874897480011
1759611242623309800,0.197309814453125,-0.07574882358312607,0.15986768901348114,0.19301393628120422
1759611242633393000,0.207392822265625,-0.05288238823413849,0.18071545660495758,0.18500153720378876
1759611242643476700,0.217476806640625,-0.020920727401971817,0.17840303480625153,0.19466376304626465
1759611242653559800,0.227559814453125,0.0046362970024347305,0.16749978065490723,0.20072084665298462
1759611242663643000,0.237642822265625,0.023922376334667206,0.1580873727798462,0.21127548813819885
1759611242673726000,0.247725830078125,0.042876094579696655,0.15135250985622406,0.21968229115009308
1759611242683809800,0.257809814453125,0.059964265674352646,0.16977624595165253,0.23453819751739502
1759611242693892600,0.267892578125,0.08756739646196365,0.1921452134847641,0.24936296045780182
1759611242703976000,0.277975830078125,0.10423186421394348,0.2428635060787201,0.2608877718448639
1759611242714058800,0.288058837890625,0.1131550520658493,0.3815161883831024,0.25599104166030884
1759611242724141800,0.298141845703125,0.1319713443517685,0.5814106464385986,0.2507765591144562
1759611242734225700,0.3082255859375,0.15773583948612213,0.7735686898231506,0.2521449029445648
1759611242744309000,0.31830908203125,0.19256359338760376,0.9623857140541077,0.26982003450393677
1759611242754391800,0.328391845703125,0.24824894964694977,1.1977941989898682,0.2678365111351013
1759611242764475000,0.338474853515625,0.31704214215278625,1.5446922779083252,0.2517813742160797
1759611242774558700,0.348558837890625,0.3995274305343628,1.9615638256072998,0.2576128840446472
1759611242784641800,0.358641845703125,0.48982110619544983,2.390320062637329,0.28346365690231323
1759611242794724900,0.368724853515625,0.5894760489463806,2.816723108291626,0.3104340434074402
1759611242804808000,0.378807861328125,0.6919693946838379,3.2722413539886475,0.3307856321334839
1759611242814890800,0.388890869140625,0.7789671421051025,3.7856900691986084,0.339588463306427
1759611242824974800,0.398974853515625,0.8572201728820801,4.328908443450928,0.3206043839454651
1759611242835057700,0.4090576171875,0.9314424395561218,4.862246036529541,0.2753322422504425
1759611242845141000,0.41914111328125,1.0209991931915283,5.349216938018799,0.21629582345485687
1759611242855223800,0.429223876953125,1.1285544633865356,5.7702789306640625,0.15852732956409454
1759611242865308000,0.439307861328125,1.26703941822052,6.112130641937256,0.10747266560792923
1759611242875390700,0.449390625,1.4411920309066772,6.360090732574463,0.05722440779209137
1759611242885473800,0.459473876953125,1.642893671989441,6.493967056274414,0.010599381290376186
1759611242895556900,0.469556884765625,1.8514548540115356,6.484931468963623,-0.02514450065791607
1759611242905640000,0.479639892578125,2.0588035583496094,6.342904090881348,-0.05263205245137215
1759611242915723800,0.489723876953125,2.2571091651916504,6.092154026031494,-0.07824313640594482
1759611242925806800,0.499806884765625,2.4490814208984375,5.7713212966918945,-0.088138647377491
1759611242935889700,0.5098896484375,2.6098275184631348,5.4179534912109375,-0.07098735868930817
1759611242945972500,0.519972412109375,2.7397780418395996,5.047942638397217,-0.04150403290987015
1759611242956055300,0.53005517578125,2.831484794616699,4.674322605133057,-0.014328072778880596
1759611242966139400,0.540139404296875,2.878866195678711,4.324967384338379,-0.0008266451768577099
1759611242976222200,0.55022216796875,2.8888332843780518,4.030293941497803,0.009426524862647057
1759611242986305500,0.560305419921875,2.887739658355713,3.8019697666168213,0.015262842178344727
1759611242996388400,0.570388427734375,2.9031829833984375,3.607952833175659,0.04182281345129013
1759611243006472400,0.580472412109375,2.943822145462036,3.400251626968384,0.05547790601849556
1759611243016555300,0.59055517578125,3.006073236465454,3.1566526889801025,0.028183434158563614
1759611243026638300,0.600638427734375,3.064706563949585,2.8998591899871826,-0.023635022342205048
1759611243036721400,0.610721435546875,3.106625556945801,2.6562325954437256,-0.06567967683076859
1759611243046804500,0.620804443359375,3.130661964416504,2.467676877975464,-0.06374862045049667
1759611243056888300,0.630888427734375,3.125547170639038,2.3585703372955322,-0.050577688962221146
1759611243066971400,0.640971435546875,3.0769853591918945,2.3272619247436523,-0.05662146583199501
1759611243077054200,0.65105419921875,2.9997127056121826,2.3373911380767822,-0.08302564173936844
1759611243087137500,0.661137451171875,2.9060091972351074,2.390522003173828,-0.12368305772542953
1759611243097221400,0.671221435546875,2.826657295227051,2.4625113010406494,-0.17866481840610504
1759611243107304400,0.681304443359375,2.7592616081237793,2.5360982418060303,-0.2453373223543167
1759611243117387300,0.69138720703125,2.7148048877716064,2.608625888824463,-0.322145015001297
1759611243127470600,0.701470703125,2.6809027194976807,2.6724612712860107,-0.39089664816856384
1759611243137553400,0.711553466796875,2.6452298164367676,2.735238790512085,-0.46029624342918396
1759611243147637200,0.72163720703125,2.5999326705932617,2.785752058029175,-0.5255074501037598
1759611243157720300,0.73172021484375,2.552300214767456,2.804854393005371,-0.5803187489509583
1759611243167803400,0.741803466796875,2.5124056339263916,2.7961087226867676,-0.625688374042511
1759611243177886500,0.751886474609375,2.472994327545166,2.7410144805908203,-0.6544854044914246
1759611243187970300,0.76197021484375,2.432865619659424,2.6404216289520264,-0.6635558605194092
1759611243198053400,0.772053466796875,2.395146131515503,2.511389970779419,-0.6741201281547546
1759611243208136400,0.782136474609375,2.3549840450286865,2.3749804496765137,-0.6733075976371765
1759611243218219300,0.79221923828125,2.300246477127075,2.2475764751434326,-0.6649391055107117
1759611243228302600,0.802302490234375,2.244218587875366,2.107438564300537,-0.6596412658691406
1759611243238386400,0.812386474609375,2.1737401485443115,1.9633169174194336,-0.6514177322387695
1759611243248469200,0.82246923828125,2.096723794937134,1.8045244216918945,-0.6323689222335815
1759611243258552300,0.83255224609375,1.9923899173736572,1.6255437135696411,-0.6032313108444214
1759611243268635400,0.842635498046875,1.868222951889038,1.4307523965835571,-0.5604936480522156
1759611243278719500,0.852719482421875,1.7213929891586304,1.2322022914886475,-0.5156494975090027
1759611243288802300,0.86280224609375,1.5605266094207764,1.0590989589691162,-0.4629620611667633
1759611243298885400,0.872885498046875,1.4047194719314575,0.9170741438865662,-0.4141401946544647
1759611243308968200,0.88296826171875,1.2703027725219727,0.8174610137939453,-0.3608154356479645
1759611243319051300,0.89305126953125,1.1477973461151123,0.7514007687568665,-0.3060499429702759
1759611243329135400,0.90313525390625,1.0369094610214233,0.698449969291687,-0.2545657157897949
1759611243339218400,0.913218505859375,0.9232769012451172,0.6510968208312988,-0.20624105632305145
1759611243349301200,0.92330126953125,0.8117458820343018,0.6195766925811768,-0.1722322255373001
1759611243359384300,0.93338427734375,0.6915749907493591,0.6241797208786011,-0.14329484105110168
1759611243369467100,0.943467041015625,0.5727236866950989,0.659687340259552,-0.11220483481884003
1759611243379551500,0.953551513671875,0.45701974630355835,0.716547429561615,-0.07150108367204666
1759611243389634300,0.96363427734375,0.3533242344856262,0.7673091888427734,-0.03435211628675461
1759611243399717400,0.97371728515625,0.2611391842365265,0.8002628684043884,0.01495471503585577
1759611243409800200,0.98380029296875,0.1822853833436966,0.8146226406097412,0.06819822639226913
1759611243419884500,0.993884521484375,0.11754979938268661,0.8089948296546936,0.12641465663909912
1759611243429967400,1.00396728515625,0.07916512340307236,0.7854444980621338,0.19228875637054443
1759611243440050400,1.014050537109375,0.05615195259451866,0.7482268214225769,0.2567577660083771
1759611243450133200,1.02413330078125,0.04213679954409599,0.6986441016197205,0.32604414224624634
1759611243460217600,1.034217529296875,0.021263742819428444,0.6296303868293762,0.3979322016239166
1759611243470300400,1.044300537109375,-0.0046421559527516365,0.5451485514640808,0.464297354221344
1759611243480383500,1.054383544921875,-0.028922727331519127,0.4456099569797516,0.5204647779464722
1759611243490466300,1.06446630859375,-0.06210757791996002,0.33683714270591736,0.5812652707099915
1759611243500549400,1.07454931640625,-0.10657571256160736,0.2432968020439148,0.6304011344909668
1759611243510633500,1.084633544921875,-0.1774083375930786,0.1697741150856018,0.6616479754447937
1759611243520716500,1.094716552734375,-0.26990577578544617,0.06432998925447464,0.6870902180671692
1759611243530799400,1.10479931640625,-0.37210777401924133,-0.05836956575512886,0.723415732383728
1759611243540882400,1.11488232421875,-0.4465535283088684,-0.14458781480789185,0.7594107389450073
1759611243550965200,1.12496533203125,-0.49689099192619324,-0.18610568344593048,0.7906094193458557
1759611243561049300,1.13504931640625,-0.5175169110298157,-0.2517233192920685,0.8131808042526245
1759611243571132400,1.14513232421875,-0.5081090331077576,-0.385242760181427,0.8431967496871948
1759611243581215500,1.155215576171875,-0.4667155146598816,-0.587058424949646,0.8737714290618896
1759611243591298300,1.16529833984375,-0.39058586955070496,-0.8622053265571594,0.9008855819702148
1759611243601382400,1.17538232421875,-0.2974037230014801,-1.1458975076675415,0.9049104452133179
1759611243611465500,1.185465576171875,-0.20840567350387573,-1.3684437274932861,0.8921467065811157
1759611243621548300,1.19554833984375,-0.13806332647800446,-1.4852542877197266,0.87509685754776
1759611243631631400,1.20563134765625,-0.0942617878317833,-1.488895058631897,0.8659896850585938
1759611243641714400,1.21571435546875,-0.07215116173028946,-1.4215991497039795,0.8686778545379639
1759611243651798500,1.225798583984375,-0.041738659143447876,-1.2864348888397217,0.866280198097229
1759611243661881300,1.23588134765625,-0.00618252856656909,-1.1164828538894653,0.8577088117599487
1759611243671964400,1.24596435546875,0.0439101979136467,-0.9375733137130737,0.8473922610282898
1759611243682047500,1.256047607421875,0.11368288844823837,-0.7623943090438843,0.8186858296394348
1759611243692131300,1.26613134765625,0.18905247747898102,-0.6208358407020569,0.7854074835777283
1759611243702214400,1.27621435546875,0.2654822766780853,-0.5065396428108215,0.7469623684883118
1759611243712297500,1.28629736328125,0.3435616195201874,-0.40300339460372925,0.6994081735610962
1759611243722380300,1.29638037109375,0.41593143343925476,-0.3086595833301544,0.6435939073562622
1759611243732463400,1.30646337890625,0.4809684753417969,-0.2063845992088318,0.5866520404815674
1759611243742547200,1.316547119140625,0.5283461213111877,-0.12169394642114639,0.5286598205566406
1759611243752630500,1.326630615234375,0.5650716423988342,-0.08272231370210648,0.4719643294811249
1759611243762713300,1.33671337890625,0.5780002474784851,-0.08809816837310791,0.4125974178314209
1759611243772796400,1.34679638671875,0.56971675157547,-0.12496350705623627,0.35737144947052
1759611243782880300,1.35688037109375,0.5506700873374939,-0.18818801641464233,0.3114047646522522
1759611243792963300,1.36696337890625,0.5324886441230774,-0.26348650455474854,0.2714317739009857
1759611243803046400,1.37704638671875,0.5292263031005859,-0.34368014335632324,0.2546860873699188
1759611243813129500,1.38712939453125,0.5480095744132996,-0.42384156584739685,0.2580645680427551
1759611243823212300,1.39721240234375,0.5872890949249268,-0.5046581029891968,0.2680186629295349
1759611243833296400,1.40729638671875,0.6394087076187134,-0.5816186666488647,0.2833124101161957
1759611243843379200,1.417379150390625,0.7023448348045349,-0.6367426514625549,0.3069937527179718
1759611243853462500,1.427462646484375,0.7736616134643555,-0.6642070412635803,0.33647361397743225
1759611243863545300,1.43754541015625,0.8513041734695435,-0.6554076671600342,0.36987099051475525
1759611243873629400,1.44762939453125,0.9281361103057861,-0.6279606223106384,0.4055275321006775
1759611243883712300,1.457712158203125,1.000176191329956,-0.5841209888458252,0.4332731366157532
1759611243893795600,1.467795654296875,1.0548837184906006,-0.5151283144950867,0.4448184669017792
1759611243903878400,1.47787841796875,1.0904598236083984,-0.4024036228656769,0.43533310294151306
1759611243913961500,1.48796142578125,1.0827566385269165,-0.26923999190330505,0.41759297251701355
1759611243924045300,1.49804541015625,1.0667126178741455,-0.1556987762451172,0.4249126613140106
1759611243934128400,1.50812841796875,1.002107858657837,-0.10851103067398071,0.4324025511741638
1759611243944211500,1.51821142578125,0.8982408046722412,-0.18194423615932465,0.44484323263168335
1759611243954294800,1.528294677734375,0.7853020429611206,-0.3374291658401489,0.4483492970466614
1759611243964378600,1.538378662109375,0.6980549693107605,-0.5237652063369751,0.4318781793117523
1759611243974461700,1.548461669921875,0.6236295104026794,-0.7438520193099976,0.394133985042572
1759611243984544800,1.558544677734375,0.5378592014312744,-1.06112802028656,0.3338533341884613
1759611243994627800,1.5686279296875,0.41079020500183105,-1.5138890743255615,0.2704474627971649
1759611244004710700,1.578710693359375,0.2532106935977936,-1.9538315534591675,0.22044475376605988
1759611244014794800,1.588794677734375,0.10995792597532272,-2.193605661392212,0.19091802835464478
1759611244024877800,1.5988779296875,0.007994542829692364,-2.1787290573120117,0.15984904766082764
1759611244034960600,1.608960693359375,-0.05366216227412224,-2.0019402503967285,0.08355987071990967
1759611244045043700,1.619043701171875,-0.07351469993591309,-1.7877308130264282,-0.059293415397405624
1759611244055127600,1.62912744140625,-0.051290083676576614,-1.5539387464523315,-0.2644612193107605
1759611244065211000,1.6392109375,0.006103432737290859,-1.2706795930862427,-0.48705461621284485
1759611244075293700,1.649293701171875,0.059783171862363815,-0.937405526638031,-0.7133048176765442
1759611244085376800,1.659376708984375,0.07871504873037338,-0.5491651296615601,-0.8987500071525574
1759611244095459600,1.66945947265625,0.043041475117206573,-0.11511912941932678,-1.0297775268554688
1759611244105543700,1.679543701171875,-0.04399462044239044,0.3494597375392914,-1.1056067943572998
1759611244115626800,1.689626708984375,-0.1683107167482376,0.8445546627044678,-1.132397174835205
1759611244125709800,1.699709716796875,-0.3179265558719635,1.3402904272079468,-1.1278053522109985
1759611244135792600,1.709792724609375,-0.4789932072162628,1.7723337411880493,-1.1028828620910645
1759611244145876700,1.719876708984375,-0.6438852548599243,2.095551013946533,-1.0712072849273682
1759611244155959600,1.72995947265625,-0.8103693127632141,2.3175604343414307,-1.0289809703826904
1759611244166043000,1.74004296875,-0.9561909437179565,2.445969820022583,-0.9879928231239319
1759611244176125700,1.750125732421875,-1.090290904045105,2.4973926544189453,-0.9472270011901855
1759611244186208800,1.760208740234375,-1.2041682004928589,2.5161619186401367,-0.9034339785575867
1759611244196292600,1.770292724609375,-1.297389268875122,2.5178346633911133,-0.8565546274185181
1759611244206375700,1.780375732421875,-1.3651190996170044,2.5124564170837402,-0.8007091879844666
1759611244216458800,1.790458740234375,-1.3954039812088013,2.5007381439208984,-0.7362580299377441
1759611244226541800,1.800541748046875,-1.3893942832946777,2.4684650897979736,-0.6632991433143616
1759611244236625700,1.810625732421875,-1.3526256084442139,2.40889835357666,-0.576892614364624
1759611244246708700,1.820708740234375,-1.2949378490447998,2.2884459495544434,-0.4890357255935669
1759611244256791600,1.83079150390625,-1.2170499563217163,2.0712242126464844,-0.41610613465309143
1759611244266875000,1.840875,-1.1383620500564575,1.797391653060913,-0.3480634391307831
1759611244276957700,1.850957763671875,-1.0562690496444702,1.4629380702972412,-0.2876613438129425
1759611244287041800,1.861041748046875,-0.9849352240562439,1.086756706237793,-0.24118998646736145
1759611244297124600,1.87112451171875,-0.9133068323135376,0.6937174797058105,-0.2001410871744156
1759611244307208000,1.8812080078125,-0.8290370106697083,0.3127104938030243,-0.13320572674274445
1759611244317290800,1.891290771484375,-0.7495461702346802,-0.03940679505467415,-0.0539681613445282
1759611244327374600,1.90137451171875,-0.6739153265953064,-0.40116527676582336,-0.0003251719754189253
1759611244337457700,1.911457763671875,-0.6051362156867981,-0.7481729984283447,-0.0021521004382520914
1759611244347540700,1.921540771484375,-0.5491507649421692,-1.0213675498962402,-0.04962960258126259
1759611244357623800,1.931623779296875,-0.49051645398139954,-1.1804767847061157,-0.14050331711769104
1759611244367707000,1.941706787109375,-0.4344814121723175,-1.193010687828064,-0.243655264377594
1759611244377790700,1.951790771484375,-0.38768622279167175,-1.0466619729995728,-0.3312559723854065
1759611244387873500,1.96187353515625,-0.3709389269351959,-0.8197401762008667,-0.3926767110824585
1759611244397956600,1.97195654296875,-0.4013857841491699,-0.5532019138336182,-0.4531254172325134
1759611244408040000,1.9820400390625,-0.4861763119697571,-0.280265748500824,-0.4977157711982727
1759611244418123800,1.992123779296875,-0.6133507490158081,-0.028982914984226227,-0.5201923251152039
1759611244428206600,2.00220654296875,-0.7799618244171143,0.1901467740535736,-0.5089830756187439
1759611244438289700,2.01228955078125,-0.9706364274024963,0.35636425018310547,-0.4621487259864807
1759611244448372500,2.02237255859375,-1.1738578081130981,0.4540465772151947,-0.38570642471313477
1759611244458455800,2.032455810546875,-1.3812605142593384,0.49551281332969666,-0.23638217151165009
1759611244468539600,2.04253955078125,-1.6068552732467651,0.4771905243396759,-0.0645960345864296
1759611244478622700,2.052622802734375,-1.797084093093872,0.39111796021461487,0.10362705588340759
1759611244488705500,2.06270556640625,-1.891746163368225,0.26311978697776794,0.25538888573646545
1759611244498788600,2.07278857421875,-1.8438265323638916,0.15337251126766205,0.42407405376434326
1759611244508872700,2.082872802734375,-1.6358224153518677,0.0025031049735844135,0.5759162902832031
1759611244518955800,2.092955810546875,-1.3272550106048584,-0.23043586313724518,0.6852151155471802
1759611244529038600,2.10303857421875,-0.9945876002311707,-0.5539848804473877,0.7241023182868958
1759611244539121700,2.11312158203125,-0.7359110116958618,-0.9252721667289734,0.7104424238204956
1759611244549204700,2.123204833984375,-0.6024030447006226,-1.2631421089172363,0.6612069606781006
1759611244559288800,2.133288818359375,-0.6027231216430664,-1.543507695198059,0.5864365696907043
1759611244569371600,2.14337158203125,-0.687095046043396,-1.7687991857528687,0.4956534206867218
1759611244579454700,2.153454833984375,-0.7806308269500732,-1.9351063966751099,0.4053589403629303
1759611244589537500,2.16353759765625,-0.8367950320243835,-2.0312821865081787,0.33340513706207275
1759611244599620900,2.173620849609375,-0.8355129957199097,-2.055115222930908,0.2816718816757202
1759611244609704700,2.18370458984375,-0.7752832174301147,-2.0128955841064453,0.2652151584625244
1759611244619787800,2.193787841796875,-0.645624041557312,-1.9038666486740112,0.2555132508277893
1759611244629870600,2.20387060546875,-0.47755539417266846,-1.7389142513275146,0.25108522176742554
1759611244639953700,2.21395361328125,-0.25997912883758545,-1.5186753273010254,0.25906404852867126
1759611244650037800,2.224037841796875,-0.020722055807709694,-1.23419189453125,0.27937865257263184
1759611244660120800,2.234120849609375,0.22817431390285492,-0.9035375714302063,0.3056459426879883
1759611244670203600,2.24420361328125,0.4528076946735382,-0.567995548248291,0.32882288098335266
1759611244680286700,2.25428662109375,0.6554825305938721,-0.269022136926651,0.3462178707122803
1759611244690369500,2.26436962890625,0.8273360133171082,-0.033481527119874954,0.36769813299179077
1759611244700453600,2.27445361328125,0.9493295550346375,0.10334636270999908,0.38761964440345764
1759611244710536700,2.28453662109375,1.0379763841629028,0.12045504152774811,0.4236980080604553
1759611244720619800,2.294619873046875,1.0933152437210083,0.023546071723103523,0.48187288641929626
1759611244730702600,2.30470263671875,1.1231021881103516,-0.17108039557933807,0.5559620261192322
1759611244740786700,2.31478662109375,1.1367546319961548,-0.44717350602149963,0.6398319005966187
1759611244750869800,2.324869873046875,1.1381375789642334,-0.7617026567459106,0.7205469608306885
1759611244760952800,2.334952880859375,1.1302772760391235,-1.0789192914962769,0.787297785282135
1759611244771035600,2.34503564453125,1.104404091835022,-1.3481727838516235,0.8396975994110107
1759611244781118700,2.35511865234375,1.0666990280151367,-1.518504023551941,0.872851550579071
1759611244791202800,2.365202880859375,1.009365200996399,-1.5665291547775269,0.8715288043022156
1759611244801285600,2.37528564453125,0.9296493530273438,-1.5558301210403442,0.849017858505249
1759611244811368700,2.38536865234375,0.834154486656189,-1.5255694389343262,0.8120702505111694
1759611244821451800,2.39545166015625,0.7423332333564758,-1.4962794780731201,0.7569502592086792
1759611244831535900,2.405535888671875,0.6610655784606934,-1.4689218997955322,0.709896981716156
1759611244841618700,2.41561865234375,0.5823915004730225,-1.4411557912826538,0.6779705286026001
1759611244851701800,2.42570166015625,0.5159938335418701,-1.3997920751571655,0.6697482466697693
1759611244861784600,2.43578466796875,0.46038785576820374,-1.35439133644104,0.6724015474319458
1759611244871867600,2.44586767578125,0.412286639213562,-1.3401521444320679,0.6852017641067505
1759611244881951700,2.45595166015625,0.3714425265789032,-1.379372239112854,0.6874910593032837
1759611244892034800,2.466034912109375,0.33968088030815125,-1.4860156774520874,0.6850883364677429
1759611244902117600,2.47611767578125,0.3128300905227661,-1.6177127361297607,0.6777518391609192
1759611244912200700,2.48620068359375,0.2957959771156311,-1.756225347518921,0.662140429019928
1759611244922283800,2.49628369140625,0.27864760160446167,-1.846498727798462,0.6521593928337097
1759611244932368000,2.506367919921875,0.26492488384246826,-1.8457103967666626,0.6548957824707031
1759611244942450700,2.51645068359375,0.2584081292152405,-1.7163010835647583,0.6748040318489075
1759611244952533200,2.526533203125,0.2670503258705139,-1.497040033340454,0.6648363471031189
1759611244962616300,2.5366162109375,0.30559346079826355,-1.218624472618103,0.6122133135795593
1759611244972700200,2.5467001953125,0.3601488471031189,-0.9280444979667664,0.5223750472068787
1759611244982783200,2.556783203125,0.4073674976825714,-0.6132924556732178,0.43628889322280884
1759611244992866300,2.5668662109375,0.43833741545677185,-0.2190609723329544,0.35669898986816406
1759611245002949000,2.57694921875,0.4817535877227783,0.2625139057636261,0.26056528091430664
1759611245013032200,2.5870322265625,0.5320976972579956,0.7162742018699646,0.1306149959564209
1759611245023116000,2.597115966796875,0.5996171236038208,1.0870275497436523,0.009334646165370941
1759611245033199400,2.607199462890625,0.6864140629768372,1.4052467346191406,-0.1025034710764885
1759611245043282200,2.6172822265625,0.8082557916641235,1.7010294198989868,-0.1977277249097824
1759611245053365200,2.627365234375,0.9279265403747559,1.9697892665863037,-0.27089887857437134
1759611245063449000,2.637448974609375,1.0335986614227295,2.190826177597046,-0.3243924677371979
1759611245073532200,2.6475322265625,1.1049047708511353,2.344892978668213,-0.36469539999961853
1759611245083615200,2.657615234375,1.119570255279541,2.4186179637908936,-0.3869312107563019
1759611245093698300,2.6676982421875,1.052323341369629,2.4357779026031494,-0.39891037344932556
1759611245103781000,2.677781005859375,0.8748478889465332,2.4415712356567383,-0.39661818742752075
1759611245113865200,2.687865234375,0.6200981736183167,2.40820050239563,-0.3728007376194
1759611245123948000,2.697947998046875,0.35224059224128723,2.301144599914551,-0.3340725302696228
1759611245134031400,2.70803125,0.12543141841888428,2.1000170707702637,-0.28735214471817017
1759611245144114200,2.7181142578125,-0.04633767157793045,1.8327666521072388,-0.23458853363990784
1759611245154198300,2.7281982421875,-0.1656041443347931,1.5423177480697632,-0.18924476206302643
1759611245164281000,2.738281005859375,-0.243336483836174,1.266615629196167,-0.13926681876182556
1759611245174364200,2.7483642578125,-0.2862567901611328,1.052710771560669,-0.12101323902606964
1759611245184447200,2.758447265625,-0.3038421869277954,0.9407086372375488,-0.13910701870918274
1759611245194530300,2.7685302734375,-0.3009294867515564,0.9371666312217712,-0.20330810546875
1759611245204614100,2.7786142578125,-0.28896015882492065,1.0352452993392944,-0.29392188787460327
1759611245214697200,2.788697265625,-0.2748619318008423,1.2380636930465698,-0.4043522775173187
1759611245224780300,2.7987802734375,-0.26950550079345703,1.5312813520431519,-0.5033504962921143
1759611245234863400,2.80886328125,-0.26978248357772827,1.900661587715149,-0.5843271017074585
1759611245244946200,2.8189462890625,-0.2761647403240204,2.2959718704223633,-0.6457449197769165
1759611245255030300,2.8290302734375,-0.2750842869281769,2.666008710861206,-0.6952053904533386
1759611245265113000,2.839113037109375,-0.26185131072998047,2.9871833324432373,-0.7238250970840454
1759611245275196400,2.849196533203125,-0.22022505104541779,3.220629930496216,-0.7320630550384521
1759611245285279200,2.859279296875,-0.13925856351852417,3.333899736404419,-0.7187171578407288
1759611245295363000,2.869363037109375,-0.030340062454342842,3.341506004333496,-0.6947811841964722
1759611245305446100,2.879446044921875,0.08593248575925827,3.2464187145233154,-0.6501370072364807
1759611245315529200,2.889529296875,0.20443595945835114,3.0595169067382812,-0.5944681763648987
1759611245325612300,2.8996123046875,0.3069274425506592,2.794048547744751,-0.5350421071052551
1759611245335695400,2.9096953125,0.3783683478832245,2.473489999771118,-0.4842923879623413
1759611245345779200,2.919779296875,0.4185698330402374,2.1046640872955322,-0.4292704164981842
1759611245355862000,2.929862060546875,0.434852659702301,1.7258777618408203,-0.3804328143596649
1759611245365945000,2.939945068359375,0.4477527439594269,1.3842676877975464,-0.3407365381717682
1759611245376028400,2.9500283203125,0.46911394596099854,1.02969229221344,-0.3088505268096924
1759611245386112300,2.9601123046875,0.48941364884376526,0.6936599612236023,-0.27950409054756165
1759611245396195000,2.970195068359375,0.4887603521347046,0.36699292063713074,-0.2639499008655548
1759611245406278100,2.980278076171875,0.4651642143726349,0.051955875009298325,-0.2712080776691437
1759611245416361200,2.990361328125,0.41425684094429016,-0.18125340342521667,-0.3176381587982178
1759611245426444300,3.0004443359375,0.3486996591091156,-0.3383040130138397,-0.3706561028957367
1759611245436528000,3.010528076171875,0.254189670085907,-0.45135733485221863,-0.41274362802505493
1759611245446611200,3.020611083984375,0.10358738154172897,-0.5571282505989075,-0.45491984486579895
1759611245456694000,3.030694091796875,-0.10848359763622284,-0.6292772889137268,-0.4555709958076477
1759611245466777300,3.04077734375,-0.33122026920318604,-0.6322996616363525,-0.3908705413341522
1759611245476860200,3.050860107421875,-0.5417346358299255,-0.5322503447532654,-0.2648777365684509
1759611245486944300,3.0609443359375,-0.6869735717773438,-0.29276716709136963,-0.10830649733543396
1759611245497027000,3.071027099609375,-0.7448504567146301,0.08695194125175476,0.050931889563798904
1759611245507110100,3.081110107421875,-0.6967985033988953,0.4303220808506012,0.19898952543735504
1759611245517193200,3.091193115234375,-0.5541415214538574,0.5619080662727356,0.3285437822341919
1759611245527277300,3.10127734375,-0.3832358121871948,0.43852195143699646,0.43640315532684326
1759611245537360100,3.111360107421875,-0.22532419860363007,0.13041606545448303,0.5137762427330017
1759611245547443200,3.121443115234375,-0.12216851860284805,-0.25077682733535767,0.5319890379905701
1759611245557526000,3.131526123046875,-0.1272713989019394,-0.5909075140953064,0.48716431856155396
1759611245567609300,3.141609375,-0.29031598567962646,-0.813067615032196,0.4471311569213867
1759611245577693200,3.151693115234375,-0.5856515169143677,-0.9280266761779785,0.44822704792022705
1759611245587776300,3.1617763671875,-0.8953773975372314,-0.9990923404693604,0.4870636761188507
1759611245597859000,3.171859130859375,-1.1068578958511353,-1.0880078077316284,0.5106638073921204
1759611245607942100,3.181942138671875,-1.2039096355438232,-1.2185418605804443,0.46787533164024353
1759611245618025200,3.192025146484375,-1.2294251918792725,-1.3973225355148315,0.3746263384819031
1759611245628109300,3.202109375,-1.2198734283447266,-1.609407901763916,0.24923965334892273
1759611245638192000,3.212192138671875,-1.2278887033462524,-1.797537088394165,0.11642594635486603
1759611245648275200,3.222275146484375,-1.300024151802063,-1.9158053398132324,0.006337524391710758
1759611245658358000,3.23235791015625,-1.4279388189315796,-1.940948247909546,-0.06860861927270889
1759611245668442400,3.2424423828125,-1.567183256149292,-1.8799326419830322,-0.09562478959560394
1759611245678525200,3.252525146484375,-1.6689428091049194,-1.7300509214401245,-0.08347252011299133
1759611245688608300,3.262608154296875,-1.6953076124191284,-1.4966821670532227,-0.03578409552574158
1759611245698691000,3.272691162109375,-1.622124433517456,-1.1862316131591797,0.017372598871588707
1759611245708774100,3.282774169921875,-1.47357177734375,-0.8397253155708313,0.05582944303750992
1759611245718858200,3.292858154296875,-1.2793575525283813,-0.48050349950790405,0.0643204003572464
1759611245728941300,3.30294140625,-1.070559024810791,-0.14177870750427246,0.047319844365119934
1759611245739024100,3.313024169921875,-0.8601829409599304,0.16421397030353546,0.024519192054867744
1759611245749107200,3.323107177734375,-0.6658499240875244,0.4121641218662262,0.019961724057793617
1759611245759191300,3.33319140625,-0.48308995366096497,0.5727476477622986,0.025075525045394897
1759611245769274000,3.343274169921875,-0.3275320529937744,0.609844446182251,0.041427865624427795
1759611245779357200,3.353357177734375,-0.19639161229133606,0.5152968764305115,0.07206247746944427
1759611245789440300,3.363440185546875,-0.08793891221284866,0.2869630753993988,0.09674811363220215
1759611245799523000,3.373523193359375,-0.012529906816780567,-0.04953799024224281,0.12086117267608643
1759611245809607200,3.383607177734375,0.03150785714387894,-0.4631918966770172,0.12215307354927063
1759611245819690200,3.393690185546875,0.03843660652637482,-0.9201306700706482,0.11124157160520554
1759611245829773300,3.403773193359375,0.017080184072256088,-1.352020263671875,0.09760192036628723
1759611245839856000,3.413856201171875,-0.021978003904223442,-1.738993525505066,0.07615282386541367
1759611245849939200,3.423939208984375,-0.07403507828712463,-2.043046712875366,0.054371897131204605
1759611245860023300,3.434023193359375,-0.13075189292430878,-2.254742383956909,0.02328002266585827
1759611245870106000,3.444106201171875,-0.18207232654094696,-2.3539702892303467,-0.020780645310878754
1759611245880189200,3.454189208984375,-0.22971920669078827,-2.339327812194824,-0.08039044588804245
1759611245890272300,3.464272216796875,-0.27663132548332214,-2.222012519836426,-0.13989931344985962
1759611245900355000,3.47435498046875,-0.32287153601646423,-2.02295184135437,-0.18837682902812958
1759611245910439200,3.484439208984375,-0.36631807684898376,-1.7775273323059082,-0.23216693103313446
1759611245920522200,3.494522216796875,-0.41028687357902527,-1.5200908184051514,-0.26581570506095886
1759611245930605000,3.50460498046875,-0.45454245805740356,-1.2660566568374634,-0.29046350717544556
1759611245940688100,3.514688232421875,-0.4910733103752136,-1.0177816152572632,-0.30616071820259094
1759611245950772700,3.524772705078125,-0.5159408450126648,-0.770488440990448,-0.3153899013996124
1759611245960855800,3.534855712890625,-0.5141698718070984,-0.5329549908638,-0.33306077122688293
1759611245970939000,3.54493896484375,-0.4966137707233429,-0.2959866523742676,-0.3709128201007843
1759611245981022000,3.55502197265625,-0.4647091031074524,-0.06100689619779587,-0.4170699417591095
1759611245991104800,3.565104736328125,-0.4259427785873413,0.1556529700756073,-0.4588637053966522
1759611246001188900,3.57518896484375,-0.3609691262245178,0.32803434133529663,-0.4872508943080902
1759611246011271700,3.585271728515625,-0.2683528959751129,0.40253520011901855,-0.484763503074646
1759611246021355000,3.59535498046875,-0.1713017076253891,0.31520721316337585,-0.4475860297679901
1759611246031437800,3.605437744140625,-0.08940817415714264,0.09075254201889038,-0.36667200922966003
1759611246041521000,3.61552099609375,-0.015263907611370087,-0.19542887806892395,-0.2396288365125656
1759611246051604700,3.625604736328125,0.08305414021015167,-0.4737981855869293,-0.07765617966651917
1759611246061688000,3.63568798828125,0.21325048804283142,-0.6798070073127747,0.10108187794685364
1759611246071771000,3.64577099609375,0.3793491721153259,-0.791999876499176,0.2645150125026703
1759611246081854000,3.65585400390625,0.5887860059738159,-0.8378155827522278,0.4071611166000366
1759611246091937800,3.665937744140625,0.8175544738769531,-0.8144369721412659,0.5076469779014587
1759611246102020900,3.676020751953125,1.0564885139465332,-0.7305927276611328,0.5663949847221375
1759611246112104000,3.68610400390625,1.2794973850250244,-0.5608865022659302,0.6063365340232849
1759611246122187000,3.69618701171875,1.456544280052185,-0.28190091252326965,0.6523354649543762
1759611246132269800,3.706269775390625,1.5729631185531616,0.06842965632677078,0.6858422756195068
1759611246142353700,3.716353759765625,1.639894723892212,0.44592154026031494,0.6813758611679077
1759611246152436700,3.726436767578125,1.6671282052993774,0.8323376774787903,0.65093594789505
1759611246162519800,3.736519775390625,1.666570782661438,1.211327075958252,0.6013095378875732
1759611246172603000,3.746602783203125,1.644454002380371,1.5562183856964111,0.5312092900276184
1759611246182686000,3.75668603515625,1.6129168272018433,1.8959258794784546,0.4569939076900482
1759611246192769800,3.766769775390625,1.5721007585525513,2.2406535148620605,0.37127527594566345
1759611246202852600,3.7768525390625,1.5335538387298584,2.527276039123535,0.2933703660964966
1759611246212936000,3.78693603515625,1.5050697326660156,2.68569278717041,0.25904327630996704
1759611246223019000,3.79701904296875,1.4969040155410767,2.6550488471984863,0.27391916513442993
1759611246233102800,3.807102783203125,1.5062260627746582,2.439704656600952,0.3300759196281433
1759611246243185700,3.817185546875,1.523644208908081,2.1267659664154053,0.39280614256858826
1759611246253268700,3.827268798828125,1.5200450420379639,1.8125370740890503,0.44014009833335876
1759611246263351800,3.837351806640625,1.499192476272583,1.556496262550354,0.45695316791534424
1759611246273435000,3.847434814453125,1.4541716575622559,1.4150564670562744,0.40892279148101807
1759611246283518700,3.857518798828125,1.3882882595062256,1.4333162307739258,0.30599135160446167
1759611246293601800,3.867601806640625,1.3103593587875366,1.6167904138565063,0.16349518299102783
1759611246303684900,3.877684814453125,1.2368156909942627,1.9351074695587158,0.010909106582403183
1759611246313768000,3.887767822265625,1.1690664291381836,2.326120376586914,-0.11948245763778687
1759611246323850800,3.897850830078125,1.1140687465667725,2.7077488899230957,-0.2191973328590393
1759611246333934800,3.907934814453125,1.084589958190918,3.017401933670044,-0.295095831155777
1759611246344017700,3.918017578125,1.0861366987228394,3.195765733718872,-0.35036760568618774
1759611246354099700,3.928099609375,1.103271722793579,3.2182133197784424,-0.38555729389190674
1759611246364183000,3.93818310546875,1.137638807296753,3.0762457847595215,-0.39855775237083435
1759611246374265900,3.948265869140625,1.1651017665863037,2.7741761207580566,-0.3842155933380127
1759611246384349000,3.958348876953125,1.1600322723388672,2.3443496227264404,-0.3501574695110321
1759611246394432800,3.968432861328125,1.1256625652313232,1.8519166707992554,-0.3027907609939575
1759611246404515800,3.978515869140625,1.0532985925674438,1.350526213645935,-0.25191372632980347
1759611246414599000,3.988598876953125,0.9381498694419861,0.8595160841941833,-0.21257032454013824
1759611246424682000,3.998681884765625,0.8024333119392395,0.42377790808677673,-0.17651325464248657
1759611246434764800,4.008764892578125,0.6805801391601562,0.086148202419281,-0.14838574826717377
1759611246444849000,4.018848876953125,0.601772665977478,-0.13769447803497314,-0.1396937221288681
1759611246454931700,4.028931640625,0.5746473073959351,-0.24268561601638794,-0.15294267237186432
1759611246465015000,4.03901513671875,0.5946077108383179,-0.255569726228714,-0.2005525380373001
1759611246475097900,4.049097900390625,0.6249232888221741,-0.20231235027313232,-0.32273223996162415
1759611246485181700,4.059181640625,0.6470746397972107,-0.09798648208379745,-0.4819871485233307
1759611246495264800,4.0692646484375,0.6387256383895874,0.05651174485683441,-0.6521583199501038
1759611246505347800,4.079347900390625,0.5590358376502991,0.23081296682357788,-0.7801911234855652
1759611246515431000,4.089430908203125,0.37635180354118347,0.4045994281768799,-0.8631784319877625
1759611246525514000,4.099513916015625,0.09455206990242004,0.5581186413764954,-0.8749338984489441
1759611246535597800,4.109597900390625,-0.2888355255126953,0.660341203212738,-0.8128185868263245
1759611246545680600,4.1196806640625,-0.7488084435462952,0.6984952092170715,-0.6855759620666504
1759611246555763700,4.129763671875,-1.2176241874694824,0.6354627013206482,-0.5391926169395447
1759611246565847000,4.139846923828125,-1.5925830602645874,0.5155962109565735,-0.4124749004840851
1759611246575929900,4.149929931640625,-1.7637101411819458,0.43575361371040344,-0.27351143956184387
1759611246586013700,4.160013671875,-1.7256675958633423,0.45874813199043274,-0.1285766214132309
1759611246596096800,4.1700966796875,-1.504946231842041,0.582114040851593,-0.005078914575278759
1759611246606179800,4.180179931640625,-1.1803300380706787,0.739406406879425,0.08923081308603287
1759611246616263000,4.190262939453125,-0.8685950636863708,0.8926897048950195,0.17379336059093475
1759611246626346800,4.2003466796875,-0.631071150302887,0.9737794995307922,0.2569290101528168
1759611246636429800,4.210429931640625,-0.5127253532409668,0.9316152930259705,0.3585435152053833
1759611246646512600,4.2205126953125,-0.5069414973258972,0.7205922603607178,0.47880521416664124
1759611246656596000,4.230595947265625,-0.5771456360816956,0.3337870240211487,0.6130762100219727
1759611246666678800,4.2406787109375,-0.7197203636169434,-0.2256818562746048,0.7405989766120911
1759611246676763000,4.250762939453125,-0.9131126999855042,-0.8609594702720642,0.8185044527053833
1759611246686845700,4.260845703125,-1.1231123208999634,-1.4416249990463257,0.8581690192222595
1759611246696928800,4.2709287109375,-1.3128776550292969,-1.8992851972579956,0.8620750904083252
1759611246707011800,4.28101171875,-1.463107705116272,-2.23340106010437,0.8452575206756592
1759611246717095000,4.291094970703125,-1.5663772821426392,-2.44608211517334,0.8211234211921692
1759611246727178800,4.3011787109375,-1.6260918378829956,-2.5450119972229004,0.7875092625617981
1759611246737261800,4.31126171875,-1.6372544765472412,-2.5063676834106445,0.7382469177246094
1759611246747344600,4.3213447265625,-1.6239367723464966,-2.340142011642456,0.6752980351448059
1759611246757428000,4.331427978515625,-1.6131802797317505,-2.049712657928467,0.6155063509941101
1759611246767510800,4.3415107421875,-1.60045325756073,-1.6669912338256836,0.5511515736579895
1759611246777595000,4.351594970703125,-1.6015180349349976,-1.2459205389022827,0.5002788305282593
1759611246787677700,4.361677734375,-1.6155587434768677,-0.8381316661834717,0.45730656385421753
1759611246797760800,4.3717607421875,-1.6404342651367188,-0.5070871710777283,0.4381919801235199
1759611246807843800,4.38184375,-1.666269063949585,-0.27707767486572266,0.4543464779853821
1759611246817927000,4.391927001953125,-1.6766161918640137,-0.15097619593143463,0.49605104327201843
1759611246828010800,4.4020107421875,-1.6745238304138184,-0.1385946273803711,0.5468316674232483
1759611246838093800,4.41209375,-1.6467376947402954,-0.2247425615787506,0.5846037864685059
1759611246848176600,4.4221767578125,-1.60597825050354,-0.4028435945510864,0.6054779291152954
1759611246858260000,4.432260009765625,-1.553835153579712,-0.6408764123916626,0.6074808835983276
1759611246868343800,4.44234375,-1.501899003982544,-0.9431347846984863,0.5977560877799988
1759611246878427000,4.452427001953125,-1.4578900337219238,-1.2443188428878784,0.5800465941429138
1759611246888509700,4.462509765625,-1.4240691661834717,-1.5103822946548462,0.5598102807998657
1759611246898593000,4.472593017578125,-1.3923386335372925,-1.7231354713439941,0.5367140173912048
1759611246908675800,4.48267578125,-1.3620489835739136,-1.8720605373382568,0.5072344541549683
1759611246918760000,4.492760009765625,-1.334227204322815,-1.9462392330169678,0.47379234433174133
1759611246928842800,4.5028427734375,-1.3039734363555908,-1.95641028881073,0.4338023066520691
1759611246938925800,4.51292578125,-1.2812201976776123,-1.8918150663375854,0.3747949004173279
1759611246949009000,4.5230087890625,-1.2535861730575562,-1.7806172370910645,0.3061245083808899
1759611246959091500,4.533091552734375,-1.2277582883834839,-1.6159858703613281,0.23495711386203766
1759611246969175600,4.543175537109375,-1.205126404762268,-1.4145896434783936,0.1670459806919098
1759611246979258600,4.553258544921875,-1.185694694519043,-1.186964511871338,0.09538990259170532
1759611246989341400,4.563341552734375,-1.159764289855957,-0.9278719425201416,0.028597556054592133
1759611246999424500,4.573424560546875,-1.1322836875915527,-0.6682824492454529,-0.03957590460777283
1759611247009507300,4.58350732421875,-1.1098932027816772,-0.42750152945518494,-0.11100934445858002
1759611247019591700,4.593591796875,-1.085203766822815,-0.20233845710754395,-0.17723603546619415
1759611247029674500,4.603674560546875,-1.065622091293335,-0.028142156079411507,-0.2461618334054947
1759611247039757600,4.613757568359375,-1.048736572265625,0.09774067252874374,-0.32293012738227844
1759611247049840400,4.62384033203125,-1.02684485912323,0.1923321634531021,-0.41550612449645996
1759611247059923500,4.63392333984375,-0.9952573776245117,0.3251644968986511,-0.5067750215530396
1759611247070007600,4.644007568359375,-0.9312949180603027,0.47443974018096924,-0.5726685523986816
1759611247080090600,4.654090576171875,-0.807990550994873,0.6139166951179504,-0.5902033448219299
1759611247090173400,4.66417333984375,-0.698082447052002,0.6032558083534241,-0.5637339353561401
1759611247100256500,4.674256591796875,-0.7189597487449646,0.39526236057281494,-0.5201656818389893
1759611247110339300,4.68433935546875,-0.8006085157394409,0.05580361187458038,-0.4359581470489502
1759611247120423700,4.694423583984375,-0.7990862727165222,-0.2593703269958496,-0.35696399211883545
1759611247130506500,4.704506591796875,-0.6414614915847778,-0.4504968523979187,-0.30180007219314575
1759611247140589600,4.714589599609375,-0.3256228268146515,-0.5147477388381958,-0.27118009328842163
1759611247150672400,4.72467236328125,0.08968567848205566,-0.5474241971969604,-0.2685803174972534
1759611247160755500,4.73475537109375,0.5680969953536987,-0.635999858379364,-0.2691443860530853
1759611247170839600,4.744839599609375,1.042078971862793,-0.825482189655304,-0.21107149124145508
1759611247180922600,4.754922607421875,1.4564175605773926,-1.0708400011062622,-0.10711420327425003
1759611247191005400,4.76500537109375,1.7546976804733276,-1.253528356552124,0.021158015355467796
1759611247201088500,4.775088623046875,1.959313154220581,-1.2772674560546875,0.15255571901798248
1759611247211172400,4.78517236328125,2.0741825103759766,-1.16163969039917,0.24411413073539734
1759611247221255400,4.79525537109375,2.11795711517334,-0.9433566331863403,0.2915586233139038
1759611247231338500,4.80533837890625,2.0985422134399414,-0.6409813165664673,0.3062129318714142
1759611247241421600,4.815421630859375,2.026932716369629,-0.28737878799438477,0.3235756754875183
1759611247251504400,4.82550439453125,1.9152852296829224,0.09311609715223312,0.3413618505001068
1759611247261588500,4.83558837890625,1.7869256734848022,0.46822553873062134,0.3610236942768097
1759611247271671600,4.845671630859375,1.6474149227142334,0.763759970664978,0.39617449045181274
1759611247281754400,4.85575439453125,1.5318191051483154,0.9218981862068176,0.4437582790851593
1759611247291837400,4.86583740234375,1.4456058740615845,0.9845855832099915,0.46362224221229553
1759611247301920500,4.87592041015625,1.379802942276001,1.0446257591247559,0.4125356376171112
1759611247312004600,4.886004638671875,1.3039358854293823,1.1187527179718018,0.2524929642677307
1759611247322087400,4.89608740234375,1.2032630443572998,1.1538704633712769,0.0635928213596344
1759611247332170500,4.90617041015625,1.1008106470108032,1.1707279682159424,-0.056342367082834244
1759611247342253600,4.916253662109375,1.0472862720489502,1.2278376817703247,-0.10921011120080948
1759611247352336400,4.92633642578125,1.068223476409912,1.328713059425354,-0.14895538985729218
1759611247362420500,4.93642041015625,1.1741480827331543,1.4442213773727417,-0.1640736311674118
1759611247372503600,4.946503662109375,1.3456233739852905,1.5222407579421997,-0.15716564655303955
1759611247382586400,4.95658642578125,1.5495704412460327,1.4954893589019775,-0.1252010613679886
1759611247392669400,4.96666943359375,1.7384116649627686,1.3519114255905151,-0.0922982394695282
1759611247402752500,4.97675244140625,1.8922033309936523,1.1229537725448608,-0.08977515995502472
1759611247412836600,4.986836669921875,1.999426245689392,0.8574609160423279,-0.11023356020450592
1759611247422919400,4.99691943359375,2.054495334625244,0.5843974351882935,-0.13518765568733215
1759611247433002500,5.00700244140625,2.065873861312866,0.3355806767940521,-0.15376532077789307
1759611247443085300,5.017085205078125,2.0565226078033447,0.15557308495044708,-0.14982837438583374
1759611247453169400,5.02716943359375,2.0367238521575928,0.08083013445138931,-0.13349761068820953
1759611247463252500,5.03725244140625,2.027369737625122,0.09425432980060577,-0.1322411298751831
1759611247473335600,5.04733544921875,2.025743246078491,0.18014900386333466,-0.1423717886209488
1759611247483418400,5.05741845703125,2.0177242755889893,0.3011814057826996,-0.13947001099586487
1759611247493501400,5.06750146484375,2.0018534660339355,0.4523216485977173,-0.15118525922298431
1759611247503585500,5.07758544921875,1.9725162982940674,0.6325185894966125,-0.17635132372379303
1759611247513668600,5.087668701171875,1.9308812618255615,0.8315011858940125,-0.21508167684078217
1759611247523751400,5.09775146484375,1.8790481090545654,1.0407582521438599,-0.2557702660560608
1759611247533834500,5.10783447265625,1.824281096458435,1.221092939376831,-0.29699358344078064
1759611247543917300,5.117917236328125,1.7769672870635986,1.3512064218521118,-0.34190434217453003
1759611247554001700,5.128001708984375,1.7246346473693848,1.4239325523376465,-0.3883517384529114
1759611247564084500,5.13808447265625,1.6608047485351562,1.447736144065857,-0.431271493434906
1759611247574167600,5.14816748046875,1.590409755706787,1.4486267566680908,-0.4448874592781067
1759611247584250400,5.15825048828125,1.5041786432266235,1.4054704904556274,-0.4386412799358368
1759611247594333400,5.16833349609375,1.4017183780670166,1.341692566871643,-0.4104927182197571
1759611247604417500,5.17841748046875,1.2955557107925415,1.2337990999221802,-0.3434489667415619
1759611247614500600,5.18850048828125,1.1667758226394653,1.0439783334732056,-0.2789296507835388
1759611247624583400,5.19858349609375,1.010547399520874,0.843481183052063,-0.21596452593803406
1759611247634666500,5.20866650390625,0.849165678024292,0.6722849011421204,-0.13745133578777313
1759611247644749300,5.218749267578125,0.6647359132766724,0.5870850682258606,-0.0597434900701046
1759611247654833700,5.228833740234375,0.4548726975917816,0.5743018984794617,0.016214122995734215
1759611247664916500,5.23891650390625,0.2421758770942688,0.6587808132171631,0.08820708841085434
1759611247674999600,5.24899951171875,0.07528357207775116,0.8063271641731262,0.17515583336353302
1759611247685082400,5.259082275390625,-0.011363708414137363,0.9256788492202759,0.2595580816268921
1759611247695165400,5.26916552734375,-0.004572647623717785,1.0138696432113647,0.3410271108150482
1759611247705249500,5.27924951171875,0.057380203157663345,1.0935431718826294,0.42959263920783997
1759611247715332600,5.28933251953125,0.11203625798225403,1.1686382293701172,0.5176575183868408
1759611247725415400,5.29941552734375,0.11222320795059204,1.2095364332199097,0.5956727266311646
1759611247735498500,5.30949853515625,0.02594318427145481,1.1782280206680298,0.6748924255371094
1759611247745581300,5.319581298828125,-0.13609792292118073,1.066955804824829,0.741418719291687
1759611247755665700,5.329665771484375,-0.3253903388977051,0.8830000758171082,0.7995163798332214
1759611247765748500,5.33974853515625,-0.48847541213035583,0.6522925496101379,0.877108097076416
1759611247775831600,5.34983154296875,-0.6017524003982544,0.37252962589263916,0.9474024772644043
1759611247785914400,5.359914306640625,-0.6893280744552612,0.04771266132593155,0.9790166020393372
1759611247795997400,5.36999755859375,-0.7783833742141724,-0.29288992285728455,0.9788986444473267
1759611247806081500,5.38008154296875,-0.8789475560188293,-0.6234548091888428,0.9644408822059631
1759611247816164600,5.39016455078125,-0.9926978349685669,-0.9218478798866272,0.9336022734642029
1759611247826247400,5.400247314453125,-1.1165635585784912,-1.1692701578140259,0.8910332322120667
1759611247836330500,5.41033056640625,-1.2477163076400757,-1.3345928192138672,0.8528786897659302
1759611247846414600,5.42041455078125,-1.382420539855957,-1.4068020582199097,0.8086478114128113
1759611247856497400,5.430497314453125,-1.521937370300293,-1.4101719856262207,0.7545377016067505
1759611247866580500,5.44058056640625,-1.6487915515899658,-1.3693017959594727,0.6899571418762207
1759611247876663600,5.45066357421875,-1.7519607543945312,-1.2982378005981445,0.6144711375236511
1759611247886746400,5.460746337890625,-1.823628306388855,-1.2279771566390991,0.5378909111022949
1759611247896830500,5.47083056640625,-1.8629621267318726,-1.1813106536865234,0.46365633606910706
1759611247906913500,5.48091357421875,-1.8788710832595825,-1.1711541414260864,0.3895285725593567
1759611247916996400,5.490996337890625,-1.8879010677337646,-1.2040729522705078,0.32103848457336426
1759611247927079400,5.501079345703125,-1.8896970748901367,-1.2938475608825684,0.25143224000930786
1759611247937162500,5.51116259765625,-1.8990756273269653,-1.4475473165512085,0.1826145499944687
1759611247947246600,5.52124658203125,-1.9102298021316528,-1.6700201034545898,0.11813649535179138
1759611247957329400,5.531329345703125,-1.9143925905227661,-1.9721299409866333,0.055564723908901215
1759611247967412500,5.54141259765625,-1.8955118656158447,-2.32926607131958,-0.001609614584594965
1759611247977495600,5.55149560546875,-1.8527384996414185,-2.6699347496032715,-0.049192581325769424
1759611247987578600,5.56157861328125,-1.778478980064392,-2.9361138343811035,-0.10016388446092606
1759611247997662500,5.571662353515625,-1.6888036727905273,-3.1176023483276367,-0.18212026357650757
1759611248007745500,5.58174560546875,-1.6378475427627563,-3.260159492492676,-0.3222123980522156
1759611248017828400,5.591828369140625,-1.6400576829910278,-3.3139212131500244,-0.44198912382125854
1759611248027911700,5.60191162109375,-1.6367298364639282,-3.2569711208343506,-0.5065808892250061
1759611248037994500,5.611994384765625,-1.62480628490448,-3.0896382331848145,-0.5501883029937744
1759611248048078600,5.62207861328125,-1.6031733751296997,-2.8415651321411133,-0.5894994735717773
1759611248058161400,5.632161376953125,-1.5687755346298218,-2.5464766025543213,-0.6237748861312866
1759611248068244700,5.64224462890625,-1.5160489082336426,-2.2448132038116455,-0.6468517184257507
1759611248078327600,5.65232763671875,-1.4518952369689941,-1.9519153833389282,-0.6615862250328064
1759611248088410600,5.66241064453125,-1.394302248954773,-1.6934561729431152,-0.6881682872772217
1759611248098494500,5.672494384765625,-1.3509987592697144,-1.458691120147705,-0.7487541437149048
1759611248108577500,5.68257763671875,-1.3378517627716064,-1.2241859436035156,-0.8242172002792358
1759611248118660600,5.69266064453125,-1.355574607849121,-0.9718215465545654,-0.9168598055839539
1759611248128743700,5.70274365234375,-1.3977491855621338,-0.686802864074707,-1.006754994392395
1759611248138826500,5.712826416015625,-1.4536174535751343,-0.370562344789505,-1.0894232988357544
1759611248148910600,5.72291064453125,-1.5110520124435425,-0.03358832001686096,-1.1240254640579224
1759611248158993400,5.732993408203125,-1.5573875904083252,0.30985239148139954,-1.1068979501724243
1759611248169076700,5.74307666015625,-1.5541398525238037,0.6359298229217529,-1.040278673171997
1759611248179159600,5.75315966796875,-1.4925681352615356,0.8959542512893677,-0.9483000040054321
1759611248189242600,5.76324267578125,-1.372780442237854,1.0390557050704956,-0.8694264888763428
1759611248199326500,5.773326416015625,-1.1929150819778442,1.0290896892547607,-0.8019989728927612
1759611248209409500,5.783409423828125,-0.9707536101341248,0.8756241798400879,-0.7141668796539307
1759611248219492600,5.79349267578125,-0.7335842251777649,0.6068824529647827,-0.5915740728378296
1759611248229575700,5.80357568359375,-0.498555988073349,0.27406829595565796,-0.45165905356407166
1759611248239658500,5.813658447265625,-0.2711465358734131,-0.05943163484334946,-0.33757564425468445
1759611248249742600,5.82374267578125,-0.046482812613248825,-0.3386499583721161,-0.2520271837711334
1759611248259825400,5.833825439453125,0.1866905242204666,-0.5293602347373962,-0.19135157763957977
1759611248269908700,5.84390869140625,0.4467250406742096,-0.6158365607261658,-0.1678670346736908
1759611248279991600,5.853991455078125,0.7107662558555603,-0.604686439037323,-0.16869421303272247
1759611248290075600,5.86407568359375,0.9814981818199158,-0.4940933585166931,-0.15204864740371704
1759611248300158500,5.874158447265625,1.1907984018325806,-0.3131624460220337,-0.07138177007436752
1759611248310241800,5.88424169921875,1.311972975730896,-0.10834218561649323,0.07649637013673782
1759611248320324600,5.89432470703125,1.3482881784439087,0.07100067287683487,0.18565188348293304
1759611248330407700,5.90440771484375,1.3829281330108643,0.21338684856891632,0.2972700297832489
1759611248340491500,5.914491455078125,1.4366728067398071,0.3362294137477875,0.40768948197364807
1759611248350574600,5.92457470703125,1.4928938150405884,0.4484582245349884,0.4995355010032654
1759611248360657700,5.93465771484375,1.5373469591140747,0.5569220781326294,0.5613996982574463
1759611248370740700,5.94474072265625,1.5491496324539185,0.6794581413269043,0.6024597883224487
1759611248380823600,5.954823486328125,1.520498275756836,0.8298212885856628,0.6323249936103821
1759611248390907600,5.96490771484375,1.4536070823669434,1.0158231258392334,0.644216001033783
1759611248400990500,5.974990478515625,1.3540858030319214,1.197869896888733,0.6445726156234741
1759611248411073800,5.98507373046875,1.2442430257797241,1.3603237867355347,0.620671272277832
1759611248421156600,5.995156494140625,1.1354176998138428,1.4618905782699585,0.5910584926605225
1759611248431239700,6.00523974609375,1.0248056650161743,1.490333914756775,0.5464289784431458
1759611248441323500,6.015323486328125,0.9262349009513855,1.466764211654663,0.5019914507865906
1759611248451406600,6.025406494140625,0.857012927532196,1.4417821168899536,0.4508073925971985
1759611248461489700,6.03548974609375,0.8169166445732117,1.4660272598266602,0.3883240520954132
1759611248471572700,6.04557275390625,0.8338817954063416,1.5363200902938843,0.3244055211544037
1759611248481655600,6.055655517578125,0.8882108330726624,1.6186176538467407,0.2572839856147766
1759611248491739400,6.065739501953125,0.9636840224266052,1.704826831817627,0.19834531843662262
1759611248501822500,6.075822509765625,1.038218379020691,1.7839362621307373,0.16075000166893005
1759611248511905800,6.08590576171875,1.1047290563583374,1.854572057723999,0.1370667815208435
1759611248521988600,6.095988525390625,1.146682858467102,1.8952713012695312,0.11317449063062668
1759611248532071700,6.10607177734375,1.1812735795974731,1.9015345573425293,0.09274858236312866
1759611248542155500,6.116155517578125,1.2163718938827515,1.8627184629440308,0.0682285875082016
1759611248552238600,6.126238525390625,1.264972448348999,1.7854104042053223,0.039020102471113205
1759611248562321700,6.13632177734375,1.3261722326278687,1.6771440505981445,0.0038480013608932495
1759611248572404700,6.14640478515625,1.4028973579406738,1.5575838088989258,-0.037086114287376404
1759611248582487600,6.156487548828125,1.4821029901504517,1.4131805896759033,-0.07592538744211197
1759611248592571400,6.1665712890625,1.555776834487915,1.245460867881775,-0.10087601095438004
1759611248602654700,6.17665478515625,1.609389305114746,1.056563138961792,-0.11518038809299469
1759611248612737500,6.186737548828125,1.6370887756347656,0.8485773801803589,-0.12128861248493195
1759611248622820600,6.196820556640625,1.6237101554870605,0.6253312826156616,-0.12181565165519714
1759611248632903700,6.206903564453125,1.5710021257400513,0.38879966735839844,-0.1260969489812851
1759611248642987500,6.216987548828125,1.4873541593551636,0.15644313395023346,-0.14049293100833893
1759611248653070600,6.227070556640625,1.3772729635238647,-0.06681738048791885,-0.1666443794965744
1759611248663153700,6.237153564453125,1.2640385627746582,-0.26461300253868103,-0.19732984900474548
1759611248673236700,6.24723681640625,1.1547902822494507,-0.44852906465530396,-0.22782810032367706
1759611248683319600,6.257319580078125,1.0506365299224854,-0.5941177010536194,-0.26028990745544434
1759611248693403400,6.2674033203125,0.9641034603118896,-0.7088144421577454,-0.2815669775009155
1759611248703486700,6.27748681640625,0.895865797996521,-0.7658804059028625,-0.2821371555328369
1759611248713569500,6.287569580078125,0.835345983505249,-0.7538561820983887,-0.26088112592697144
1759611248723652600,6.297652587890625,0.7665738463401794,-0.6638776063919067,-0.21114473044872284
1759611248733735700,6.307735595703125,0.6885491013526917,-0.4480763077735901,-0.14872503280639648
1759611248743819500,6.317819580078125,0.6101285815238953,-0.19235746562480927,-0.10314635932445526
1759611248753902600,6.327902587890625,0.5210916996002197,0.00672181835398078,-0.07621248066425323
1759611248763985700,6.337985595703125,0.3743152916431427,0.09533876925706863,-0.04818617179989815
1759611248774068500,6.348068359375,0.11183332651853561,0.033120136708021164,-0.022011825814843178
1759611248784151600,6.358151611328125,-0.18955501914024353,-0.17878440022468567,0.024533571675419807
1759611248794235400,6.3682353515625,-0.39446207880973816,-0.406766414642334,0.13310585916042328
1759611248804318700,6.378318603515625,-0.48602715134620667,-0.517785370349884,0.29246407747268677
1759611248814401500,6.388401611328125,-0.5074187517166138,-0.493545800447464,0.44017845392227173
1759611248824484600,6.398484619140625,-0.5149424076080322,-0.4068942666053772,0.5212376117706299
1759611248834567400,6.4085673828125,-0.5577040314674377,-0.2999342679977417,0.5241620540618896
1759611248844651800,6.41865185546875,-0.6483710408210754,-0.19698390364646912,0.48875877261161804
1759611248854734600,6.428734619140625,-0.7612185478210449,-0.134397491812706,0.44235876202583313
1759611248864817700,6.438817626953125,-0.8456641435623169,-0.12769325077533722,0.4064508378505707
1759611248874900500,6.448900390625,-0.8936335444450378,-0.13830061256885529,0.38632506132125854
1759611248884983600,6.458983642578125,-0.9171183705329895,-0.11614098399877548,0.3640173673629761
1759611248895067600,6.469067626953125,-0.9432463645935059,-0.04531767964363098,0.33190470933914185
1759611248905150700,6.479150634765625,-0.9874172806739807,0.06627888977527618,0.28190359473228455
1759611248915233500,6.489233642578125,-1.0403087139129639,0.19936956465244293,0.2191762924194336
1759611248925316600,6.499316650390625,-1.091324806213379,0.3298697769641876,0.1496286392211914
1759611248935399400,6.5093994140625,-1.1249046325683594,0.4403803050518036,0.09019327908754349
1759611248945483800,6.51948388671875,-1.1493343114852905,0.5214701294898987,0.058447062969207764
1759611248955566000,6.529566162109375,-1.1582624912261963,0.5756465196609497,0.05125519633293152
1759611248965649200,6.539649169921875,-1.1419786214828491,0.605281412601471,0.05588217452168465
1759611248975732000,6.54973193359375,-1.1068994998931885,0.5878203511238098,0.07086165249347687
1759611248985815000,6.55981494140625,-1.066357135772705,0.49037104845046997,0.07462150603532791
1759611248995899100,6.569899169921875,-1.0408682823181152,0.2978295683860779,0.08028525114059448
1759611249005982200,6.579982177734375,-1.0357781648635864,0.021978270262479782,0.08947102725505829
1759611249016065000,6.59006494140625,-1.035593867301941,-0.3030320405960083,0.11769254505634308
1759611249026148000,6.600148193359375,-1.041779637336731,-0.6614152193069458,0.1596064418554306
1759611249036231200,6.610231201171875,-1.0571556091308594,-1.0638036727905273,0.19697245955467224
1759611249046315300,6.620315185546875,-1.0745623111724854,-1.492256760597229,0.2106459140777588
1759611249056398000,6.630398193359375,-1.1015350818634033,-1.9052363634109497,0.2048887014389038
1759611249066481200,6.640481201171875,-1.122931957244873,-2.257981538772583,0.18592672049999237
1759611249076564000,6.65056396484375,-1.1390103101730347,-2.513864278793335,0.15551555156707764
1759611249086647000,6.66064697265625,-1.1570862531661987,-2.6627488136291504,0.11559051275253296
1759611249096731100,6.670731201171875,-1.1725951433181763,-2.7001049518585205,0.06263728439807892
1759611249106814200,6.680814208984375,-1.1930657625198364,-2.6403825283050537,0.00004793690095539205
1759611249116897000,6.69089697265625,-1.213430404663086,-2.5180652141571045,-0.08014916628599167
1759611249126980000,6.70097998046875,-1.2337604761123657,-2.3603694438934326,-0.17450548708438873
1759611249137063000,6.71106298828125,-1.2497562170028687,-2.197361469268799,-0.28143274784088135
1759611249147147300,6.721147216796875,-1.2690266370773315,-2.047672748565674,-0.3946695625782013
1759611249157230000,6.73122998046875,-1.286558747291565,-1.8986767530441284,-0.5102283954620361
1759611249167313200,6.741313232421875,-1.3060243129730225,-1.7205560207366943,-0.6115603446960449
1759611249177396000,6.75139599609375,-1.3256996870040894,-1.49456787109375,-0.6962506771087646
1759611249187479000,6.76147900390625,-1.3298606872558594,-1.2169075012207031,-0.7467668652534485
1759611249197563100,6.771563232421875,-1.3130747079849243,-0.893475353717804,-0.7495983242988586
1759611249207646200,6.781646240234375,-1.274764895439148,-0.5520914196968079,-0.6993271708488464
1759611249217729000,6.79172900390625,-1.2202119827270508,-0.27139556407928467,-0.6415709257125854
1759611249227812000,6.80181201171875,-1.1756274700164795,-0.12543807923793793,-0.6029229164123535
1759611249237895000,6.81189501953125,-1.142724871635437,-0.09716223925352097,-0.5504738092422485
1759611249247979300,6.821979248046875,-1.0814141035079956,-0.12163056433200836,-0.4560125470161438
1759611249258062000,6.83206201171875,-0.9557094573974609,-0.17346179485321045,-0.3428066074848175
1759611249268145200,6.842145263671875,-0.7634073495864868,-0.26991990208625793,-0.24895335733890533
1759611249278228000,6.85222802734375,-0.5193440914154053,-0.44371140003204346,-0.19605126976966858
1759611249288311000,6.86231103515625,-0.2562626600265503,-0.7314773797988892,-0.1626773327589035
1759611249298395100,6.87239501953125,-0.013519271276891232,-1.1122639179229736,-0.15515203773975372
1759611249308478200,6.882478271484375,0.17968454957008362,-1.5416120290756226,-0.17946270108222961
1759611249318561000,6.89256103515625,0.3318517208099365,-1.9173917770385742,-0.22721797227859497
1759611249328644000,6.90264404296875,0.4614216983318329,-2.1421830654144287,-0.2937626540660858
1759611249338727000,6.912726806640625,0.5865151286125183,-2.155895471572876,-0.36940574645996094
1759611249348811300,6.922811279296875,0.7011290788650513,-1.9803683757781982,-0.42519551515579224
1759611249358894000,6.93289404296875,0.8167930841445923,-1.6568573713302612,-0.4366830587387085
1759611249368977200,6.94297705078125,0.9307998418807983,-1.228653073310852,-0.40905141830444336
1759611249379060000,6.95306005859375,1.0454928874969482,-0.6875839829444885,-0.33815088868141174
1759611249389143000,6.96314306640625,1.1612516641616821,-0.030321154743433,-0.25311481952667236
1759611249399227100,6.97322705078125,1.302631139755249,0.7061965465545654,-0.1662670075893402
1759611249409310200,6.983310302734375,1.4897552728652954,1.472817301750183,-0.07940001785755157
1759611249419393000,6.99339306640625,1.7164334058761597,2.2065236568450928,-0.0020575581584125757
1759611249429476000,7.00347607421875,1.967694878578186,2.8171794414520264,0.05500146746635437
1759611249439559000,7.013558837890625,2.198526382446289,3.233264684677124,0.0983223095536232
1759611249449643000,7.02364306640625,2.3946008682250977,3.400906562805176,0.1434764713048935
1759611249459726000,7.03372607421875,2.52455997467041,3.3311500549316406,0.20216481387615204
1759611249469809200,7.04380908203125,2.544710636138916,3.0827081203460693,0.2771855294704437
1759611249479892000,7.05389208984375,2.4688432216644287,2.7307345867156982,0.3532305061817169
1759611249489975000,7.06397509765625,2.2992379665374756,2.364278793334961,0.4195570647716522
1759611249500059100,7.07405908203125,2.058851957321167,2.042827606201172,0.4724823236465454
1759611249510142200,7.08414208984375,1.786578893661499,1.7969855070114136,0.5314828157424927
1759611249520225000,7.09422509765625,1.543655514717102,1.6368706226348877,0.5970306396484375
1759611249530308000,7.10430810546875,1.3695292472839355,1.5766187906265259,0.649360179901123
1759611249540391000,7.114390869140625,1.2760810852050781,1.6031494140625,0.6748144030570984
1759611249550475000,7.12447509765625,1.2602397203445435,1.6762990951538086,0.6550542712211609
1759611249560558000,7.13455810546875,1.2927253246307373,1.7709158658981323,0.5818855166435242
1759611249570641200,7.14464111328125,1.3633054494857788,1.9050397872924805,0.46468326449394226
1759611249580724000,7.154723876953125,1.43718683719635,2.047261953353882,0.3320935368537903
1759611249590807300,7.164807373046875,1.4809987545013428,2.1896257400512695,0.1998009979724884
1759611249600891100,7.17489111328125,1.4777997732162476,2.323037624359131,0.09122897684574127
1759611249610974000,7.184973876953125,1.4200459718704224,2.4200994968414307,0.011276623234152794
1759611249621057000,7.19505712890625,1.3297802209854126,2.4594643115997314,-0.036198217421770096
1759611249631140000,7.20514013671875,1.2239773273468018,2.4328858852386475,-0.06694813817739487
1759611249641223200,7.21522314453125,1.1316062211990356,2.3250765800476074,-0.07734565436840057
1759611249651307000,7.22530712890625,1.064644694328308,2.1357643604278564,-0.0786985382437706
1759611249661390000,7.23539013671875,1.0270453691482544,1.8831180334091187,-0.08332471549510956
1759611249671473200,7.24547314453125,0.9967895150184631,1.5811474323272705,-0.09163297712802887
1759611249681556000,7.255555908203125,0.9689674377441406,1.2590287923812866,-0.12432008981704712
1759611249691639300,7.265639404296875,0.9418418407440186,0.9550545811653137,-0.18442177772521973
1759611249701723100,7.27572314453125,0.9148576259613037,0.7001075148582458,-0.24084989726543427
1759611249711806000,7.285805908203125,0.9050776958465576,0.5055627822875977,-0.25514549016952515
1759611249721889000,7.295888916015625,0.9318948984146118,0.3539128005504608,-0.23005050420761108
1759611249731972000,7.30597216796875,1.0052891969680786,0.20641069114208221,-0.21723005175590515
1759611249742055200,7.31605517578125,1.120002269744873,0.08463792502880096,-0.2403649389743805
1759611249752139000,7.326138916015625,1.2951767444610596,0.07352907955646515,-0.2824191749095917
1759611249762222000,7.33622216796875,1.5195579528808594,0.2404264509677887,-0.3215537965297699
1759611249772305000,7.346304931640625,1.73679518699646,0.5725809335708618,-0.35539910197257996
1759611249782388000,7.356387939453125,1.8884915113449097,0.9480912089347839,-0.40275463461875916
1759611249792471300,7.36647119140625,1.9581563472747803,1.2695733308792114,-0.47411829233169556
1759611249802555100,7.37655517578125,1.9596796035766602,1.4291765689849854,-0.5409854650497437
1759611249812638000,7.386637939453125,1.882275104522705,1.4075807332992554,-0.5922545194625854
1759611249822721000,7.396720947265625,1.7363072633743286,1.2361879348754883,-0.6169998049736023
1759611249832803800,7.406803955078125,1.5370173454284668,0.9989833831787109,-0.5959951877593994
1759611249842887200,7.41688720703125,1.3279240131378174,0.7810928821563721,-0.5207920670509338
1759611249852971000,7.426970947265625,1.1321353912353516,0.6463649272918701,-0.41356974840164185
1759611249863054000,7.43705419921875,0.9495421051979065,0.5542411208152771,-0.28699740767478943
1759611249873137000,7.447136962890625,0.765627384185791,0.4904994070529938,-0.16035053133964539
1759611249883220200,7.45722021484375,0.5760292410850525,0.4696127772331238,-0.06199679151177406
1759611249893303000,7.467302978515625,0.39029210805892944,0.4313252866268158,0.028844164684414864
1759611249903387100,7.47738720703125,0.21996459364891052,0.3942543566226959,0.136604443192482
1759611249913470000,7.487469970703125,0.06674254685640335,0.34941205382347107,0.24942155182361603
1759611249923553000,7.497552978515625,-0.08286452293395996,0.2912571430206299,0.357968270778656
1759611249933636000,7.507635986328125,-0.25811782479286194,0.20034641027450562,0.4807583689689636
1759611249943719200,7.51771923828125,-0.4964132308959961,0.050206709653139114,0.6194493770599365
1759611249953803000,7.527802978515625,-0.7818966507911682,-0.17521123588085175,0.7473154664039612
1759611249963887000,7.53788720703125,-1.0691241025924683,-0.5081005096435547,0.8657103180885315
1759611249973970000,7.547969970703125,-1.3125919103622437,-0.9246740341186523,0.9669117331504822
1759611249984053000,7.558052978515625,-1.4926238059997559,-1.3969520330429077,1.0194485187530518
1759611249994136000,7.568135986328125,-1.604720950126648,-1.8704586029052734,1.0181291103363037
1759611250004219100,7.57821923828125,-1.6586049795150757,-2.2647545337677,0.9842199087142944
1759611250014303000,7.588302978515625,-1.6626460552215576,-2.496725559234619,0.9292746186256409
1759611250024386000,7.598385986328125,-1.6492050886154175,-2.552201509475708,0.8618996143341064
1759611250034468900,7.60846875,-1.641228437423706,-2.436448097229004,0.7794340252876282
1759611250044552200,7.61855224609375,-1.6490634679794312,-2.198442220687866,0.6997583508491516
1759611250054635000,7.628635009765625,-1.6650887727737427,-1.8987209796905518,0.6096766591072083
1759611250064718800,7.63871875,-1.6907786130905151,-1.601855754852295,0.5039007067680359
1759611250074802000,7.648802001953125,-1.727702260017395,-1.321916937828064,0.41044771671295166
1759611250084885000,7.658885009765625,-1.7650505304336548,-1.0549076795578003,0.36376968026161194
1759611250094968000,7.668968017578125,-1.807998776435852,-0.8313808441162109,0.3452884256839752
1759611250105051100,7.679051025390625,-1.8653717041015625,-0.668264627456665,0.331449031829834
1759611250115135000,7.689135009765625,-1.9343007802963257,-0.58974289894104,0.3090646266937256
1759611250125217800,7.6992177734375,-1.9878263473510742,-0.600581705570221,0.28172701597213745
1759611250135301000,7.709301025390625,-2.0304815769195557,-0.6823194622993469,0.26015356183052063
1759611250145384200,7.71938427734375,-2.056751251220703,-0.8084832429885864,0.2514365017414093
1759611250155467000,7.729467041015625,-2.0718066692352295,-0.9659812450408936,0.2490668147802353
1759611250165550800,7.73955078125,-2.0740208625793457,-1.1422995328903198,0.24201902747154236
1759611250175634000,7.749634033203125,-2.058236837387085,-1.327348232269287,0.23342686891555786
1759611250185717000,7.759717041015625,-2.0294108390808105,-1.5052028894424438,0.22637614607810974
1759611250195800000,7.769800048828125,-1.9781696796417236,-1.6663705110549927,0.22380246222019196
1759611250205883100,7.779883056640625,-1.9068816900253296,-1.8082793951034546,0.22072944045066833
1759611250215967000,7.789967041015625,-1.8190159797668457,-1.9346208572387695,0.21199055016040802
1759611250226049800,7.8000498046875,-1.7237051725387573,-2.042632818222046,0.18809907138347626
1759611250236133000,7.810133056640625,-1.6294524669647217,-2.141988754272461,0.13622096180915833
1759611250246216000,7.8202158203125,-1.5454009771347046,-2.2176334857940674,0.06996496766805649
1759611250256299000,7.830299072265625,-1.4664400815963745,-2.2573370933532715,-0.020297015085816383
1759611250266382800,7.8403828125,-1.4009404182434082,-2.2548704147338867,-0.11402883380651474
1759611250276466000,7.8504658203125,-1.3490666151046753,-2.2114882469177246,-0.18986128270626068
1759611250286549000,7.860549072265625,-1.3188027143478394,-2.1167757511138916,-0.246100053191185
1759611250296632000,7.870632080078125,-1.319053292274475,-1.9860316514968872,-0.2879122197628021
1759611250306715100,7.880715087890625,-1.3455309867858887,-1.8188655376434326,-0.3097245693206787
1759611250316799000,7.890799072265625,-1.3903071880340576,-1.621663212776184,-0.3166176378726959
1759611250326881800,7.9008818359375,-1.4583240747451782,-1.3908406496047974,-0.313962459564209
1759611250336965000,7.910965087890625,-1.5352846384048462,-1.133905291557312,-0.30303338170051575
1759611250347048000,7.9210478515625,-1.6056360006332397,-0.8487997651100159,-0.29052478075027466
1759611250357131000,7.931131103515625,-1.6370837688446045,-0.5226578712463379,-0.26386040449142456
1759611250367214800,7.94121484375,-1.6232041120529175,-0.16083894670009613,-0.2188042551279068
1759611250377298200,7.951298095703125,-1.548538088798523,0.22002610564231873,-0.16739751398563385
1759611250387381000,7.961381103515625,-1.4025436639785767,0.5800594091415405,-0.10464465618133545
1759611250397464000,7.971464111328125,-1.1822158098220825,0.8565972447395325,-0.06784136593341827
1759611250407547000,7.981546875,-0.9075434803962708,1.0171165466308594,-0.04820055142045021
1759611250417630000,7.9916298828125,-0.6098611950874329,1.0814961194992065,-0.06890449672937393
1759611250427714000,8.001714111328125,-0.3581104874610901,1.0508590936660767,-0.11016511917114258
1759611250437797000,8.011797119140626,-0.15732890367507935,0.9101611375808716,-0.1404266208410263
1759611250447880000,8.0218798828125,-0.01774623990058899,0.6512496471405029,-0.13929423689842224
1759611250457963000,8.031962890625,0.0789874941110611,0.3124580383300781,-0.09575608372688293
1759611250468045800,8.0420458984375,0.1706782579421997,-0.07551499456167221,-0.018630675971508026
1759611250478130200,8.052130126953125,0.2969384789466858,-0.5049257278442383,0.08078086376190186
1759611250488213000,8.062212890625,0.46242010593414307,-0.9266298413276672,0.19985052943229675
1759611250498296000,8.072296142578125,0.6587291359901428,-1.288061261177063,0.33841773867607117
1759611250508379000,8.08237890625,0.8507276177406311,-1.4951103925704956,0.4759007692337036
1759611250518462000,8.0924619140625,1.038853645324707,-1.482919454574585,0.5799043774604797
1759611250528546000,8.102546142578126,1.2226159572601318,-1.253071904182434,0.640994668006897
1759611250538629000,8.112629150390624,1.4114301204681396,-0.8686709403991699,0.6607006788253784
1759611250548712000,8.1227119140625,1.6000258922576904,-0.435150146484375,0.6481201648712158
1759611250558795000,8.132794921875,1.7999072074890137,-0.04915769398212433,0.6101195216178894
1759611250568877800,8.1428779296875,1.99815833568573,0.2573436498641968,0.5731426477432251
1759611250578962200,8.152962158203126,2.1528408527374268,0.5109607577323914,0.5354706048965454
1759611250589045000,8.163044921875,2.216158628463745,0.7483932971954346,0.4982619881629944
1759611250599128000,8.173128173828125,2.153564691543579,1.003976583480835,0.45764797925949097
1759611250609211000,8.1832109375,1.9757148027420044,1.2362079620361328,0.40631982684135437
1759611250619294000,8.1932939453125,1.721553921699524,1.357303500175476,0.3365521728992462
1759611250629378000,8.2033779296875,1.4384872913360596,1.3580944538116455,0.26919791102409363
1759611250639461000,8.213461181640625,1.1840085983276367,1.2557268142700195,0.23477736115455627
1759611250649544000,8.2235439453125,1.0154023170471191,1.1236186027526855,0.23070724308490753
1759611250659627000,8.233626953125,0.9584511518478394,1.042828917503357,0.23486816883087158
1759611250669709800,8.243709716796875,0.9952557682991028,1.0777024030685425,0.22699959576129913
1759611250679794200,8.253794189453124,1.0875731706619263,1.2209054231643677,0.1665697991847992
1759611250689877000,8.263876953125,1.194507122039795,1.4182666540145874,0.06379175931215286
1759611250699960000,8.2739599609375,1.268917202949524,1.6092004776000977,-0.07440632581710815
1759611250710043000,8.28404296875,1.2879185676574707,1.8057692050933838,-0.21338525414466858
1759611250720126000,8.2941259765625,1.2578866481781006,1.9781547784805298,-0.3230246603488922
1759611250730210000,8.3042099609375,1.2048324346542358,2.1379411220550537,-0.40887805819511414
1759611250740293000,8.314293212890625,1.1502975225448608,2.258476972579956,-0.4853073060512543
1759611250750377000,8.324376953125,1.120761752128601,2.308455467224121,-0.5560685396194458
1759611250760459800,8.334459716796875,1.1147656440734863,2.2857112884521484,-0.6236358880996704
1759611250770543000,8.344543212890626,1.1460490226745605,2.185157060623169,-0.6817886829376221
1759611250780626200,8.354626220703125,1.2030452489852905,2.037680149078369,-0.7290462255477905
1759611250790709000,8.364708984375,1.2732934951782227,1.8611007928848267,-0.7590059638023376
1759611250800792800,8.374792724609375,1.3397668600082397,1.6787294149398804,-0.7679771184921265
1759611250810876000,8.3848759765625,1.3982408046722412,1.503844976425171,-0.7690591216087341
1759611250820959000,8.394958984375,1.4330315589904785,1.345605492591858,-0.7684892416000366
1759611250831042000,8.4050419921875,1.4556089639663696,1.1844531297683716,-0.7607402205467224
1759611250841125000,8.415125,1.4709032773971558,1.0387617349624634,-0.7579468488693237
1759611250851209000,8.425208984375,1.4763771295547485,0.8975614309310913,-0.7483599781990051
1759611250861291800,8.435291748046875,1.480963945388794,0.7518370151519775,-0.7386814951896667
1759611250871375000,8.445375,1.490087866783142,0.6204550266265869,-0.724452793598175
1759611250881458000,8.4554580078125,1.4893385171890259,0.4890564978122711,-0.7038838863372803
1759611250891541000,8.465541015625,1.4823346138000488,0.35738876461982727,-0.6877576112747192
1759611250901624800,8.475624755859375,1.4704337120056152,0.21707771718502045,-0.6734558939933777
1759611250911708200,8.485708251953126,1.4456455707550049,0.075839102268219,-0.6493878364562988
1759611250921791000,8.495791015625,1.3959230184555054,-0.07307740300893784,-0.6173343062400818
1759611250931874000,8.5058740234375,1.3282595872879028,-0.2180609554052353,-0.5880733728408813
1759611250941957000,8.51595703125,1.2211624383926392,-0.3494322896003723,-0.557908833026886
1759611250952041000,8.526041015625,1.0694905519485474,-0.4645961821079254,-0.5178431272506714
1759611250962123300,8.536123291015626,0.8806794285774231,-0.6139315962791443,-0.4873392879962921
1759611250972206000,8.5462060546875,0.6620847582817078,-0.813448429107666,-0.44924625754356384
1759611250982289200,8.5562890625,0.40036553144454956,-1.0545457601547241,-0.3987084925174713
1759611250992372000,8.5663720703125,0.09089954942464828,-1.3219947814941406,-0.3251575827598572
1759611251002455300,8.576455322265625,-0.2551848888397217,-1.555161952972412,-0.22701211273670197
1759611251012539100,8.5865390625,-0.6270697712898254,-1.635554552078247,-0.12971778213977814
1759611251022622200,8.596622314453125,-0.9588980674743652,-1.5572935342788696,-0.044185571372509
1759611251032705000,8.606705078125,-1.1713969707489014,-1.3520066738128662,0.04319886863231659
1759611251042788000,8.6167880859375,-1.2348558902740479,-1.0873290300369263,0.10270533710718155
1759611251052871200,8.62687109375,-1.1805717945098877,-0.7706056237220764,0.12557284533977509
1759611251062955300,8.636955322265624,-1.0821973085403442,-0.39809224009513855,0.12222391366958618
1759611251073038000,8.6470380859375,-1.0001810789108276,-0.004624579101800919,0.1130402684211731
1759611251083121200,8.65712109375,-0.9693538546562195,0.34772709012031555,0.11707282811403275
1759611251093204000,8.667203857421875,-1.0091737508773804,0.6148186922073364,0.14090092480182648
1759611251103287300,8.677287353515625,-1.0950978994369507,0.7613934874534607,0.17968161404132843
1759611251113371100,8.68737109375,-1.2124464511871338,0.7581257820129395,0.23650521039962769
1759611251123454200,8.6974541015625,-1.348499059677124,0.6117728352546692,0.2961674928665161
1759611251133537000,8.707537109375,-1.503237009048462,0.3291989266872406,0.35052499175071716
1759611251143620000,8.7176201171875,-1.666284441947937,-0.049305230379104614,0.37714648246765137
1759611251153703200,8.727703125,-1.8366258144378662,-0.46474185585975647,0.3847823143005371
1759611251163787000,8.737787109375,-2.0141825675964355,-0.8709170818328857,0.3798796832561493
1759611251173870000,8.7478701171875,-2.202998161315918,-1.2131729125976562,0.3564004600048065
1759611251183953200,8.757953125,-2.3951480388641357,-1.4630736112594604,0.33416759967803955
1759611251194036000,8.768035888671875,-2.565403938293457,-1.6011513471603394,0.28928667306900024
1759611251204119300,8.778119384765626,-2.710944890975952,-1.6215324401855469,0.23711082339286804
1759611251214203100,8.788203125,-2.808239698410034,-1.533721923828125,0.18030746281147003
1759611251224286000,8.798285888671876,-2.849928379058838,-1.344246745109558,0.11794581264257431
1759611251234369000,8.808369140625,-2.846940755844116,-1.0730069875717163,0.057549312710762024
1759611251244452400,8.818452392578125,-2.795644998550415,-0.7497594952583313,0.010484332218766212
1759611251254535200,8.82853515625,-2.706465482711792,-0.39905789494514465,-0.017286045476794243
1759611251264619000,8.838618896484375,-2.594568967819214,-0.05746595561504364,-0.03518541902303696
1759611251274702000,8.8487021484375,-2.475966215133667,0.23201805353164673,-0.039390549063682556
1759611251284785200,8.85878515625,-2.354804754257202,0.4530010223388672,-0.009783920831978321
1759611251294868200,8.8688681640625,-2.2190399169921875,0.615075945854187,0.06503252685070038
1759611251304951300,8.878951416015624,-2.0709915161132812,0.7076077461242676,0.1604543924331665
1759611251315035100,8.88903515625,-1.9025228023529053,0.7210372686386108,0.2556211054325104
1759611251325118000,8.899117919921874,-1.7244055271148682,0.6216278672218323,0.3320639729499817
1759611251335201000,8.909200927734375,-1.5435774326324463,0.42007210850715637,0.3953041732311249
1759611251345284000,8.9192841796875,-1.3730976581573486,0.10470191389322281,0.4523829221725464
1759611251355367200,8.9293671875,-1.2283047437667847,-0.318485289812088,0.4984108507633209
1759611251365451000,8.939450927734375,-1.1115498542785645,-0.8387545943260193,0.540359616279602
1759611251375534000,8.9495341796875,-1.02415132522583,-1.4216161966323853,0.5766313672065735
1759611251385617000,8.959616943359375,-0.9804334044456482,-2.0130443572998047,0.6092473864555359
1759611251395700200,8.9697001953125,-0.9569065570831299,-2.5787925720214844,0.6243882179260254
1759611251405783300,8.979783203125,-0.955635666847229,-3.081482410430908,0.6170280575752258
1759611251415866000,8.9898662109375,-0.9460048675537109,-3.4914357662200928,0.5768260359764099
1759611251425950000,8.999949951171875,-0.9268255829811096,-3.778998851776123,0.5120971202850342
1759611251436033000,9.010032958984375,-0.8879426121711731,-3.936067581176758,0.4208739995956421
1759611251446116000,9.0201162109375,-0.8304277062416077,-3.97843074798584,0.3070555329322815
1759611251456199200,9.03019921875,-0.7552884817123413,-3.9124302864074707,0.17425675690174103
1759611251466282200,9.0402822265625,-0.6846369504928589,-3.7576098442077637,0.04229952022433281
1759611251476366000,9.050365966796875,-0.6181167364120483,-3.534827470779419,-0.092790387570858
1759611251486449200,9.06044921875,-0.5667305588722229,-3.263181686401367,-0.21459032595157623
1759611251496532200,9.0705322265625,-0.5337100028991699,-2.9519083499908447,-0.31282714009284973
1759611251506615000,9.080614990234375,-0.5238256454467773,-2.6052005290985107,-0.39283570647239685
1759611251516698000,9.090697998046876,-0.5298545360565186,-2.236665964126587,-0.44323840737342834
1759611251526782000,9.100781982421875,-0.5475762486457825,-1.8535199165344238,-0.47006016969680786
1759611251536865300,9.110865234375,-0.5705162286758423,-1.4857243299484253,-0.46850916743278503
1759611251546948000,9.120947998046875,-0.5935325622558594,-1.156998634338379,-0.4454440474510193
1759611251557031200,9.13103125,-0.6206488609313965,-0.8870449066162109,-0.4086405038833618
1759611251567114200,9.1411142578125,-0.6530406475067139,-0.6778679490089417,-0.35458898544311523
1759611251577198000,9.151197998046875,-0.6747773885726929,-0.5088328719139099,-0.2909016013145447
1759611251587281200,9.16128125,-0.662511944770813,-0.37326598167419434,-0.21402041614055634
1759611251597364200,9.1713642578125,-0.6028134226799011,-0.2531590163707733,-0.1197410449385643
1759611251607447000,9.181447021484376,-0.491301566362381,-0.14005404710769653,0.0002665824140422046
1759611251617530000,9.191530029296874,-0.32005229592323303,-0.020652281120419502,0.13755519688129425
1759611251627614000,9.201614013671875,-0.093900665640831,0.0879594162106514,0.2728496491909027
1759611251637697300,9.211697265625,0.16690243780612946,0.2101103514432907,0.40237194299697876
1759611251647780000,9.221780029296875,0.4419236183166504,0.3692083954811096,0.5051113963127136
1759611251657863200,9.23186328125,0.7044263482093811,0.5445900559425354,0.5731905698776245
1759611251667946000,9.241946044921875,0.942558228969574,0.7049304842948914,0.5993233323097229
1759611251678030000,9.252030029296876,1.1474051475524902,0.8281053900718689,0.6104838848114014
1759611251688113200,9.262113037109375,1.3081324100494385,0.9174989461898804,0.6167987585067749
1759611251698196200,9.2721962890625,1.4090728759765625,0.9795798659324646,0.6418322324752808
1759611251708279000,9.282279052734374,1.4354201555252075,1.011080026626587,0.6849410533905029
1759611251718362000,9.292362060546875,1.4103204011917114,1.037838339805603,0.7101151347160339
1759611251728446000,9.302446044921876,1.3955107927322388,1.0875921249389648,0.7311703562736511
1759611251738529300,9.312529296875,1.4095767736434937,1.1944128274917603,0.7492102980613708
1759611251748612000,9.322612060546875,1.4488576650619507,1.3724355697631836,0.7248802185058594
1759611251758695200,9.332695068359374,1.489993929862976,1.5858339071273804,0.6731472611427307
1759611251768778000,9.342778076171875,1.5375595092773438,1.777234673500061,0.59145587682724
1759611251778862300,9.3528623046875,1.5985552072525024,1.8888208866119385,0.5129631757736206
1759611251788945200,9.362945068359375,1.6503161191940308,1.8858786821365356,0.43405425548553467
1759611251799028200,9.3730283203125,1.6768007278442383,1.7482457160949707,0.3898867666721344
1759611251809111000,9.383111083984375,1.647080659866333,1.5197970867156982,0.37681546807289124
1759611251819194000,9.393194091796875,1.548224687576294,1.2474086284637451,0.37602928280830383
1759611251829278200,9.4032783203125,1.382036805152893,0.9887837767601013,0.38100168108940125
1759611251839361300,9.413361328125,1.1807364225387573,0.7917167544364929,0.38130101561546326
1759611251849444000,9.423444091796876,0.9837746024131775,0.6968336701393127,0.37264734506607056
1759611251859527200,9.433527099609375,0.8412041664123535,0.7194132804870605,0.3396848738193512
1759611251869610000,9.44360986328125,0.7848407626152039,0.8766588568687439,0.2602669894695282
1759611251879694300,9.4536943359375,0.8102667331695557,1.1486262083053589,0.15194851160049438
1759611251889777200,9.463777099609375,0.9036334753036499,1.488153100013733,0.02593306265771389
1759611251899860200,9.473860107421874,1.031083345413208,1.8425297737121582,-0.09227586537599564
1759611251909943000,9.483943115234375,1.174795150756836,2.137176036834717,-0.2008257806301117
1759611251920026000,9.494026123046876,1.3100321292877197,2.3145718574523926,-0.31923791766166687
1759611251930110200,9.504110107421875,1.4140645265579224,2.3984768390655518,-0.41844412684440613
1759611251940193300,9.514193359375,1.4890249967575073,2.4255640506744385,-0.5001887679100037
1759611251950276000,9.524276123046874,1.5450936555862427,2.408928632736206,-0.5511749982833862
1759611251960359200,9.534359130859375,1.5919724702835083,2.362431764602661,-0.5700139403343201
1759611251970442000,9.54444189453125,1.6495585441589355,2.297131061553955,-0.5645824074745178
1759611251980526000,9.554526123046875,1.7131233215332031,2.2149221897125244,-0.5522516965866089
1759611251990609000,9.56460888671875,1.779986023902893,2.12064266204834,-0.5467115640640259
1759611252000692000,9.57469189453125,1.8413021564483643,1.9853633642196655,-0.5334529876708984
1759611252010775000,9.584775146484375,1.8849492073059082,1.8339403867721558,-0.5207571983337402
1759611252020858000,9.594858154296874,1.9089655876159668,1.6666189432144165,-0.503745436668396
1759611252030942000,9.60494189453125,1.8978968858718872,1.4905401468276978,-0.47791436314582825
1759611252041025000,9.61502490234375,1.866368293762207,1.3134297132492065,-0.44063809514045715
1759611252051107800,9.62510791015625,1.8211654424667358,1.1457449197769165,-0.401533305644989
1759611252061191200,9.635191162109376,1.7608269453048706,1.0083985328674316,-0.3674062490463257
1759611252071274000,9.64527392578125,1.7065250873565674,0.9092586040496826,-0.33709681034088135
1759611252081358000,9.655358154296875,1.6553783416748047,0.8564121723175049,-0.3105219304561615
1759611252091441000,9.66544091796875,1.615171194076538,0.8463925123214722,-0.2912643253803253
1759611252101524200,9.675524169921875,1.5840399265289307,0.8509135246276855,-0.26861175894737244
1759611252111607000,9.68560693359375,1.5611248016357422,0.8577618598937988,-0.2384471893310547
1759611252121690000,9.695690185546875,1.5385571718215942,0.862763524055481,-0.20645330846309662
1759611252131774000,9.70577392578125,1.5188186168670654,0.8749246001243591,-0.17842407524585724
1759611252141857000,9.71585693359375,1.4774235486984253,0.8657318949699402,-0.14027534425258636
1759611252151940000,9.725940185546875,1.4222984313964844,0.8159584403038025,-0.08961191028356552
1759611252162023200,9.736023193359374,1.3614870309829712,0.7128397822380066,-0.03187910467386246
1759611252172106000,9.74610595703125,1.2915433645248413,0.5611490607261658,0.042445726692676544
1759611252182189800,9.75618994140625,1.2050961256027222,0.3637252151966095,0.11662302166223526
1759611252192273000,9.76627294921875,1.11058509349823,0.15103159844875336,0.19210685789585114
1759611252202356200,9.776356201171875,1.0112656354904175,-0.07028082013130188,0.2780713140964508
1759611252212439000,9.78643896484375,0.8978506922721863,-0.29992467164993286,0.3763081133365631
1759611252222522000,9.796522216796875,0.7620049715042114,-0.5267338156700134,0.4779050648212433
1759611252232606000,9.80660595703125,0.5999055504798889,-0.7485272288322449,0.5856970548629761
1759611252242688800,9.816688720703125,0.394768625497818,-0.9570077061653137,0.6905819177627563
1759611252252772000,9.826772216796876,0.15174585580825806,-1.1463390588760376,0.7875020503997803
1759611252262855200,9.836855224609375,-0.12775848805904388,-1.3215038776397705,0.8634822964668274
1759611252272938000,9.84693798828125,-0.41675060987472534,-1.470802903175354,0.9149830341339111
1759611252283021800,9.857021728515624,-0.6736865639686584,-1.5616276264190674,0.9654331803321838
1759611252293105000,9.86710498046875,-0.8576505184173584,-1.549349308013916,1.0048913955688477
1759611252303188000,9.87718798828125,-0.9247291684150696,-1.3856656551361084,1.0331178903579712
1759611252313271000,9.88727099609375,-0.848637580871582,-1.0744067430496216,1.0457876920700073
1759611252323354000,9.89735400390625,-0.6308472156524658,-0.6553104519844055,1.0297037363052368
1759611252333438000,9.90743798828125,-0.36445680260658264,-0.1704457700252533,0.9708372354507446
1759611252343521000,9.91752099609375,-0.1277449131011963,0.35271143913269043,0.8738737106323242
1759611252353604000,9.92760400390625,0.011475294828414917,0.9248814582824707,0.7509254217147827
1759611252363687000,9.93768701171875,-0.02767929807305336,1.4362646341323853,0.5706490874290466
1759611252373770000,9.94777001953125,-0.322256863117218,1.7977585792541504,0.4046398997306824
1759611252383853800,9.957853759765625,-0.7154310345649719,2.1344621181488037,0.2926558256149292
1759611252393937200,9.967937255859376,-1.0575343370437622,2.4671895503997803,0.21767160296440125
1759611252404020000,9.97802001953125,-1.2856277227401733,2.773885726928711,0.16471144556999207
1759611252414103000,9.98810302734375,-1.3279796838760376,2.9855968952178955,0.12961551547050476
1759611252424186000,9.99818603515625,-1.1854629516601562,3.0110795497894287,0.10684655606746674
1759611252434270000,10.00827001953125,-0.9293529391288757,2.8172852993011475,0.07599463313817978
1759611252444353000,10.01835302734375,-0.6512563228607178,2.4308228492736816,0.028533905744552612
1759611252454436000,10.02843603515625,-0.41450798511505127,1.9274619817733765,-0.009879262186586857
1759611252464519000,10.038518798828125,-0.23275281488895416,1.3916555643081665,-0.02834162674844265
1759611252474602000,10.04860205078125,-0.12119646370410919,0.886891782283783,-0.052504219114780426
1759611252484685800,10.058685791015625,-0.09275870025157928,0.47144314646720886,-0.07950121909379959
1759611252494769200,10.06876904296875,-0.1444309502840042,0.14318245649337769,-0.10020862519741058
1759611252504852000,10.07885205078125,-0.24819089472293854,-0.07775232195854187,-0.11849815398454666
1759611252514935000,10.08893505859375,-0.38663026690483093,-0.19568534195423126,-0.14735695719718933
1759611252525017900,10.099017822265624,-0.5390980839729309,-0.24044962227344513,-0.18037216365337372
1759611252535102000,10.10910205078125,-0.6905571222305298,-0.2605911195278168,-0.22508691251277924
1759611252545185000,10.11918505859375,-0.8342828750610352,-0.2995912432670593,-0.2569505572319031
1759611252555268000,10.12926806640625,-0.9538785219192505,-0.39124205708503723,-0.2885071635246277
1759611252565351000,10.139350830078126,-1.063456416130066,-0.5161262154579163,-0.30206823348999023
1759611252575434000,10.14943408203125,-1.1548116207122803,-0.6430021524429321,-0.28809064626693726
1759611252585517800,10.159517822265625,-1.2246730327606201,-0.7777045369148254,-0.2504556477069855
1759611252595601200,10.16960107421875,-1.2751082181930542,-0.9472523331642151,-0.20158931612968445
1759611252605684000,10.17968408203125,-1.3134558200836182,-1.177486538887024,-0.1475047618150711
1759611252615767000,10.18976708984375,-1.3577934503555298,-1.4792171716690063,-0.1083991751074791
1759611252625849900,10.199849853515625,-1.417476773262024,-1.8133056163787842,-0.0796375721693039
1759611252635934200,10.209934326171876,-1.5028425455093384,-2.1258296966552734,-0.06222475692629814
1759611252646017000,10.22001708984375,-1.6002745628356934,-2.373441219329834,-0.05278198793530464
1759611252656100000,10.23010009765625,-1.7111995220184326,-2.5391976833343506,-0.030181603506207466
1759611252666183000,10.240182861328124,-1.8305373191833496,-2.621680498123169,-0.015093465335667133
1759611252676266000,10.250265869140625,-1.9619531631469727,-2.6696743965148926,-0.013743242248892784
1759611252686350000,10.26035009765625,-2.1067450046539307,-2.7106268405914307,-0.04140123724937439
1759611252696433200,10.27043310546875,-2.2650840282440186,-2.7485780715942383,-0.07721569389104843
1759611252706516000,10.280515869140626,-2.4219467639923096,-2.7781994342803955,-0.12416695803403854
1759611252716599000,10.29059912109375,-2.5625,-2.7798333168029785,-0.15649373829364777
1759611252726683000,10.300682861328125,-2.656316041946411,-2.753710985183716,-0.17002739012241364
1759611252736766200,10.31076611328125,-2.697629928588867,-2.709616184234619,-0.1706407070159912
1759611252746849000,10.32084912109375,-2.6834139823913574,-2.6468091011047363,-0.1690143197774887
1759611252756932000,10.33093212890625,-2.6181702613830566,-2.5847058296203613,-0.17439310252666473
1759611252767015000,10.341014892578125,-2.5082149505615234,-2.5361061096191406,-0.18871931731700897
1759611252777099000,10.35109912109375,-2.3802289962768555,-2.5190718173980713,-0.21006694436073303
1759611252787182000,10.36118212890625,-2.258725643157959,-2.5103049278259277,-0.22197261452674866
1759611252797265200,10.37126513671875,-2.153761625289917,-2.4780352115631104,-0.22793222963809967
1759611252807348000,10.381347900390624,-2.084155559539795,-2.3988027572631836,-0.23688152432441711
1759611252817431000,10.39143115234375,-2.0287787914276123,-2.2613725662231445,-0.2458134889602661
1759611252827515000,10.401514892578126,-1.9743592739105225,-2.0761544704437256,-0.26369234919548035
1759611252837598200,10.41159814453125,-1.8919591903686523,-1.8880717754364014,-0.3039146065711975
1759611252847681000,10.421680908203125,-1.7677620649337769,-1.7170743942260742,-0.33886727690696716
1759611252857764000,10.43176416015625,-1.6065553426742554,-1.5688908100128174,-0.3650895655155182
1759611252867847000,10.441846923828125,-1.4238801002502441,-1.4308967590332031,-0.3739863634109497
1759611252877931000,10.451930908203124,-1.254055142402649,-1.3168162107467651,-0.37418025732040405
1759611252888014000,10.46201416015625,-1.0955920219421387,-1.2092756032943726,-0.3594473898410797
1759611252898097200,10.47209716796875,-0.9544452428817749,-1.099748134613037,-0.34072428941726685
1759611252908180000,10.482179931640625,-0.8299714922904968,-0.9921332001686096,-0.3241666257381439
1759611252918263000,10.492262939453125,-0.7085627913475037,-0.849899411201477,-0.3218909502029419
1759611252928347100,10.50234716796875,-0.5881388783454895,-0.6862875819206238,-0.32592537999153137
1759611252938430000,10.512429931640625,-0.46435463428497314,-0.5091996192932129,-0.3318197429180145
1759611252948513000,10.522512939453126,-0.3450569808483124,-0.34107422828674316,-0.3325260281562805
1759611252958596400,10.532596435546875,-0.2616657018661499,-0.19855277240276337,-0.3353936970233917
1759611252968679400,10.542679443359376,-0.19812346994876862,-0.10024750977754593,-0.33979299664497375
1759611252978763300,10.55276318359375,-0.1752447932958603,-0.04788123816251755,-0.35100382566452026
1759611252988846300,10.562846435546875,-0.18905088305473328,-0.03435184806585312,-0.36087989807128906
1759611252998929200,10.57292919921875,-0.2461160272359848,-0.05140966176986694,-0.3633244037628174
1759611253009012500,10.583012451171875,-0.33439528942108154,-0.08973973989486694,-0.36215662956237793
1759611253019095300,10.59309521484375,-0.4378383159637451,-0.1546468287706375,-0.3658387064933777
1759611253029179400,10.603179443359375,-0.5369731783866882,-0.2515323758125305,-0.38967078924179077
1759611253039262200,10.61326220703125,-0.6325497627258301,-0.37551555037498474,-0.4234050512313843
1759611253049345500,10.623345458984375,-0.7236783504486084,-0.5243297815322876,-0.4796590209007263
1759611253059428400,10.633428466796875,-0.7996702790260315,-0.6905121207237244,-0.5462007522583008
1759611253069511400,10.643511474609374,-0.8809923529624939,-0.8581588864326477,-0.6098076701164246
1759611253079595300,10.65359521484375,-0.961308479309082,-1.0359861850738525,-0.6778714060783386
1759611253089678300,10.66367822265625,-1.034828543663025,-1.2171032428741455,-0.7469362616539001
1759611253099761400,10.673761474609375,-1.0991696119308472,-1.4070299863815308,-0.8162649869918823
1759611253109844500,10.683844482421875,-1.1455843448638916,-1.6148457527160645,-0.8652170896530151
1759611253119927300,10.69392724609375,-1.178287386894226,-1.8398804664611816,-0.8839191198348999
1759611253130011400,10.704011474609375,-1.2170289754867554,-2.107114791870117,-0.8616843819618225
1759611253140094200,10.71409423828125,-1.266899824142456,-2.430677652359009,-0.8057175278663635
1759611253150177500,10.724177490234375,-1.2970771789550781,-2.7426507472991943,-0.7474433183670044
1759611253160260400,10.73426025390625,-1.2910797595977783,-2.999098062515259,-0.7140382528305054
1759611253170343400,10.744343505859375,-1.2017521858215332,-3.1570985317230225,-0.6965780258178711
1759611253180427300,10.75442724609375,-1.034178376197815,-3.163621187210083,-0.6756431460380554
1759611253190510300,10.76451025390625,-0.8157494068145752,-3.039447546005249,-0.6722958087921143
1759611253200593400,10.774593505859375,-0.6043660640716553,-2.830524444580078,-0.6997746229171753
1759611253210676500,10.784676513671876,-0.42646050453186035,-2.589040756225586,-0.7580932974815369
1759611253220759300,10.79475927734375,-0.30588003993034363,-2.3243980407714844,-0.8216403126716614
1759611253230843400,10.804843505859376,-0.23418107628822327,-2.0840330123901367,-0.8681265711784363
1759611253240926200,10.81492626953125,-0.20562772452831268,-1.881394386291504,-0.8943531513214111
1759611253251009500,10.825009521484375,-0.19600093364715576,-1.698705792427063,-0.8924316763877869
1759611253261092400,10.83509228515625,-0.18315064907073975,-1.5592800378799438,-0.8686349987983704
1759611253271175400,10.845175537109375,-0.17718756198883057,-1.4656305313110352,-0.8246190547943115
1759611253281259300,10.85525927734375,-0.18604710698127747,-1.3829193115234375,-0.7756083607673645
1759611253291342300,10.86534228515625,-0.20362156629562378,-1.3123223781585693,-0.7212260961532593
1759611253301425400,10.87542529296875,-0.22160989046096802,-1.2280317544937134,-0.6594732403755188
1759611253311508500,10.885508544921874,-0.24064776301383972,-1.1570765972137451,-0.5971928238868713
1759611253321592300,10.89559228515625,-0.2615836560726166,-1.075863242149353,-0.5521758198738098
1759611253331675400,10.90567529296875,-0.2666873633861542,-1.0090339183807373,-0.5162388682365417
1759611253341758500,10.915758544921875,-0.257364422082901,-0.9424996376037598,-0.49264565110206604
1759611253351841500,10.925841552734376,-0.15970364212989807,-0.9703818559646606,-0.4484241306781769
1759611253361924400,10.93592431640625,-0.11160908639431,-0.8501023054122925,-0.4421313405036926
1759611253372008400,10.946008544921876,-0.11660943925380707,-0.6109986305236816,-0.461193710565567
1759611253382091300,10.95609130859375,-0.14699344336986542,-0.33435162901878357,-0.48437920212745667
1759611253392174600,10.966174560546875,-0.15839949250221252,-0.10955978184938431,-0.5060938000679016
1759611253402257400,10.97625732421875,-0.16991978883743286,-0.0014245248166844249,-0.5232376456260681
1759611253412340500,10.986340576171875,-0.17894285917282104,-0.03142663091421127,-0.5123628973960876
1759611253422424300,10.99642431640625,-0.16888569295406342,-0.09667221456766129,-0.4960606098175049
1759611253432507400,11.00650732421875,-0.1171436682343483,-0.16612932085990906,-0.48004835844039917
1759611253442590500,11.016590576171875,-0.03038693405687809,-0.21731367707252502,-0.4677336513996124
1759611253452673500,11.026673583984374,0.05903562158346176,-0.2937661111354828,-0.4521469473838806
1759611253462756400,11.03675634765625,0.1095414087176323,-0.34338080883026123,-0.43405982851982117
1759611253472840200,11.046840087890626,0.11652714759111404,-0.3380957543849945,-0.4176446497440338
1759611253482923300,11.05692333984375,0.09043562412261963,-0.33331698179244995,-0.3969114124774933
1759611253493006600,11.067006591796876,0.05627312511205673,-0.3205191493034363,-0.37052321434020996
1759611253503089400,11.07708935546875,0.019812321290373802,-0.3144015967845917,-0.3538148105144501
1759611253513172500,11.08717236328125,-0.015470036305487156,-0.32511258125305176,-0.32746389508247375
1759611253523256300,11.09725634765625,-0.04850495234131813,-0.31745094060897827,-0.3075423836708069
1759611253533339100,11.107339111328125,-0.06458138674497604,-0.32040438055992126,-0.2946881055831909
1759611253543422500,11.11742236328125,-0.061356302350759506,-0.327184796333313,-0.27036917209625244
1759611253553505500,11.127505615234375,-0.04844716191291809,-0.3208712339401245,-0.2509526014328003
1759611253563588400,11.13758837890625,-0.05204375833272934,-0.31141939759254456,-0.23987944424152374
1759611253573672200,11.147672119140625,-0.058044128119945526,-0.31603625416755676,-0.21429738402366638
1759611253583755500,11.157755615234375,-0.06744988262653351,-0.33676522970199585,-0.18669797480106354
1759611253593838300,11.16783837890625,-0.07170028239488602,-0.32966551184654236,-0.16803747415542603
1759611253603921400,11.17792138671875,-0.0725192055106163,-0.344264954328537,-0.15707989037036896
1759611253614004500,11.18800439453125,-0.07245156168937683,-0.38431811332702637,-0.1380244493484497
1759611253624088300,11.19808837890625,-0.08273669332265854,-0.433803915977478,-0.12044492363929749
1759611253634171400,11.20817138671875,-0.09645703434944153,-0.44750186800956726,-0.10872834175825119
1759611253644254500,11.21825439453125,-0.12072348594665527,-0.4365685284137726,-0.09887145459651947
1759611253654337300,11.228337158203125,-0.14209242165088654,-0.43200787901878357,-0.09431425482034683
1759611253664420400,11.23842041015625,-0.1604762226343155,-0.4347919225692749,-0.0959121510386467
1759611253674504200,11.248504150390625,-0.1807013303041458,-0.4583872854709625,-0.09856785088777542
1759611253684587500,11.25858740234375,-0.18267394602298737,-0.44837966561317444,-0.11119309812784195
1759611253694670300,11.26867041015625,-0.1687525361776352,-0.4225057065486908,-0.11005140095949173
1759611253704753400,11.27875341796875,-0.1594700813293457,-0.43579062819480896,-0.1034395694732666
1759611253714836500,11.28883642578125,-0.15206170082092285,-0.4106312096118927,-0.09782695770263672
1759611253724920300,11.29892041015625,-0.14234675467014313,-0.37711265683174133,-0.09601867198944092
1759611253735003400,11.30900341796875,-0.13478045165538788,-0.3321302831172943,-0.08999806642532349
1759611253745086500,11.31908642578125,-0.1252537965774536,-0.2841145396232605,-0.09630203247070312
1759611253755169300,11.329169189453125,-0.12072961032390594,-0.2247771918773651,-0.1012595072388649
1759611253765252400,11.33925244140625,-0.12050510942935944,-0.18855179846286774,-0.10387340188026428
1759611253775336200,11.349336181640625,-0.12036129832267761,-0.1584056168794632,-0.09274804592132568
1759611253785419500,11.35941943359375,-0.12082841992378235,-0.1361631602048874,-0.08563181012868881
1759611253795502300,11.36950244140625,-0.11198272556066513,-0.1350262612104416,-0.08395349234342575
1759611253805585400,11.37958544921875,-0.10314209759235382,-0.1480909287929535,-0.07440365850925446
1759611253815668200,11.389668212890625,-0.09614996612071991,-0.1533605307340622,-0.06553133577108383
1759611253825752300,11.39975244140625,-0.09132645279169083,-0.15207022428512573,-0.05956186354160309
1759611253835835400,11.40983544921875,-0.09209637343883514,-0.15225398540496826,-0.05877729505300522
1759611253845918500,11.41991845703125,-0.08687257766723633,-0.16451118886470795,-0.05307520180940628
1759611253856001300,11.430001220703126,-0.0755205899477005,-0.1761704981327057,-0.050339069217443466
1759611253866085400,11.44008544921875,-0.05246267467737198,-0.18584230542182922,-0.053105827420949936
1759611253876168400,11.45016845703125,-0.03026549331843853,-0.2397737056016922,-0.031245803460478783
1759611253886251500,11.46025146484375,-0.028437767177820206,-0.2595633864402771,-0.04067259654402733
1759611253896334300,11.470334228515625,-0.030545126646757126,-0.20357176661491394,-0.06156589090824127
1759611253906417400,11.48041748046875,-0.021512215957045555,-0.14846830070018768,-0.06788690388202667
1759611253916501200,11.490501220703125,-0.016027968376874924,-0.11912106722593307,-0.06964405626058578
1759611253926584600,11.50058447265625,-0.02496766857802868,-0.12089632451534271,-0.07151652872562408
1759611253936667400,11.51066748046875,-0.03771568834781647,-0.11615456640720367,-0.06955058127641678
1759611253946750500,11.52075048828125,-0.040099747478961945,-0.09332062304019928,-0.08380861580371857
1759611253956833300,11.530833251953124,-0.025369537994265556,-0.06334061920642853,-0.09529829025268555
1759611253966917000,11.540917236328125,-0.008411594666540623,-0.04812917858362198,-0.10341720283031464
1759611253977000000,11.551,-0.002472212305292487,-0.04922373965382576,-0.10785642266273499
