time,seconds_elapsed,z,y,x
1757942197761622500,0.06062255859375,-0.10224807262420654,0.16265496611595154,0.04451020807027817
1757942197771707600,0.070707763671875,-0.0459216870367527,0.4004669785499573,0.12452355027198792
1757942197781792800,0.080792724609375,0.015744075179100037,0.5702754855155945,0.23207691311836243
1757942197791877600,0.090877685546875,0.06819263845682144,0.6192677617073059,0.34752148389816284
1757942197801962500,0.10096240234375,0.10526011139154434,0.5656346678733826,0.45524635910987854
1757942197812046600,0.111046630859375,0.1180371567606926,0.4723963141441345,0.5453394651412964
1757942197822131700,0.121131591796875,0.11344293504953384,0.3460918962955475,0.6099362969398499
1757942197832216600,0.131216552734375,0.09897611290216446,0.19615726172924042,0.6245791912078857
1757942197842301700,0.1413017578125,0.08896848559379578,0.054301321506500244,0.5963501930236816
1757942197852386600,0.151386474609375,0.09225429594516754,-0.042574625462293625,0.5315080881118774
1757942197862471700,0.1614716796875,0.10265740007162094,-0.09910634160041809,0.4349093735218048
1757942197872556500,0.171556640625,0.09711829572916031,-0.11728614568710327,0.31943950057029724
1757942197882641700,0.1816416015625,0.07107124477624893,-0.1379203200340271,0.19456015527248383
1757942197892726800,0.191726806640625,0.026281138882040977,-0.16624702513217926,0.07915128022432327
1757942197902811600,0.201811767578125,-0.02796931564807892,-0.23602478206157684,-0.007797735743224621
1757942197912896500,0.211896484375,-0.06052965670824051,-0.3807321786880493,-0.0549953430891037
1757942197922981400,0.2219814453125,-0.0842730700969696,-0.5481757521629333,-0.07902105152606964
1757942197933065700,0.232065673828125,-0.0854315459728241,-0.6747115850448608,-0.0919906422495842
1757942197943150600,0.242150634765625,-0.06660086661577225,-0.7098586559295654,-0.0947406217455864
1757942197953235700,0.252235595703125,-0.04454483091831207,-0.6632416248321533,-0.0784149169921875
1757942197963320600,0.262320556640625,-0.026614300906658173,-0.58682781457901,-0.03680222108960152
1757942197973405700,0.27240576171875,-0.03175366669893265,-0.473969966173172,0.04986635968089104
1757942197983490600,0.282490478515625,-0.042440932244062424,-0.2964963912963867,0.18217645585536957
1757942197993575700,0.29257568359375,-0.05799352750182152,-0.08129512518644333,0.3777600824832916
1757942198003660500,0.30266064453125,-0.12287691980600357,0.18816004693508148,0.6418442130088806
1757942198013745700,0.31274560546875,-0.19208768010139465,0.4345450699329376,0.9443745017051697
1757942198023830500,0.32283056640625,-0.24360014498233795,0.6312536001205444,1.2540409564971924
1757942198033915400,0.332915283203125,-0.26890867948532104,0.7372722029685974,1.5259801149368286
1757942198044000500,0.34300048828125,-0.2718903720378876,0.7061022520065308,1.7228604555130005
1757942198054084600,0.353084716796875,-0.2468673139810562,0.5402534008026123,1.7958773374557495
1757942198064169700,0.363169677734375,-0.18454986810684204,0.4123723804950714,1.7547205686569214
1757942198074254600,0.373254638671875,-0.047621048986911774,0.37149178981781006,1.6158242225646973
1757942198084339700,0.383339599609375,0.16229596734046936,0.2215941697359085,1.3904500007629395
1757942198094424600,0.393424560546875,0.3757944107055664,0.006374808494001627,1.1023141145706177
1757942198104509700,0.403509765625,0.553350031375885,-0.1199469119310379,0.7823728322982788
1757942198114594600,0.413594482421875,0.6805902719497681,-0.2327970266342163,0.45430997014045715
1757942198124679700,0.4236796875,0.7380346655845642,-0.3721919357776642,0.10881675779819489
1757942198134764500,0.4337646484375,0.7029440402984619,-0.518765926361084,-0.16419905424118042
1757942198144849700,0.443849609375,0.5837246775627136,-0.6424436569213867,-0.31845760345458984
1757942198154934500,0.4539345703125,0.38960689306259155,-0.6379067301750183,-0.39186951518058777
1757942198165019400,0.464019287109375,-0.15060921013355255,-0.6845226883888245,-0.4872050881385803
1757942198175103500,0.474103515625,-1.1077994108200073,-0.9348145723342896,-0.5821491479873657
1757942198185188600,0.484188720703125,-2.199429512023926,-1.0897016525268555,-0.513378918170929
1757942198195273700,0.494273681640625,-3.1988120079040527,-1.3225995302200317,-0.38941407203674316
1757942198205358600,0.504358642578125,-4.014414310455322,-1.7113184928894043,-0.2628667950630188
1757942198215443700,0.514443603515625,-4.683136940002441,-2.2108826637268066,-0.1006898581981659
1757942198225528600,0.524528564453125,-5.091648578643799,-2.569331169128418,0.11562779545783997
1757942198235613700,0.53461376953125,-5.16110372543335,-2.492898941040039,0.3870052397251129
1757942198245698600,0.544698486328125,-4.902767658233643,-2.238403558731079,0.7225376963615417
1757942198255783700,0.55478369140625,-4.327703475952148,-2.123403310775757,1.1637548208236694
1757942198265868500,0.56486865234375,-3.522878885269165,-2.0235917568206787,1.7105590105056763
1757942198275953400,0.574953369140625,-2.636589527130127,-1.7546676397323608,2.356868267059326
1757942198286038500,0.58503857421875,-1.8205411434173584,-1.5339828729629517,3.062525510787964
1757942198296122600,0.59512255859375,-1.182328224182129,-1.4979662895202637,3.772204637527466
1757942198306207700,0.605207763671875,-0.7602765560150146,-1.514305830001831,4.454783916473389
1757942198316292600,0.615292724609375,-0.4952470362186432,-1.6416652202606201,5.0725603103637695
1757942198326377700,0.625377685546875,-0.30521583557128906,-1.826912522315979,5.593040943145752
1757942198336462600,0.635462646484375,-0.11250204592943192,-1.907543659210205,5.996249675750732
1757942198346547700,0.645547607421875,0.10646705329418182,-1.6897737979888916,6.306426525115967
1757942198356632600,0.655632568359375,0.32888707518577576,-1.1658360958099365,6.524097442626953
1757942198366717700,0.6657177734375,0.502250075340271,-0.6670403480529785,6.397672653198242
1757942198376802600,0.675802490234375,0.5486167669296265,-0.29206621646881104,6.046955585479736
1757942198386887400,0.685887451171875,0.41236650943756104,-0.40542179346084595,5.461179256439209
1757942198396972500,0.69597265625,0.16995947062969208,-0.8126068711280823,4.645016193389893
1757942198407056600,0.706056640625,0.0027180220931768417,-1.1893690824508667,3.6924235820770264
1757942198417141500,0.7161416015625,0.03928375616669655,-1.5620851516723633,2.7371106147766113
1757942198427226600,0.7262265625,0.22412098944187164,-2.0053298473358154,1.811004638671875
1757942198437311700,0.736311767578125,0.48049551248550415,-2.647550106048584,0.9504076242446899
1757942198447396600,0.746396728515625,0.7513171434402466,-3.2072947025299072,0.20619843900203705
1757942198457481700,0.756481689453125,0.9372848868370056,-3.4958248138427734,-0.35375434160232544
1757942198467566600,0.766566650390625,0.9787667989730835,-3.5931403636932373,-0.6393663883209229
1757942198477651700,0.776651611328125,0.8907206058502197,-3.5244545936584473,-0.6972219347953796
1757942198487736600,0.786736572265625,0.7405638694763184,-3.3972787857055664,-0.5618465542793274
1757942198497821700,0.79682177734375,0.5790154337882996,-3.1981022357940674,-0.2697502672672272
1757942198507906600,0.806906494140625,0.3985210061073303,-2.936408519744873,0.10845350474119186
1757942198517990700,0.81699072265625,0.204575777053833,-2.6349520683288574,0.5025491714477539
1757942198528075500,0.827075439453125,0.05453141778707504,-2.357421398162842,0.8439583778381348
1757942198538159600,0.83715966796875,-0.029798375442624092,-2.0449795722961426,1.10535728931427
1757942198548244700,0.84724462890625,-0.08390741795301437,-1.6888034343719482,1.2947170734405518
1757942198558329900,0.857329833984375,-0.1396348625421524,-1.5943315029144287,1.3587868213653564
1757942198568414700,0.867414794921875,-0.2141714096069336,-1.7014230489730835,1.2230207920074463
1757942198578499800,0.877499755859375,-0.22164957225322723,-2.117478609085083,0.9136351943016052
1757942198588584700,0.887584716796875,-0.11151454597711563,-1.721107006072998,0.12322313338518143
1757942198598669800,0.897669921875,-0.047519050538539886,-1.2186033725738525,-0.31049156188964844
1757942198608754700,0.907754638671875,0.045939527451992035,-0.5800657868385315,-0.37170618772506714
1757942198618839800,0.91783984375,0.09498190879821777,0.058938417583703995,-0.30595752596855164
1757942198628923600,0.927923583984375,0.0862715020775795,0.4949692487716675,-0.1478712260723114
1757942198639008800,0.9380087890625,0.08817433565855026,0.621196985244751,0.06186443194746971
1757942198649093600,0.94809375,0.10140997916460037,0.7346228361129761,0.16909687221050262
1757942198659178800,0.9581787109375,0.09971567243337631,0.7125950455665588,0.2198423445224762
1757942198669263600,0.968263671875,0.09609297662973404,0.4910605251789093,0.22696417570114136
1757942198679348700,0.9783486328125,0.1080084890127182,0.17739209532737732,0.18416531383991241
1757942198689433900,0.988433837890625,0.1077544242143631,-0.09293419867753983,0.10276712477207184
1757942198699518700,0.998518798828125,0.09745784848928452,-0.21974433958530426,-0.00842650793492794
1757942198709603800,1.008603759765625,0.08739083260297775,-0.20785360038280487,-0.12145426124334335
1757942198719688700,1.018688720703125,0.09302154928445816,-0.1168413981795311,-0.20896200835704803
1757942198729773800,1.02877392578125,0.11159683763980865,-0.005059473216533661,-0.2706317603588104
1757942198739857700,1.038857666015625,0.14188683032989502,0.06535397469997406,-0.28806614875793457
1757942198749942800,1.04894287109375,0.18321402370929718,0.12133068591356277,-0.28480884432792664
1757942198760027600,1.059027587890625,0.2395382821559906,0.15298475325107574,-0.2731143534183502
1757942198770112800,1.06911279296875,0.29601460695266724,0.14088654518127441,-0.244607076048851
1757942198780197600,1.07919775390625,0.3358222246170044,0.12102282792329788,-0.21484306454658508
1757942198790282800,1.08928271484375,0.3474564850330353,0.11455054581165314,-0.19149646162986755
1757942198800367600,1.09936767578125,0.3179670572280884,0.12083400785923004,-0.16384193301200867
1757942198810452700,1.10945263671875,0.2744262218475342,0.10969320684671402,-0.1311846524477005
1757942198820537900,1.119537841796875,0.23470757901668549,0.081919364631176,-0.09855826199054718
1757942198830622700,1.129622802734375,0.20354220271110535,0.055444348603487015,-0.06861741095781326
1757942198840707800,1.139707763671875,0.186886265873909,0.046781618148088455,-0.04368409886956215
1757942198850791700,1.149791748046875,0.18597306311130524,0.01847514696419239,-0.02883031591773033
1757942198860876800,1.159876708984375,0.18377941846847534,-0.049066878855228424,-0.02492053061723709
1757942198870961700,1.169961669921875,0.1571376919746399,-0.11683767288923264,-0.016745157539844513
1757942198881046800,1.180046875,0.12663596868515015,-0.14618676900863647,-0.008694954216480255
1757942198891131600,1.190131591796875,0.09092883765697479,-0.1466328501701355,0.005766276270151138
1757942198901216800,1.200216796875,0.06015734747052193,-0.1192835196852684,0.014747254550457
1757942198911301600,1.210301513671875,0.038188397884368896,-0.07301588356494904,0.010393785312771797
1757942198921386800,1.22038671875,0.01997770369052887,-0.04571742191910744,-0.0000010652644277797663
1757942198931472000,1.230471923828125,0.002945722546428442,-0.03191612288355827,-0.005094361025840044
1757942198941556700,1.240556640625,-0.004483964294195175,-0.02340279333293438,-0.01119513064622879
1757942198951641900,1.250641845703125,-0.005798766855150461,-0.01654249057173729,-0.014051103964447975
1757942198961725700,1.2607255859375,0.0008844357798807323,-0.024886973202228546,-0.02160356193780899
1757942198971810800,1.270810791015625,-0.0011709919199347496,-0.030939539894461632,-0.0338226780295372
1757942198981895700,1.280895751953125,-0.008700015023350716,-0.037094105035066605,-0.05176093056797981
1757942198991980800,1.290980712890625,-0.019688749685883522,-0.03892716020345688,-0.06374435871839523
1757942199002065700,1.301065673828125,-0.02876107394695282,-0.04144251346588135,-0.06926295906305313
1757942199012150800,1.31115087890625,-0.030291592702269554,-0.05157184600830078,-0.07702234387397766
1757942199022235600,1.321235595703125,-0.038009434938430786,-0.06558433920145035,-0.07743433862924576
1757942199032320800,1.33132080078125,-0.029589850455522537,-0.07172052562236786,-0.07661275565624237
1757942199042405600,1.341405517578125,-0.00487118773162365,-0.05754265561699867,-0.07605721801519394
1757942199052490800,1.35149072265625,0.029106220230460167,-0.0352671779692173,-0.07003394514322281
1757942199062575900,1.361575927734375,0.056584183126688004,-0.02178705483675003,-0.06835854798555374
1757942199072659700,1.37165966796875,0.06734122335910797,-0.03178695961833,-0.07930414378643036
1757942199082744600,1.38174462890625,0.06557608395814896,-0.07754592597484589,-0.08371540158987045
1757942199092829700,1.39182958984375,0.056173257529735565,-0.13524730503559113,-0.07908709347248077
1757942199102914800,1.401914794921875,0.04958885908126831,-0.18908177316188812,-0.07467823475599289
1757942199112999700,1.411999755859375,0.033957432955503464,-0.21658051013946533,-0.07607932388782501
1757942199123084800,1.422084716796875,0.013834589160978794,-0.224507674574852,-0.07377409189939499
1757942199133169700,1.432169677734375,-0.003088201628997922,-0.24456314742565155,-0.07316023111343384
1757942199143254800,1.4422548828125,-0.008386027999222279,-0.26509079337120056,-0.07481218874454498
1757942199153339600,1.452339599609375,0.0009771138429641724,-0.2596243917942047,-0.07622633129358292
1757942199163424800,1.4624248046875,0.00942119862884283,-0.23840591311454773,-0.07692274451255798
1757942199173508600,1.472508544921875,0.010191917419433594,-0.21472987532615662,-0.06661950796842575
1757942199183593700,1.48259375,0.012541624717414379,-0.1820283979177475,-0.06510496884584427
1757942199193678600,1.4926787109375,0.014058028347790241,-0.15572701394557953,-0.07020199298858643
1757942199203763700,1.502763671875,0.01350595522671938,-0.14737799763679504,-0.07079720497131348
1757942199213848800,1.512848876953125,0.01447188388556242,-0.1628355234861374,-0.07483216375112534
1757942199223933700,1.52293359375,0.012797554023563862,-0.19180086255073547,-0.06485143303871155
1757942199234018800,1.533018798828125,0.012221512384712696,-0.19551463425159454,-0.0607171431183815
1757942199244103700,1.543103759765625,0.004926049150526524,-0.18176473677158356,-0.05498415604233742
1757942199254188800,1.553188720703125,0.0032738239970058203,-0.14848534762859344,-0.055271245539188385
1757942199264273700,1.563273681640625,-0.005336974747478962,-0.12073547393083572,-0.04819868877530098
1757942199274358800,1.57335888671875,-0.013286510482430458,-0.09655903279781342,-0.04990710690617561
1757942199284442600,1.583442626953125,-0.02166641317307949,-0.09164922684431076,-0.046301983296871185
1757942199294527700,1.59352783203125,-0.024207334965467453,-0.1043786033987999,-0.04364095255732536
1757942199304612600,1.603612548828125,-0.021303690969944,-0.12124200910329819,-0.053753241896629333
1757942199314697700,1.61369775390625,-0.017365140840411186,-0.12200207263231277,-0.06547088176012039
1757942199324782600,1.623782470703125,-0.011408715508878231,-0.10492614656686783,-0.08386347442865372
1757942199334867700,1.63386767578125,-0.005929528269916773,-0.06323489546775818,-0.09812763333320618
1757942199344952800,1.643952880859375,-0.010029464960098267,0.002834934974089265,-0.10628329962491989
1757942199355037700,1.65403759765625,-0.006472013890743256,0.10438579320907593,-0.09216880798339844
1757942199365122800,1.664122802734375,0.024159397929906845,0.16036038100719452,-0.06657316535711288
1757942199375207700,1.674207763671875,0.06057919189333916,0.12963388860225677,-0.04909457638859749
1757942199385291800,1.684291748046875,0.06592628359794617,0.0764007642865181,-0.037583060562610626
1757942199395376600,1.694376708984375,0.05099101364612579,0.045219141989946365,-0.03671886771917343
1757942199405461800,1.704461669921875,0.03218323737382889,0.04850548505783081,-0.033720411360263824
1757942199415546600,1.714546630859375,0.016321448609232903,0.07182785123586655,-0.022348448634147644
1757942199425631700,1.7246318359375,0.0014980280539020896,0.1041857898235321,-0.015626896172761917
1757942199435716600,1.734716552734375,-0.004548679105937481,0.13221849501132965,-0.011351990513503551
1757942199445801700,1.7448017578125,-0.010122675448656082,0.12903335690498352,-0.007447530049830675
1757942199455886600,1.754886474609375,-0.010418818332254887,0.11233852803707123,-0.00279072648845613
1757942199465971700,1.7649716796875,-0.000639691308606416,0.09882724285125732,0.000368847802747041
1757942199476056800,1.775056884765625,0.012461462989449501,0.08791813999414444,0.0035723643377423286
1757942199486141700,1.7851416015625,0.015443138778209686,0.08002825826406479,0.00424401368945837
1757942199496225500,1.7952255859375,0.008390022441744804,0.0675036758184433,0.0035539884120225906
1757942199506310700,1.805310546875,0.0007629956235177815,0.051962267607450485,0.003919906914234161
1757942199516395800,1.815395751953125,-0.005991313606500626,0.041795384138822556,0.0046789078041911125
1757942199526480600,1.825480712890625,-0.007540740538388491,0.03623497113585472,0.009956493973731995
1757942199536565800,1.835565673828125,-0.00802943017333746,0.030307305976748466,0.013341638259589672
1757942199546651000,1.84565087890625,-0.00490154791623354,0.025170866400003433,0.013011938892304897
1757942199556735700,1.85573583984375,-0.003319630166515708,0.025947177782654762,0.010878480039536953
1757942199566820900,1.86582080078125,-0.008448611944913864,0.01733158528804779,0.009346364066004753
1757942199576905700,1.87590576171875,-0.018220549449324608,-0.004776911810040474,0.012838566675782204
1757942199586990800,1.885990966796875,-0.032348353415727615,-0.03478248044848442,0.015033810399472713
1757942199597074700,1.89607470703125,-0.03874606266617775,-0.0589597225189209,0.019042933359742165
1757942199607159800,1.906159912109375,-0.046780023723840714,-0.05507097393274307,0.021576665341854095
1757942199617244700,1.91624462890625,-0.0518655925989151,-0.024706944823265076,0.022968165576457977
1757942199627329800,1.926329833984375,-0.05613570660352707,0.008658469654619694,0.009378055110573769
1757942199637414700,1.93641455078125,-0.055390819907188416,0.024893365800380707,-0.005322593729943037
1757942199647499800,1.946499755859375,-0.050926562398672104,0.032164860516786575,-0.01224441546946764
1757942199657585000,1.9565849609375,-0.04138552397489548,0.039557263255119324,-0.017246898263692856
1757942199667669800,1.966669677734375,-0.024467259645462036,0.06091262027621269,-0.027803935110569
1757942199677755000,1.9767548828125,-0.012122975662350655,0.08309595286846161,-0.03184794262051582
1757942199687839700,1.98683984375,-0.007258179131895304,0.10493333637714386,-0.03255181759595871
1757942199697923800,1.996923828125,-0.00635057408362627,0.1204981878399849,-0.03580699861049652
1757942199708008700,2.0070087890625,-0.00500940578058362,0.11452312022447586,-0.035825908184051514
1757942199718093800,2.01709375,-0.008638761937618256,0.08607709407806396,-0.025181252509355545
1757942199728178700,2.0271787109375,-0.01318344660103321,0.061951518058776855,-0.022119948640465736
1757942199738263800,2.037263916015625,-0.008959938772022724,0.04607854411005974,-0.023015037178993225
1757942199748348700,2.0473486328125,-0.004544151946902275,0.0480804443359375,-0.020832311362028122
1757942199758433800,2.057433837890625,0.006355367600917816,0.06024390086531639,-0.03296061232686043
1757942199768518700,2.0675185546875,0.020362263545393944,0.07096738368272781,-0.04261297360062599
1757942199778603800,2.077603759765625,0.022607307881116867,0.07145421206951141,-0.04785247519612312
1757942199788689000,2.08768896484375,0.020490095019340515,0.06663601845502853,-0.03581072762608528
1757942199798772700,2.097772705078125,0.01709163561463356,0.061538729816675186,-0.021816082298755646
1757942199808857600,2.107857666015625,0.011170096695423126,0.05264696478843689,-0.009100021794438362
1757942199818942700,2.117942626953125,-0.0018745990237221122,0.03783206641674042,0.002016811864450574
1757942199829027800,2.12802783203125,-0.008346080780029297,0.02466326765716076,0.0024557008873671293
1757942199839112700,2.13811279296875,-0.012791162356734276,0.02213486284017563,-0.0006524744676426053
1757942199849197800,2.14819775390625,-0.011150122620165348,0.016276175156235695,-0.006055762059986591
1757942199859282700,2.15828271484375,-0.01044491771608591,0.005507150664925575,-0.018802449107170105
1757942199869367800,2.168367919921875,-0.009822537191212177,-0.010700581595301628,-0.021870411932468414
1757942199879452700,2.17845263671875,-0.010478739626705647,-0.01677977852523327,-0.02112792246043682
1757942199889537800,2.188537841796875,-0.013003682717680931,-0.01212936732918024,-0.019821375608444214
1757942199899621600,2.19862158203125,-0.011515242047607899,-0.00606268597766757,-0.024562334641814232
1757942199909706800,2.208706787109375,-0.008957009762525558,-0.008164453320205212,-0.02737729623913765
1757942199919791600,2.21879150390625,-0.010817760601639748,-0.020190754905343056,-0.02418203465640545
1757942199929876700,2.228876708984375,-0.010854777880012989,-0.026082733646035194,-0.026137061417102814
1757942199939961900,2.2389619140625,-0.010628409683704376,-0.019919378682971,-0.030472688376903534
1757942199950046700,2.249046630859375,-0.010320547968149185,-0.007867244072258472,-0.036493029445409775
1757942199960131800,2.2591318359375,-0.016639696434140205,-0.0016554208705201745,-0.03747014328837395
1757942199970216700,2.269216796875,-0.01733211800456047,-0.004649346694350243,-0.03626586124300957
1757942199980301800,2.2793017578125,-0.011348794214427471,-0.029018867760896683,-0.03593163564801216
1757942199990386700,2.28938671875,0.0006271744496189058,-0.04381006583571434,-0.025831863284111023
1757942200000471800,2.299471923828125,0.012044145725667477,-0.04201722517609596,-0.028672924265265465
1757942200010555600,2.3095556640625,0.019572369754314423,-0.027894748374819756,-0.03657319024205208
1757942200020640800,2.319640869140625,0.02201795019209385,-0.013107812032103539,-0.031196800991892815
1757942200030725600,2.3297255859375,0.025584455579519272,-0.006910902913659811,-0.024897625669836998
1757942200040810800,2.339810791015625,0.029805831611156464,-0.017253555357456207,-0.010452108457684517
1757942200050895600,2.3498955078125,0.028712870553135872,-0.01938541606068611,-0.00008175904804375023
1757942200060980700,2.359980712890625,0.027051057666540146,-0.0182889923453331,-0.007523962762206793
1757942200071065900,2.37006591796875,0.0267754215747118,-0.02430027909576893,-0.03274329751729965
1757942200081150700,2.380150634765625,0.03558702394366264,-0.04177461192011833,-0.05040990933775902
1757942200091235800,2.39023583984375,0.053526874631643295,-0.038959115743637085,-0.051486626267433167
1757942200101320700,2.40032080078125,0.06912820786237717,-0.004340153653174639,-0.044503550976514816
1757942200111404800,2.41040478515625,0.0765770673751831,0.016090286895632744,-0.04825914278626442
1757942200121489700,2.42048974609375,0.07783913612365723,0.007440339308232069,-0.07000518590211868
1757942200131574800,2.43057470703125,0.08897195011377335,-0.026705380529165268,-0.10723244398832321
1757942200141659600,2.44065966796875,0.1072620078921318,-0.08805928379297256,-0.15764687955379486
1757942200151744800,2.450744873046875,0.13554850220680237,-0.17315101623535156,-0.2076679766178131
1757942200161829600,2.46082958984375,0.1694747805595398,-0.25005990266799927,-0.26432591676712036
1757942200171914800,2.470914794921875,0.19683396816253662,-0.3146021366119385,-0.3018016517162323
1757942200181999600,2.48099951171875,0.2197352945804596,-0.3686387538909912,-0.3381412923336029
1757942200192084700,2.491084716796875,0.2295708805322647,-0.46422919631004333,-0.38878610730171204
1757942200202168600,2.50116845703125,0.2226967215538025,-0.5695739984512329,-0.4683416485786438
1757942200212253700,2.511253662109375,0.19043944776058197,-0.6631052494049072,-0.548653781414032
1757942200222338600,2.521338623046875,0.1880308836698532,-0.757418692111969,-0.6350283622741699
1757942200232423700,2.531423583984375,0.2165895700454712,-0.8144945502281189,-0.7155133485794067
1757942200242508800,2.5415087890625,0.2804574966430664,-0.8326687216758728,-0.7670010328292847
1757942200252593700,2.55159375,0.34352701902389526,-0.7942292094230652,-0.7799956798553467
1757942200262678800,2.5616787109375,0.3956988751888275,-0.7323357462882996,-0.7654228806495667
1757942200272763600,2.571763671875,0.4515325725078583,-0.7003408074378967,-0.7384037375450134
1757942200282848800,2.581848876953125,0.4999091625213623,-0.6913518309593201,-0.7133148908615112
1757942200292933600,2.59193359375,0.551866888999939,-0.6988097429275513,-0.6868500113487244
1757942200303018800,2.602018798828125,0.6535500884056091,-0.7587428689002991,-0.6154583692550659
1757942200313102800,2.612102783203125,0.7423537373542786,-0.7427883744239807,-0.5615621209144592
1757942200323187700,2.622187744140625,0.7728075385093689,-0.7633700966835022,-0.5615214109420776
1757942200333272600,2.6322724609375,0.7975205779075623,-0.8145781755447388,-0.5912033915519714
1757942200343357700,2.642357666015625,0.8238363862037659,-0.8117959499359131,-0.6311052441596985
1757942200353442800,2.65244287109375,0.8686560392379761,-0.7686721682548523,-0.6450434327125549
1757942200363527700,2.662527587890625,0.9939753413200378,-0.6851328015327454,-0.6510632634162903
1757942200373612800,2.67261279296875,1.1754041910171509,-0.7094248533248901,-0.6466658711433411
1757942200383697700,2.68269775390625,1.3436886072158813,-0.8266201615333557,-0.6132825613021851
1757942200393782800,2.69278271484375,1.4450445175170898,-0.8953331708908081,-0.5824384093284607
1757942200403867000,2.702866943359375,1.4924567937850952,-0.8828360438346863,-0.5485989451408386
1757942200413952000,2.712951904296875,1.5186026096343994,-0.877921462059021,-0.5062754154205322
1757942200424036900,2.723036865234375,1.5565968751907349,-0.9736889600753784,-0.4530537724494934
1757942200434121700,2.733121826171875,1.5894347429275513,-0.9253911972045898,-0.4312853515148163
1757942200444206600,2.74320654296875,1.6156316995620728,-0.8663787841796875,-0.41503581404685974
1757942200454291700,2.753291748046875,1.6511694192886353,-0.8757983446121216,-0.41067060828208923
1757942200464376600,2.76337646484375,1.6403921842575073,-0.8877623677253723,-0.4086756408214569
1757942200474461700,2.773461669921875,1.6126481294631958,-0.8231987953186035,-0.3915712237358093
1757942200484546800,2.783546875,1.648049235343933,-0.6683855056762695,-0.33563899993896484
1757942200494631700,2.793631591796875,1.6700856685638428,-0.5456790328025818,-0.3058507442474365
1757942200504715800,2.8037158203125,1.6250563859939575,-0.3713756799697876,-0.3430154025554657
1757942200514801000,2.81380078125,1.5101827383041382,-0.2987307608127594,-0.3845173120498657
1757942200524886000,2.823885986328125,1.3480415344238281,-0.24316763877868652,-0.41350236535072327
1757942200534971100,2.83397119140625,1.158868432044983,-0.18640050292015076,-0.38441210985183716
1757942200545056300,2.84405615234375,0.9779399037361145,-0.18241508305072784,-0.3505769371986389
1757942200555141000,2.85414111328125,0.8311499357223511,-0.3259112536907196,-0.38300010561943054
1757942200565226200,2.864226318359375,0.7741164565086365,-0.19112281501293182,-0.34431955218315125
1757942200575311000,2.87431103515625,0.8413663506507874,-0.1753004491329193,-0.29434508085250854
1757942200585396200,2.884396240234375,0.9578405022621155,-0.14694631099700928,-0.2946215271949768
1757942200595480300,2.894480224609375,1.078927993774414,-0.1735861748456955,-0.3049790859222412
1757942200605565200,2.904565185546875,1.1829739809036255,-0.17749862372875214,-0.29317647218704224
1757942200615650300,2.914650390625,1.2218763828277588,-0.055092811584472656,-0.26044195890426636
1757942200625735200,2.924735107421875,1.2108311653137207,0.11915222555398941,-0.22007989883422852
1757942200635820300,2.9348203125,1.1833122968673706,0.26189127564430237,-0.18028642237186432
1757942200645905200,2.9449052734375,1.1397663354873657,0.33966994285583496,-0.150332510471344
1757942200655990300,2.954990234375,1.0955262184143066,0.3524547219276428,-0.13304540514945984
1757942200666075100,2.9650751953125,1.0131919384002686,0.3502048850059509,-0.12207264453172684
1757942200676160300,2.97516015625,0.9037439823150635,0.3164258897304535,-0.11991441994905472
1757942200686245000,2.9852451171875,0.7757236957550049,0.31075921654701233,-0.09828609228134155
1757942200696329500,2.99532958984375,0.6673545837402344,0.34931325912475586,-0.0573386549949646
1757942200706414300,3.005414306640625,0.5731236934661865,0.40013623237609863,-0.028775455430150032
1757942200716499500,3.01549951171875,0.4982079267501831,0.3973196744918823,-0.030495058745145798
1757942200726584300,3.025584228515625,0.4369986355304718,0.3471699357032776,-0.036232840269804
1757942200736669200,3.035669189453125,0.36850613355636597,0.2837057411670685,-0.04543805494904518
1757942200746754300,3.04575439453125,0.24694986641407013,0.2409723997116089,-0.04277409613132477
1757942200756839200,3.055839111328125,0.07554961740970612,0.23866982758045197,-0.004746818449348211
1757942200766924300,3.06592431640625,-0.14464320242404938,0.27420279383659363,0.05156518891453743
1757942200777009200,3.076009033203125,-0.37836992740631104,0.31299838423728943,0.10703297704458237
1757942200787093500,3.086093505859375,-0.5813004374504089,0.3875141739845276,0.16082483530044556
1757942200797178400,3.096178466796875,-0.7652843594551086,0.4746767580509186,0.18200628459453583
1757942200807263500,3.106263427734375,-0.8357140421867371,0.5177763104438782,0.19507122039794922
1757942200817348400,3.116348388671875,-0.8833955526351929,0.5107793807983398,0.2058628797531128
1757942200827433500,3.12643359375,-0.9500486254692078,0.5088666677474976,0.22703661024570465
1757942200837518300,3.136518310546875,-1.032516360282898,0.515318751335144,0.27277907729148865
1757942200847603200,3.146603271484375,-1.1541756391525269,0.4544724225997925,0.3384150564670563
1757942200857688000,3.15668798828125,-1.2800259590148926,0.2760941684246063,0.4291846454143524
1757942200867773200,3.166773193359375,-1.3677548170089722,-0.022703981027007103,0.5283706188201904
1757942200877858300,3.1768583984375,-1.3828288316726685,-0.3369641900062561,0.5635325908660889
1757942200887942400,3.1869423828125,-1.342760443687439,-0.6019825339317322,0.5066336393356323
1757942200898027300,3.19702734375,-1.245018720626831,-0.6988939046859741,0.3810157775878906
1757942200908112400,3.2071123046875,-1.0715428590774536,-0.6010560393333435,0.20648446679115295
1757942200918197500,3.217197509765625,-0.675444483757019,-0.3403943181037903,0.059236690402030945
1757942200928282400,3.227282470703125,-0.10742232948541641,-0.10081875324249268,-0.0658503845334053
1757942200938367500,3.237367431640625,0.5970277190208435,-0.10993555188179016,-0.13539643585681915
1757942200948452400,3.247452392578125,1.1513478755950928,-0.2366628795862198,-0.22312070429325104
1757942200958537200,3.257537109375,1.271104097366333,-0.3940303921699524,-0.2955552041530609
1757942200968622000,3.2676220703125,1.1103893518447876,-0.4350002110004425,-0.3336666524410248
1757942200978706400,3.27770654296875,0.8310615420341492,-0.4049208462238312,-0.31043004989624023
1757942200988791300,3.287791259765625,0.536476731300354,-0.38850167393684387,-0.2568371295928955
1757942200998876400,3.29787646484375,0.25015097856521606,-0.3649904727935791,-0.17147508263587952
1757942201008961300,3.307961181640625,-0.05624755844473839,-0.3267267346382141,-0.049315884709358215
1757942201019046400,3.31804638671875,-0.3952104449272156,-0.3175199031829834,0.0766870528459549
1757942201029131500,3.328131591796875,-0.7335869073867798,-0.3336770236492157,0.18083955347537994
1757942201039216400,3.33821630859375,-0.9944227337837219,-0.34142443537712097,0.2688399851322174
1757942201049301500,3.348301513671875,-1.1861828565597534,-0.2944614589214325,0.3473004400730133
1757942201059386400,3.358386474609375,-1.3453373908996582,-0.25768694281578064,0.39557501673698425
1757942201069470500,3.368470458984375,-1.4913794994354248,-0.25432470440864563,0.4194566607475281
1757942201079555300,3.378555419921875,-1.6268994808197021,-0.2782081961631775,0.43314236402511597
1757942201089640400,3.388640380859375,-1.7277393341064453,-0.31147825717926025,0.4572064280509949
1757942201099725300,3.398725341796875,-1.7909412384033203,-0.3283911943435669,0.49214285612106323
1757942201109810400,3.408810546875,-1.815264105796814,-0.3107434809207916,0.5160723924636841
1757942201119895300,3.418895263671875,-1.8021818399429321,-0.2548075318336487,0.5241183638572693
1757942201129980400,3.42898046875,-1.7719802856445312,-0.18608278036117554,0.5070016980171204
1757942201140065300,3.439065185546875,-1.6707268953323364,-0.12951751053333282,0.4811176359653473
1757942201150150400,3.449150390625,-1.521916151046753,-0.1278463751077652,0.42973804473876953
1757942201160235500,3.459235595703125,-1.321823000907898,-0.19472740590572357,0.3662962317466736
1757942201170319400,3.4693193359375,-1.0901031494140625,-0.3025822341442108,0.2829057276248932
1757942201180404200,3.479404296875,-0.8568238615989685,-0.3494725227355957,0.13883377611637115
1757942201190489300,3.4894892578125,-0.6046121120452881,-0.2847909927368164,-0.0015864450251683593
1757942201200574500,3.499574462890625,-0.3506144881248474,-0.16130287945270538,-0.07272586971521378
1757942201210659300,3.509659423828125,-0.17617662250995636,-0.06156988814473152,-0.09294512122869492
1757942201220744400,3.519744384765625,-0.13780046999454498,-0.010434531606733799,-0.07088962197303772
1757942201230829300,3.529829345703125,-0.20849968492984772,0.00358807691372931,-0.04146621748805046
1757942201240914400,3.53991455078125,-0.3532097339630127,0.029868416488170624,-0.00177925790194422
1757942201250998300,3.549998291015625,-0.5645443201065063,0.04625964164733887,0.02846786007285118
1757942201261083400,3.56008349609375,-0.7509214282035828,0.023326361551880836,0.06849490851163864
1757942201271168300,3.570168212890625,-0.8919557332992554,-0.020172379910945892,0.12169767171144485
1757942201281253400,3.58025341796875,-1.011580467224121,-0.11483044177293777,0.1677732914686203
1757942201291338200,3.590338134765625,-1.1103930473327637,-0.2156878113746643,0.20958252251148224
1757942201301423400,3.60042333984375,-1.210872769355774,-0.2864741086959839,0.2527845799922943
1757942201311508200,3.61050830078125,-1.2699528932571411,-0.3219495415687561,0.3179484009742737
1757942201321593300,3.62059326171875,-1.3118997812271118,-0.35594746470451355,0.3847905695438385
1757942201331678500,3.630678466796875,-1.3513481616973877,-0.3919091820716858,0.4450317919254303
1757942201341763300,3.640763427734375,-1.3790556192398071,-0.4066239595413208,0.4926680326461792
1757942201351847400,3.650847412109375,-1.3689446449279785,-0.4212020933628082,0.5211489200592041
1757942201361932300,3.660932373046875,-1.3147696256637573,-0.43451815843582153,0.5325179696083069
1757942201372017400,3.671017333984375,-1.2206180095672607,-0.4593673348426819,0.5308976769447327
1757942201382102300,3.681102294921875,-1.0822125673294067,-0.4748471975326538,0.5230035781860352
1757942201392187400,3.6911875,-0.9294772744178772,-0.4927300810813904,0.5008804202079773
1757942201402272300,3.701272216796875,-0.7585747838020325,-0.47698119282722473,0.4629431366920471
1757942201412357400,3.711357421875,-0.58017498254776,-0.43084514141082764,0.4072425961494446
1757942201422442200,3.721442138671875,-0.4144456386566162,-0.37387025356292725,0.34025344252586365
1757942201432527400,3.73152734375,-0.24341557919979095,-0.3299728333950043,0.27123284339904785
1757942201442611200,3.741611083984375,-0.09084761142730713,-0.26282310485839844,0.2011759877204895
1757942201452696300,3.7516962890625,0.02984338253736496,-0.17647436261177063,0.13165123760700226
1757942201462781200,3.76178125,0.1162901222705841,-0.09649591147899628,0.07293093204498291
1757942201472866300,3.7718662109375,0.1667351871728897,-0.023694144561886787,0.03335236385464668
1757942201482951400,3.781951416015625,0.188887357711792,0.0397799015045166,0.009947971440851688
1757942201493036300,3.792036376953125,0.1889219880104065,0.07665509730577469,0.001948634977452457
1757942201503121400,3.802121337890625,0.1702558845281601,0.09921713173389435,0.007077882997691631
1757942201513206300,3.812206298828125,0.13992780447006226,0.11502059549093246,0.001564873498864472
1757942201523291400,3.82229150390625,0.10727745294570923,0.12969008088111877,0.00815193634480238
1757942201533375200,3.832375244140625,0.07499407976865768,0.14969362318515778,0.026392191648483276
1757942201543460400,3.84246044921875,0.051532432436943054,0.16496418416500092,0.047455400228500366
1757942201553545200,3.852545166015625,0.03362453728914261,0.1709139496088028,0.05723186582326889
1757942201563630300,3.86263037109375,0.01667405106127262,0.16553249955177307,0.05918608978390694
1757942201573715500,3.872715576171875,0.0051811798475682735,0.17416700720787048,0.050884220749139786
1757942201583800300,3.88280029296875,-0.006232329644262791,0.17643629014492035,0.04343748837709427
1757942201593885400,3.892885498046875,-0.010237190872430801,0.1692582666873932,0.044921137392520905
1757942201603970300,3.90297021484375,-0.018625082448124886,0.16817116737365723,0.046010635793209076
1757942201614054400,3.913054443359375,-0.024702416732907295,0.17522640526294708,0.04667669162154198
1757942201624139300,3.92313916015625,-0.02534264139831066,0.17812445759773254,0.05018487200140953
1757942201634224400,3.933224365234375,-0.017376327887177467,0.1864479035139084,0.04460528492927551
1757942201644309200,3.943309326171875,-0.010435064323246479,0.19396761059761047,0.036142293363809586
1757942201654394400,3.953394287109375,-0.000556334329303354,0.19780655205249786,0.028853751718997955
1757942201664479200,3.963479248046875,0.014822888188064098,0.2039901465177536,0.017180051654577255
1757942201674564400,3.973564453125,0.025961825624108315,0.21049465239048004,0.0020181434229016304
1757942201684649200,3.983649169921875,0.035944949835538864,0.22130921483039856,-0.00942173134535551
1757942201694734300,3.993734375,0.04565829783678055,0.22381338477134705,-0.019818978384137154
1757942201704819500,4.0038193359375,0.05228264629840851,0.22704194486141205,-0.0288231261074543
1757942201714903300,4.0139033203125,0.06099890545010567,0.2349027842283249,-0.038717303425073624
1757942201724988200,4.02398828125,0.05988384038209915,0.2429220974445343,-0.04676564037799835
1757942201735073300,4.0340732421875,0.06010647863149643,0.2544253468513489,-0.05787528306245804
1757942201745158400,4.044158447265625,0.0591655857861042,0.2586933374404907,-0.06072593107819557
1757942201755243300,4.0542431640625,0.06028890609741211,0.25299152731895447,-0.06796173751354218
1757942201765328400,4.064328369140625,0.05330902710556984,0.22747443616390228,-0.07857923209667206
1757942201775413200,4.074413330078125,0.03640274703502655,0.16521719098091125,-0.08798098564147949
1757942201785498400,4.084498291015625,0.007230748422443867,0.10224355012178421,-0.0971158966422081
1757942201795582200,4.094582275390625,-0.024524783715605736,0.04989698529243469,-0.09412276744842529
1757942201805667300,4.104667236328125,-0.050090596079826355,0.034083135426044464,-0.07605055719614029
1757942201815752200,4.114752197265625,-0.06054377183318138,0.04459649696946144,-0.05765211209654808
1757942201825837300,4.12483740234375,-0.06427432596683502,0.05242592468857765,-0.03405783697962761
1757942201835922200,4.134922119140625,-0.06359469145536423,0.057684868574142456,-0.021748704835772514
1757942201846007300,4.14500732421875,-0.0647779330611229,0.06795960664749146,-0.013624998740851879
1757942201856092400,4.155092529296875,-0.06748929619789124,0.09803681820631027,-0.010396181605756283
1757942201866177300,4.16517724609375,-0.06114484742283821,0.12445724010467529,-0.00415319949388504
1757942201876262400,4.175262451171875,-0.045524340122938156,0.14106523990631104,0.0021015002857893705
1757942201886346200,4.18534619140625,-0.022128205746412277,0.1452256292104721,0.010748784057796001
1757942201896431400,4.195431396484375,0.010642790235579014,0.14553482830524445,0.020304739475250244
1757942201906516200,4.20551611328125,0.03488820791244507,0.15526922047138214,0.019580891355872154
1757942201916601300,4.215601318359375,0.04900456219911575,0.16161872446537018,0.019150258973240852
1757942201926686200,4.225686279296875,0.05197638273239136,0.16612932085990906,0.02527153491973877
1757942201936771300,4.235771240234375,0.05566272884607315,0.15725646913051605,0.03020051307976246
1757942201946856200,4.245856201171875,0.06286817789077759,0.14662352204322815,0.035844817757606506
1757942201956941300,4.25594140625,0.06735879927873611,0.13856853544712067,0.03394731506705284
1757942201967026200,4.266026123046875,0.07521166652441025,0.132976695895195,0.03880571946501732
1757942201977110300,4.2761103515625,0.08625179529190063,0.12865518033504486,0.041672613471746445
1757942201987195100,4.286195068359375,0.09970209002494812,0.12662239372730255,0.04129257798194885
1757942201997280300,4.2962802734375,0.11072731018066406,0.12396428734064102,0.042281411588191986
1757942202007365000,4.306365234375,0.12611718475818634,0.10934007167816162,0.035715121775865555
1757942202017450200,4.3164501953125,0.13429735600948334,0.10005070269107819,0.028623921796679497
1757942202027535400,4.326535400390625,0.1354723423719406,0.08038511872291565,0.013067332096397877
1757942202037620200,4.3366201171875,0.132773756980896,0.06198800355195999,0.004081294406205416
1757942202047705300,4.346705322265625,0.1264149248600006,0.06067986041307449,-0.006618754006922245
1757942202057790200,4.356790283203125,0.11662089079618454,0.06277976185083389,-0.013492106460034847
1757942202067874300,4.366874267578125,0.10324303060770035,0.06871115416288376,-0.012412994168698788
1757942202077959400,4.37695947265625,0.09336057305335999,0.09363727271556854,-0.018851984292268753
1757942202088044300,4.387044189453125,0.07839120924472809,0.12319889664649963,-0.025417475029826164
1757942202098129200,4.397129150390625,0.06508499383926392,0.124778151512146,-0.03350016847252846
1757942202108214300,4.40721435546875,0.05583024397492409,0.12279435992240906,-0.031807731837034225
1757942202118299100,4.417299072265625,0.06096295267343521,0.13185177743434906,-0.027658525854349136
1757942202128384300,4.42738427734375,0.06784402579069138,0.1165069043636322,-0.029755499213933945
1757942202138469000,4.43746923828125,0.0657971203327179,0.08963800966739655,-0.034928690642118454
1757942202148554200,4.44755419921875,0.05694477632641792,0.043905939906835556,-0.040173519402742386
1757942202158638300,4.457638427734375,0.0417780727148056,-0.01690361648797989,-0.04126408323645592
1757942202168723500,4.467723388671875,0.018276475369930267,-0.06869491189718246,-0.032696958631277084
1757942202178808600,4.47780859375,0.000218645524000749,-0.10019184648990631,-0.028174646198749542
1757942202188893400,4.4878935546875,-0.017171796411275864,-0.11563844978809357,-0.026731746271252632
1757942202198978300,4.497978271484375,-0.03279310092329979,-0.11300484836101532,-0.02442890964448452
1757942202209063200,4.508063232421875,-0.03439871966838837,-0.10448726266622543,-0.02412770688533783
1757942202219148300,4.518148193359375,-0.03899933025240898,-0.09922991693019867,-0.02303927205502987
1757942202229233200,4.528233154296875,-0.046971503645181656,-0.08984573185443878,-0.025126924738287926
1757942202239318300,4.538318359375,-0.04594938084483147,-0.09763681143522263,-0.028005002066493034
1757942202249402400,4.54840234375,-0.04135383293032646,-0.08560624718666077,-0.03767627105116844
1757942202259487500,4.558487548828125,-0.03837002441287041,-0.0631888210773468,-0.04514910280704498
1757942202269572400,4.568572265625,-0.027660124003887177,-0.055573247373104095,-0.050153981894254684
1757942202279657500,4.578657470703125,-0.023253923282027245,-0.05014199763536453,-0.05294444039463997
1757942202289742300,4.588742431640625,-0.01853826455771923,-0.0398307703435421,-0.05597378686070442
1757942202299827500,4.598827392578125,-0.017886321991682053,-0.011342935264110565,-0.05347520858049393
1757942202309912300,4.608912353515625,-0.01709003746509552,0.0098419776186347,-0.05240408703684807
1757942202319997200,4.6189970703125,-0.021264009177684784,0.019603528082370758,-0.050453320145606995
1757942202330082300,4.629082275390625,-0.0277370885014534,0.019538814201951027,-0.04950390383601189
1757942202340166400,4.63916650390625,-0.024048345163464546,0.017060741782188416,-0.049863964319229126
1757942202350251500,4.64925146484375,-0.015823969617486,0.018622953444719315,-0.058810051530599594
1757942202360336400,4.65933642578125,0.0021134845446795225,0.03111344389617443,-0.0745898187160492
1757942202370421500,4.66942138671875,0.016083894297480583,0.05109114572405815,-0.08812399953603745
1757942202380506400,4.67950634765625,0.02503264881670475,0.05938263237476349,-0.10258016735315323
1757942202390591500,4.689591552734375,0.029989324510097504,0.0637105330824852,-0.10749396681785583
1757942202400676400,4.69967626953125,0.03539207950234413,0.07142624258995056,-0.10522628575563431
1757942202410761500,4.709761474609375,0.03720515966415405,0.0935983955860138,-0.10524865984916687
1757942202420846300,4.719846435546875,0.034654650837183,0.10217590630054474,-0.0928090363740921
1757942202430930400,4.729930419921875,0.027363980188965797,0.11132971942424774,-0.08295373618602753
1757942202441015300,4.740015380859375,0.010487528517842293,0.10514559596776962,-0.07594509422779083
1757942202451100400,4.750100341796875,-0.014740330167114735,0.09812790155410767,-0.06385354697704315
1757942202461185300,4.760185302734375,-0.04566469043493271,0.08596523851156235,-0.0512823611497879
1757942202471270400,4.7702705078125,-0.06784642487764359,0.07700876146554947,-0.03840731084346771
1757942202481355500,4.78035546875,-0.08670692890882492,0.06766346842050552,-0.026041720062494278
1757942202491440400,4.7904404296875,-0.09778754413127899,0.062005579471588135,-0.020532704889774323
1757942202501525500,4.800525390625,-0.10495863854885101,0.06005588173866272,-0.015857260674238205
1757942202511609300,4.810609375,-0.10445477068424225,0.06470416486263275,-0.010809238068759441
1757942202521694500,4.820694580078125,-0.1071818470954895,0.06265193223953247,-0.009298427030444145
1757942202531779300,4.830779296875,-0.10024644434452057,0.04897420108318329,-0.017853299155831337
1757942202541864200,4.8408642578125,-0.08627550303936005,0.05911365523934364,-0.017893247306346893
1757942202551949000,4.850948974609375,-0.06974605470895767,0.06193554028868675,-0.015077220275998116
1757942202562034200,4.8610341796875,-0.05904760584235191,0.0656764805316925,-0.013231649063527584
1757942202572119000,4.871119140625,-0.04879496991634369,0.05865825340151787,-0.019572902470827103
1757942202582204200,4.8812041015625,-0.041436389088630676,0.05140966176986694,-0.023438213393092155
1757942202592289000,4.8912890625,-0.03343678638339043,0.05438707396388054,-0.029292374849319458
1757942202602373000,4.901373046875,-0.02894882671535015,0.0727626234292984,-0.03622564673423767
1757942202612458000,4.9114580078125,-0.038549523800611496,0.09741363674402237,-0.039691220968961716
1757942202622543000,4.921543212890625,-0.05335962772369385,0.11603179574012756,-0.03466370329260826
1757942202632628200,4.931628173828125,-0.06102580204606056,0.12309876084327698,-0.02412983775138855
1757942202642713000,4.941713134765625,-0.05471757426857948,0.1292080581188202,-0.018876751884818077
1757942202652798200,4.951798095703125,-0.04151548445224762,0.11295797675848007,-0.020957479253411293
1757942202662883000,4.961883056640625,-0.019759323447942734,0.09017650038003922,-0.028618061915040016
1757942202672968200,4.97196826171875,0.00526693370193243,0.06862673163414001,-0.04312802851200104
1757942202683052000,4.982052001953125,0.017613613978028297,0.05223630741238594,-0.05865132808685303
1757942202693137200,4.99213720703125,0.03241626173257828,0.034084733575582504,-0.0659012496471405
1757942202703222000,5.002221923828125,0.031006384640932083,0.022164424881339073,-0.05939009040594101
1757942202713307100,5.01230712890625,0.020930849015712738,0.010845723561942577,-0.03759584575891495
1757942202723392000,5.02239208984375,0.007187072653323412,0.011442005634307861,-0.011274492368102074
1757942202733477000,5.03247705078125,-0.00618172949180007,0.020421918481588364,0.008279501460492611
1757942202743562000,5.04256201171875,-0.019947076216340065,0.0318138562142849,0.027409786358475685
1757942202753647000,5.052647216796875,-0.03488607704639435,0.03939694166183472,0.03875724971294403
1757942202763732200,5.062732177734375,-0.043897949159145355,0.03846216946840286,0.052433911710977554
1757942202773816000,5.072816162109375,-0.04541461914777756,0.03592071682214737,0.06113073229789734
1757942202783901000,5.08290087890625,-0.03678331524133682,0.0438699871301651,0.06898492574691772
1757942202793986000,5.092986083984375,-0.028028171509504318,0.05409865453839302,0.06988241523504257
1757942202804071200,5.1030712890625,-0.018279671669006348,0.06435582041740417,0.07152744382619858
1757942202814156000,5.113156005859375,-0.006440056022256613,0.0673058032989502,0.07358713448047638
1757942202824241200,5.1232412109375,0.014325941912829876,0.07103768736124039,0.06654413789510727
1757942202834326000,5.133325927734375,0.024170583114027977,0.06517873704433441,0.05107570067048073
1757942202844411100,5.1434111328125,0.03044072911143303,0.04646656662225723,0.03364397957921028
1757942202854496000,5.15349609375,0.050814978778362274,0.03585680201649666,0.01793505810201168
1757942202864580000,5.163580078125,0.06316778063774109,0.026635605841875076,0.0000250337143370416
1757942202874665000,5.1736650390625,0.07621806859970093,0.01818219944834709,-0.005283711478114128
1757942202884750000,5.18375,0.08899964392185211,0.008560997433960438,-0.010654508136212826
1757942202894835000,5.1938349609375,0.09349772334098816,0.006786533165723085,-0.018496718257665634
1757942202904920000,5.203920166015625,0.0929350033402443,0.01267078798264265,-0.024942101910710335
1757942202915005000,5.2140048828125,0.08926916122436523,0.015164039097726345,-0.023250194266438484
1757942202925090000,5.224090087890625,0.0851694867014885,0.014134993776679039,-0.024813471361994743
1757942202935175200,5.234175048828125,0.08064504712820053,0.01016928069293499,-0.027472371235489845
1757942202945260000,5.244260009765625,0.07454267889261246,0.006228601094335318,-0.021798240020871162
1757942202955344100,5.25434423828125,0.07245022803544998,0.00974716991186142,-0.026189260184764862
1757942202965429000,5.264428955078125,0.06545969843864441,0.0029963224660605192,-0.02544650435447693
1757942202975514000,5.27451416015625,0.06070755422115326,0.0016966998809948564,-0.027762388810515404
1757942202985599000,5.284598876953125,0.02923538349568844,-0.000728907180018723,-0.0332849845290184
1757942202995684000,5.29468408203125,0.03456410393118858,0.001201884588226676,-0.0322657935321331
1757942203005769000,5.30476904296875,0.03482748940587044,0.008235293440520763,-0.03833061084151268
1757942203015854000,5.31485400390625,0.019458653405308723,0.014161092229187489,-0.05024266242980957
1757942203025939000,5.32493896484375,0.028680380433797836,0.013381319120526314,-0.048833850771188736
1757942203036024000,5.335024169921875,0.027657726779580116,0.009456618689000607,-0.05095798894762993
1757942203046108000,5.34510791015625,0.018912438303232193,0.005136705003678799,-0.05006023868918419
1757942203056193000,5.355193115234375,0.011709919199347496,0.0035449336282908916,-0.04271337389945984
1757942203066278000,5.36527783203125,-0.0007613977650180459,0.004225637763738632,-0.034383006393909454
1757942203076363000,5.375363037109375,-0.015192268416285515,0.001190166687592864,-0.021792113780975342
1757942203086448000,5.3854482421875,-0.025176726281642914,-0.0024716798216104507,-0.0137227363884449
1757942203096533000,5.395532958984375,-0.03133049234747887,-0.002609365154057741,-0.0035830168053507805
1757942203106618000,5.4056181640625,-0.06715613603591919,-0.009237973019480705,-0.0003222425002604723
1757942203116703000,5.415702880859375,-0.04795420914888382,-0.01804558001458645,0.0043859598226845264
1757942203126787000,5.425787109375,-0.05769365653395653,-0.01587750017642975,-0.007617439609020948
1757942203136872000,5.435871826171875,-0.03260321542620659,-0.024874456226825714,-0.01624901033937931
1757942203146957000,5.44595703125,-0.01284336019307375,-0.029644977301359177,-0.02088211290538311
1757942203157042000,5.4560419921875,-0.008898952975869179,-0.022840600460767746,-0.021446969360113144
1757942203167127000,5.466126953125,-0.004232828039675951,-0.020233366638422012,-0.018335863947868347
1757942203177212000,5.4762119140625,0.0034165694378316402,-0.017846375703811646,-0.009606820531189442
1757942203187297000,5.486297119140625,0.01044252049177885,-0.014006895944476128,-0.003695668652653694
1757942203197382000,5.4963818359375,0.012484898790717125,-0.022291457280516624,-0.005967611446976662
1757942203207467000,5.506467041015625,0.01145984884351492,-0.025965820997953415,-0.009238239377737045
1757942203217551000,5.516551025390625,0.006573214195668697,-0.027785025537014008,-0.013324594125151634
1757942203227636200,5.52663623046875,0.010176471434533596,-0.02160436101257801,-0.011812451295554638
1757942203237721000,5.53672119140625,0.011196195147931576,-0.0230517890304327,-0.004234958905726671
1757942203247806000,5.546805908203125,0.012487828731536865,-0.025738120079040527,0.0028447885997593403
1757942203257891000,5.55689111328125,0.01085664238780737,-0.018565429374575615,0.00014327807002700865
1757942203267976000,5.566975830078125,0.007200655061751604,-0.00893810112029314,0.005411010701209307
1757942203278061000,5.57706103515625,0.0024234766606241465,0.0019718045368790627,0.0049734534695744514
1757942203288146000,5.58714599609375,0.0012658004416152835,0.011532019823789597,0.013450561091303825
1757942203298231000,5.59723095703125,0.0023928501177579165,0.024513065814971924,0.024645958095788956
1757942203308315100,5.607315185546875,0.0010341054294258356,0.034385137259960175,0.03150945529341698
1757942203318400300,5.617400146484375,-0.00245143985375762,0.04465082660317421,0.026982348412275314
1757942203328485000,5.627485107421875,-0.003890611929818988,0.05198756605386734,0.025841450318694115
1757942203338570200,5.6375703125,-0.004464523401111364,0.05445551872253418,0.027153324335813522
1757942203348655000,5.647655029296875,-0.005995308049023151,0.05155107378959656,0.029035912826657295
1757942203358740000,5.657739990234375,-0.0057135457172989845,0.050584614276885986,0.026084065437316895
1757942203368825000,5.6678251953125,-0.005570267792791128,0.054005444049835205,0.024625452235341072
1757942203378910000,5.677909912109375,-0.002950782421976328,0.05817355960607529,0.016773920506238937
1757942203388994000,5.687994140625,0.0037611823063343763,0.07237938791513443,0.008468586020171642
1757942203399079200,5.6980791015625,0.012357067316770554,0.07943623512983322,-0.000022636868379777297
1757942203409164300,5.708164306640625,0.020323647186160088,0.08978261798620224,-0.007291202433407307
1757942203419249200,5.718249267578125,0.02821539342403412,0.08869311958551407,-0.011921906843781471
1757942203429334300,5.728334228515625,0.030702518299221992,0.09068329632282257,-0.007315703667700291
1757942203439419100,5.738419189453125,0.032461270689964294,0.08362778276205063,-0.0036764938849955797
1757942203449504300,5.748504150390625,0.031808797270059586,0.06869197636842728,-0.006741792429238558
1757942203459589000,5.758589111328125,0.02569977007806301,0.047809068113565445,-0.004597681108862162
1757942203469674000,5.768674072265625,0.011627361178398132,0.03164847195148468,-0.001264202524907887
1757942203479758000,5.778758056640625,-0.004001399502158165,0.026035862043499947,0.0065620290115475655
1757942203489843200,5.78884326171875,-0.01564820110797882,0.020892499014735222,0.012942430563271046
1757942203499928000,5.798927978515625,-0.019824571907520294,0.00842677429318428,0.015795741230249405
1757942203510013200,5.80901318359375,-0.02172313816845417,-0.0033598439767956734,0.022902652621269226
1757942203520098000,5.81909814453125,-0.024622255936264992,0.001047421246767044,0.018306568264961243
1757942203530183200,5.82918310546875,-0.029138710349798203,-0.000713993504177779,0.017402958124876022
1757942203540268500,5.8392685546875,-0.030706780031323433,0.0005291700945235789,0.016106264665722847
1757942203550353400,5.849353515625,-0.025655029341578484,0.010550645180046558,0.01336001418530941
1757942203560437500,5.8594375,-0.02407018281519413,0.01381168607622385,0.011485414579510689
1757942203570522400,5.8695224609375,-0.023121563717722893,0.007502391003072262,0.011109376326203346
1757942203580607500,5.879607421875,-0.02268161065876484,-0.0012476909905672073,0.008504805155098438
1757942203590692600,5.889692626953125,-0.02154017984867096,-0.0013108078856021166,0.009547166526317596
1757942203600777500,5.899777587890625,-0.024415859952569008,0.00018642126815393567,0.007803328335285187
1757942203610862600,5.909862548828125,-0.027113109827041626,0.0014442323008552194,0.01044518407434225
1757942203620947500,5.919947509765625,-0.030183201655745506,-0.005351622123271227,0.010731207206845284
1757942203631032600,5.930032470703125,-0.026488332077860832,-0.0035843485966324806,0.010846788994967937
1757942203641117400,5.940117431640625,-0.02292395755648613,-0.0013784521725028753,0.005949501879513264
1757942203651201500,5.950201416015625,-0.019052520394325256,0.004935636185109615,0.005510612856596708
1757942203661286400,5.960286376953125,-0.016585635021328926,0.013204485177993774,0.004682635888457298
1757942203671371500,5.97037158203125,-0.011430553160607815,0.017129186540842056,0.001418932224623859
1757942203681456400,5.980456298828125,-0.008027566596865654,0.01787220686674118,-0.0012383698485791683
1757942203691541500,5.99054150390625,0.000922252656891942,0.024647556245326996,-0.007083475589752197
1757942203701626400,6.00062646484375,0.006259227637201548,0.03603336960077286,-0.008892561309039593
1757942203711711500,6.01071142578125,0.015299860388040543,0.04538319259881973,-0.01010749489068985
1757942203721796600,6.020796630859375,0.020242687314748764,0.053280532360076904,-0.014074273407459259
1757942203731880400,6.03088037109375,0.020916201174259186,0.06582748144865036,-0.013609285466372967
1757942203741965600,6.040965576171875,0.02418869361281395,0.06789329648017883,-0.016504675149917603
1757942203752050400,6.051050537109375,0.023853400722146034,0.06325407326221466,-0.023001989349722862
1757942203762135600,6.061135498046875,0.021457355469465256,0.05786782503128052,-0.024229438975453377
1757942203772220400,6.071220458984375,0.026439862325787544,0.059901684522628784,-0.023373765870928764
1757942203782305500,6.081305419921875,0.03296886757016182,0.06753537058830261,-0.01991085708141327
1757942203792390400,6.091390380859375,0.03302159905433655,0.0552896223962307,-0.01774277724325657
1757942203802475500,6.1014755859375,0.03145938739180565,0.037085581570863724,-0.019955331459641457
1757942203812559400,6.111559326171875,0.034940674901008606,0.01660773903131485,-0.012823387049138546
1757942203822644500,6.12164453125,0.028724055737257004,-0.008162322454154491,-0.006382798310369253
1757942203832729300,6.131729248046875,0.02684333175420761,-0.018341191112995148,-0.002558498876169324
1757942203842814500,6.141814453125,0.020002735778689384,-0.02845241315662861,0.005771336145699024
1757942203852899300,6.1518994140625,0.010354369878768921,-0.03961372375488281,0.01618935540318489
1757942203862984400,6.161984375,-0.0008841694798320532,-0.04586895555257797,0.02237827703356743
1757942203873069600,6.172069580078125,-0.0055034225806593895,-0.049921222031116486,0.026766367256641388
1757942203883154400,6.182154541015625,-0.013611149974167347,-0.0524086132645607,0.030475616455078125
1757942203893239600,6.192239501953125,-0.018618158996105194,-0.05922364071011543,0.03422481566667557
1757942203903323400,6.202323486328125,-0.020056266337633133,-0.06433425098657608,0.034922029823064804
1757942203913408500,6.212408447265625,-0.014514227397739887,-0.07153383642435074,0.030191725119948387
1757942203923493400,6.222493408203125,-0.015485482290387154,-0.07715417444705963,0.031319305300712585
1757942203933578500,6.23257861328125,-0.014949122443795204,-0.07577785104513168,0.024339694529771805
1757942203943663400,6.242663330078125,-0.015990950167179108,-0.07453468441963196,0.02099476382136345
1757942203953748500,6.25274853515625,-0.01576964184641838,-0.0689292699098587,0.022248581051826477
1757942203963833300,6.262833251953125,-0.007010505069047213,-0.06506555527448654,0.024231836199760437
1757942203973918500,6.27291845703125,-0.0011166634503751993,-0.0690632238984108,0.025663284584879875
1757942203984002300,6.283002197265625,-0.000222373942960985,-0.07114927470684052,0.021038172766566277
1757942203994087400,6.29308740234375,0.005793706979602575,-0.0584167055785656,0.017345966771245003
1757942204004172300,6.30317236328125,0.0031092404387891293,-0.05246666818857193,0.010423346422612667
1757942204014257400,6.31325732421875,0.007031810469925404,-0.05005864053964615,0.014247645623981953
1757942204024342500,6.323342529296875,0.00965422485023737,-0.0537729486823082,0.013252688571810722
1757942204034427400,6.333427490234375,0.013102485798299313,-0.057012420147657394,0.012074505910277367
1757942204044512500,6.343512451171875,0.01395629532635212,-0.05862363055348396,0.003579554846510291
1757942204054597400,6.353597412109375,0.013852965086698532,-0.05431410297751427,-0.0039017973467707634
1757942204064681500,6.363681396484375,0.011500861495733261,-0.050400588661432266,-0.006294913589954376
1757942204074766300,6.373766357421875,0.008645153604447842,-0.04277089983224869,-0.005124987103044987
1757942204084851500,6.3838515625,0.010059557855129242,-0.0409916415810585,-0.005080512259155512
1757942204094936300,6.393936279296875,0.018877817317843437,-0.03115951642394066,-0.005942577496170998
1757942204105021400,6.404021484375,0.019960658624768257,-0.012142417021095753,-0.006710366811603308
1757942204115106300,6.414106201171875,0.022529011592268944,-0.00056219327962026,0.00018695391190703958
1757942204125191400,6.42419140625,0.01961018703877926,0.004787564743310213,0.00004873584839515388
1757942204135276300,6.4342763671875,0.017043964937329292,0.005992112215608358,0.0004082625964656472
1757942204145360400,6.4443603515625,0.015195198357105255,0.009580722078680992,0.0008410262526012957
1757942204155445200,6.4544453125,0.01245347410440445,0.011711517348885536,0.0035832831636071205
1757942204165530400,6.4645302734375,0.008638229221105576,0.010912302881479263,0.004295678809285164
1757942204175615200,6.474615234375,0.01082681491971016,0.011871573515236378,0.0012157330056652427
1757942204185700400,6.484700439453125,0.012320315465331078,0.014140852726995945,-0.0026581010315567255
1757942204195785500,6.494785400390625,0.01203722134232521,0.008894957602024078,-0.00395719101652503
1757942204205870300,6.504870361328125,0.005788380745798349,0.001231711939908564,-0.0010607370641082525
1757942204215955500,6.51495556640625,-0.0004564658156596124,0.0013486248208209872,-0.00256435782648623
1757942204226039300,6.525039306640625,-0.0075822859071195126,0.0032112395856529474,0.001106809708289802
1757942204236124400,6.53512451171875,-0.011264372617006302,0.0031638352666050196,0.0017808558186516166
1757942204246209300,6.545209228515625,-0.009349559433758259,0.006747385021299124,0.00686056911945343
1757942204256294400,6.55529443359375,-0.01152536179870367,0.005514874123036861,0.01113254576921463
1757942204266379300,6.565379150390625,-0.012870791368186474,0.006967362016439438,0.006453372072428465
1757942204276464400,6.57546435546875,-0.00757988914847374,0.004179831128567457,0.00577905960381031
1757942204286549200,6.58554931640625,-0.0003414172388147563,0.001255680457688868,0.005261607468128204
1757942204296634400,6.59563427734375,0.0038480013608932495,0.004625910893082619,0.0032229574862867594
1757942204306718500,6.605718505859375,0.005979862064123154,0.010089651681482792,-0.000833036785479635
1757942204316803300,6.61580322265625,0.005886917468160391,0.0049042110331356525,-0.004313522018492222
1757942204326888400,6.625888427734375,0.006391054019331932,0.0024956483393907547,-0.003221892286092043
1757942204336973300,6.635973388671875,0.00541314110159874,0.002017078222706914,-0.005620601586997509
1757942204347058400,6.646058349609375,0.0007699198904447258,0.005046423990279436,-0.00025779398856684566
1757942204357143300,6.656143310546875,0.0036392095498740673,0.0000679106087773107,0.0017164073651656508
1757942204367228400,6.666228515625,0.0043771713972091675,0.0021579593885689974,0.0025595640763640404
1757942204377313300,6.676313232421875,-0.0005313006113283336,0.0035246936604380608,0.0006258428329601884
1757942204387397600,6.686397705078125,-0.0005909554311074317,0.001579787116497755,-0.0007752461824566126
1757942204397482500,6.696482421875,-0.0017507621087133884,0.0016016251174733043,-0.001882854849100113
1757942204407567600,6.706567626953125,-0.0004900216590613127,0.0012487561907619238,-0.0015417039394378662
1757942204417652500,6.716652587890625,-0.0009685916593298316,-0.0010460896883159876,-0.0021728731226176023
1757942204427737600,6.726737548828125,-0.005208876915276051,-0.005255215801298618,-0.00014274542627390474
1757942204437822500,6.736822509765625,-0.005815544631332159,-0.020856279879808426,0.0023086944129318
1757942204447907300,6.7469072265625,-0.009324525482952595,-0.030285201966762543,0.003201385959982872
1757942204457992200,6.7569921875,-0.016265522688627243,-0.045099034905433655,0.0007358313887380064
1757942204468076500,6.76707666015625,-0.02322409674525261,-0.06937721371650696,-0.0008450209861621261
1757942204478161400,6.777161376953125,-0.04361485689878464,-0.08717139065265656,-0.005656288005411625
1757942204488246500,6.78724658203125,-0.04907859489321709,-0.09322288632392883,0.0005251753609627485
1757942204498331400,6.797331298828125,-0.0485459640622139,-0.07631660997867584,0.00872078724205494
1757942204508416500,6.80741650390625,-0.037577737122774124,-0.05817009508609772,0.01685195043683052
1757942204518501600,6.817501708984375,-0.02863191068172455,-0.04246729984879494,0.019869046285748482
1757942204528586500,6.82758642578125,-0.021338045597076416,-0.03713831305503845,0.02485554851591587
1757942204538670600,6.837670654296875,-0.014089453965425491,-0.02550855651497841,0.024290692061185837
1757942204548754400,6.84775439453125,-0.008785235695540905,-0.02364913746714592,0.024080568924546242
1757942204558839600,6.857839599609375,-0.005257878918200731,-0.018870893865823746,0.021675467491149902
1757942204568924400,6.86792431640625,0.0010482202051207423,-0.0185832716524601,0.021217403933405876
1757942204579009500,6.878009521484375,0.0051960935816168785,-0.016742493957281113,0.021758291870355606
1757942204589094700,6.8880947265625,0.0051902346312999725,-0.016757940873503685,0.016812801361083984
1757942204599179500,6.898179443359375,0.005387042183429003,-0.007929296232759953,0.012774118222296238
1757942204609264600,6.9082646484375,0.012059859000146389,-0.0029473204631358385,0.012941897846758366
1757942204619349500,6.918349609375,0.015041533857584,0.00027084347675554454,0.009000685065984726
1757942204629433600,6.92843359375,0.015693476423621178,0.0036362800747156143,0.014193316921591759
1757942204639518500,6.9385185546875,0.011669439263641834,0.014848721213638783,0.017496434971690178
1757942204649603600,6.948603515625,0.012230833992362022,0.019096462056040764,0.017252489924430847
1757942204659688400,6.9586884765625,0.016894029453396797,0.010158361867070198,0.009517605416476727
1757942204669773600,6.968773681640625,0.019409917294979095,0.006580937188118696,-0.0025774072855710983
1757942204679858400,6.9788583984375,0.028895031660795212,0.007778560742735863,-0.008324242196977139
1757942204689943600,6.988943603515625,0.028606610372662544,0.01119060255587101,-0.014109959825873375
1757942204700027400,6.99902734375,0.02490215376019478,0.006246977020055056,-0.016566192731261253
1757942204710112500,7.009112548828125,0.029024994000792503,-0.0011262508342042565,-0.016709471121430397
1757942204720197400,7.019197265625,0.030594127252697945,-0.005076784174889326,-0.014257232658565044
1757942204730282500,7.029282470703125,0.029515014961361885,-0.005897836294025183,-0.015237808227539062
1757942204740367600,7.03936767578125,0.02497752197086811,-0.012106730602681637,-0.01498427614569664
1757942204750452500,7.049452392578125,0.024115456268191338,-0.016353139653801918,-0.01441382709890604
1757942204760537600,7.05953759765625,0.027112310752272606,-0.03946218639612198,-0.015812784433364868
1757942204770622500,7.06962255859375,0.030487600713968277,-0.05873095616698265,-0.021397700533270836
1757942204780706600,7.07970654296875,0.03309989720582962,-0.06948293745517731,-0.020290357992053032
1757942204790791400,7.08979150390625,0.03183542564511299,-0.0684424415230751,-0.015239672735333443
1757942204800876500,7.09987646484375,0.03299523517489433,-0.05534448102116585,-0.01684103161096573
1757942204810961400,7.10996142578125,0.03123115561902523,-0.037032585591077805,-0.013846573419868946
1757942204821046500,7.120046630859375,0.026807378977537155,-0.0309832151979208,-0.011350925080478191
1757942204831131400,7.13013134765625,0.022114889696240425,-0.028144553303718567,-0.012872123159468174
1757942204841216500,7.140216552734375,0.014329404570162296,-0.029209284111857414,-0.02250237949192524
1757942204851301400,7.15030126953125,0.011684352532029152,-0.025603896006941795,-0.025539714843034744
1757942204861385500,7.160385498046875,0.010483001358807087,-0.016105467453598976,-0.02677115984261036
1757942204871470300,7.17047021484375,0.005798766855150461,-0.006333263125270605,-0.02737969346344471
1757942204881555500,7.180555419921875,-0.001401355373673141,-0.001421861699782312,-0.03214675188064575
1757942204891640300,7.190640380859375,0.002299106912687421,-0.001374723738990724,-0.02714639902114868
1757942204901725400,7.200725341796875,0.007031810469925404,-0.0001323590986430645,-0.026692064478993416
1757942204911810600,7.210810546875,0.01401595026254654,0.010321613401174545,-0.025737321004271507
1757942204921895400,7.2208955078125,0.021389178931713104,0.015510249882936478,-0.020050939172506332
1757942204931980500,7.23098046875,0.019341740757226944,0.023430490866303444,-0.01330169104039669
1757942204942064600,7.241064697265625,0.019665047526359558,0.025059014558792114,-0.012239355593919754
1757942204952149500,7.2511494140625,0.009109076112508774,0.018612300977110863,-0.01224707905203104
1757942204962234600,7.261234619140625,0.003011502558365464,0.008320247754454613,-0.009891512803733349
1757942204972319500,7.271319580078125,-0.0002205097407568246,0.003492469433695078,-0.010832673870027065
1757942204982404400,7.281404296875,-0.006514624692499638,-0.00018136126163881272,-0.006102633662521839
1757942204992489500,7.291489501953125,-0.00929443258792162,0.0004799016169272363,0.000007456851108145202
1757942205002574300,7.30157421875,-0.009329053573310375,0.005742840468883514,-0.0019198728259652853
1757942205012659500,7.311659423828125,-0.0027449200861155987,0.0068389978259801865,0.004192348103970289
1757942205022743600,7.32174365234375,0.00007084008393576369,0.0012314456980675459,0.004959871061146259
1757942205032828700,7.33182861328125,0.0023995081428438425,-0.00689199473708868,0.0016626114957034588
1757942205042913500,7.34191357421875,0.0031278827227652073,-0.012836703099310398,0.005323659162968397
1757942205052998700,7.35199853515625,0.005826730281114578,-0.019117502495646477,0.003081277245655656
1757942205063083800,7.362083740234375,0.006105296779423952,-0.026614300906658173,-0.00021758026559837162
1757942205073168600,7.372168701171875,0.004606469534337521,-0.03182610496878624,-0.0018397116800770164
1757942205083253500,7.38225341796875,0.005373992491513491,-0.026394322514533997,-0.0008495483780279756
1757942205093337600,7.392337646484375,0.004176901653409004,-0.02521613985300064,-0.0014152037911117077
1757942205103422700,7.402422607421875,0.003379285102710128,-0.02749500796198845,-0.005060805007815361
1757942205113507600,7.412507568359375,0.0051652006804943085,-0.02467418648302555,-0.0008644621120765805
1757942205123592700,7.4225927734375,0.0017598168924450874,-0.022277342155575752,0.0013643373968079686
1757942205133677600,7.432677490234375,-0.0010346380295231938,-0.026375148445367813,0.00008788431296125054
1757942205143762700,7.4427626953125,-0.0013816480059176683,-0.026427345350384712,0.0011435613268986344
1757942205153847600,7.45284765625,-0.0054570832289755344,-0.02280304953455925,-0.001654355670325458
1757942205163932700,7.4629326171875,-0.0038005972746759653,-0.020189424976706505,0.003439738880842924
1757942205174016500,7.4730166015625,-0.0016293219523504376,-0.01613502763211727,0.0012298477813601494
1757942205184101600,7.4831015625,-0.0021973741240799427,-0.009433981962502003,0.002628007438033819
1757942205194186500,7.4931865234375,0.002544117858633399,-0.015357384458184242,0.009097091853618622
1757942205204271600,7.503271728515625,0.0015238607302308083,-0.014395717531442642,0.010008691810071468
1757942205214356700,7.513356689453125,0.001073786523193121,-0.015018364414572716,0.007730624172836542
1757942205224441600,7.523441650390625,-0.0022927154786884785,-0.02081872895359993,0.0076001291163265705
1757942205234526700,7.533526611328125,-0.0012319782981649041,-0.016884706914424896,0.002689260058104992
1757942205244610600,7.543610595703125,-0.00009614011651137844,-0.019108712673187256,0.0020599551498889923
1757942205254695700,7.55369580078125,0.0014966964954510331,-0.01756674237549305,0.003907123580574989
1757942205264780500,7.563780517578125,0.003366768127307296,-0.016113989055156708,0.00851519126445055
1757942205274865700,7.57386572265625,0.004189152270555496,-0.021271999925374985,0.006127667147666216
1757942205284950500,7.583950439453125,0.008774849586188793,-0.035465314984321594,0.003549461020156741
1757942205295035600,7.59403564453125,0.014976019971072674,-0.05486537888646126,-0.005486644338816404
1757942205305120500,7.60412060546875,0.02220969833433628,-0.0634428858757019,-0.011378621682524681
1757942205315205600,7.61420556640625,0.028747491538524628,-0.05958210304379463,-0.012402873486280441
1757942205325289500,7.62428955078125,0.03176458552479744,-0.05608430877327919,-0.007996673695743084
1757942205335374600,7.63437451171875,0.030773358419537544,-0.050584081560373306,-0.007107177749276161
1757942205345459500,7.64445947265625,0.020975856110453606,-0.041851840913295746,-0.0055817193351686
1757942205355544600,7.654544677734375,0.01570199802517891,-0.03748372569680214,-0.005243497900664806
1757942205365629400,7.66462939453125,0.011808189563453197,-0.02429841458797455,0.00047617321251891553
1757942205375714600,7.674714599609375,0.008430236019194126,-0.008732505142688751,0.00935302209109068
1757942205385799700,7.684799560546875,0.006474677007645369,-0.0009432916413061321,0.013964018784463406
1757942205395883500,7.694883544921875,0.0031529164407402277,-0.0046506780199706554,0.013778130523860455
1757942205405968400,7.704968505859375,-0.006112487055361271,-0.003979827743023634,0.010912569239735603
1757942205416053500,7.715053466796875,-0.003819771809503436,0.00012623383372556418,0.0064776064828038216
1757942205426138600,7.725138671875,-0.002776611829176545,0.0017267935909330845,0.005939648021012545
1757942205436223500,7.735223388671875,-0.00112465291749686,0.003176884725689888,0.005426723510026932
1757942205446308600,7.74530859375,-0.0023411849979311228,0.004915129859000444,0.008719189092516899
1757942205456393500,7.7553935546875,0.00011132013605674729,0.003955593332648277,0.009046758525073528
1757942205466478600,7.765478515625,-0.0009598032338544726,0.014306501485407352,0.009254750795662403
1757942205476562400,7.7755625,-0.0011166634503751993,0.015165370889008045,0.005810484755784273
1757942205486647600,7.7856474609375,-0.005776662845164537,0.007864048704504967,0.00535428524017334
1757942205496732400,7.795732421875,-0.00993119366466999,0.003004844533279538,0.00672235107049346
1757942205506817500,7.805817626953125,-0.01088673621416092,0.007901598699390888,0.005388906225562096
1757942205516902400,7.81590234375,-0.015410115011036396,0.009031844325363636,0.00900015328079462
1757942205526987500,7.825987548828125,-0.005365736782550812,0.013821273110806942,0.015359781682491302
1757942205537072600,7.83607275390625,0.0007219829712994397,0.01410623174160719,0.015414110384881496
1757942205547157800,7.84615771484375,0.005815278738737106,0.008986038155853748,0.011433483101427555
1757942205557241900,7.856241943359375,0.006085323169827461,0.008694421499967575,0.009279252029955387
1757942205567326700,7.86632666015625,0.009972472675144672,0.009845706634223461,0.00015153386630117893
1757942205577411800,7.876411865234375,0.015989618375897408,0.011726164259016514,-0.0022535668686032295
1757942205587496700,7.88649658203125,0.022366823628544807,0.010244381614029408,-0.0006202502408996224
1757942205597581800,7.896581787109375,0.023186013102531433,0.002523078816011548,0.0042706448584795
1757942205607666700,7.906666748046875,0.02124669961631298,-0.0031396006233990192,0.008040083572268486
1757942205617751800,7.916751708984375,0.020202206447720528,-0.004307130351662636,0.00415399856865406
1757942205627835600,7.926835693359375,0.01853213831782341,-0.0075971996411681175,0.006685333326458931
1757942205637920800,7.936920654296875,0.01900804601609707,-0.006460029631853104,0.009503490291535854
1757942205648005600,7.947005615234375,0.016404006630182266,-0.009644105099141598,0.009224390611052513
1757942205658090800,7.9570908203125,0.010318683460354805,-0.014858308248221874,0.009702161885797977
1757942205668176000,7.96717578125,0.006164951715618372,-0.01750549115240574,0.008196410723030567
1757942205678260700,7.9772607421875,0.004877579398453236,-0.018339060246944427,0.010924287140369415
1757942205688345900,7.987345947265625,0.0027212179265916348,-0.021162277087569237,0.009458216838538647
1757942205698429700,7.9974296875,-0.004276504274457693,-0.019634688273072243,0.011787683703005314
1757942205708514800,8.007514892578126,-0.005536445416510105,-0.012022840790450573,0.011462245136499405
1757942205718599700,8.017599609375,-0.008039018139243126,-0.00777749577537179,0.013171195983886719
1757942205728684800,8.027684814453124,-0.011186075396835804,-0.005335110705345869,0.018390191718935966
1757942205738769700,8.037769775390625,-0.011218033730983734,-0.0016253271605819464,0.01836489327251911
1757942205748854800,8.047854736328125,-0.013133645057678223,-0.004751611966639757,0.02010020799934864
1757942205758939600,8.057939697265626,-0.011843076907098293,-0.007434213999658823,0.0195502657443285
1757942205769024800,8.068024658203125,-0.011606322601437569,-0.0007555388147011399,0.019146263599395752
1757942205779108900,8.07810888671875,-0.007938350550830364,0.007435545790940523,0.016165386885404587
1757942205789194000,8.088194091796876,-0.001336107961833477,0.00686083547770977,0.016759006306529045
1757942205799278800,8.09827880859375,0.003772101365029812,-0.0026458504144102335,0.01840856857597828
1757942205809364000,8.108364013671874,0.002691923175007105,-0.006515157409012318,0.01882721669971943
1757942205819448800,8.11844873046875,0.005008074454963207,0.003308444982394576,0.01944746822118759
1757942205829533700,8.12853369140625,0.0054823835380375385,0.010660367086529732,0.019244002178311348
1757942205839618800,8.138618896484376,0.006515157409012318,0.013936854898929596,0.02022271417081356
1757942205849703000,8.148702880859375,0.009198558516800404,0.011743208393454552,0.023432621732354164
1757942205859788000,8.1587880859375,0.014799718745052814,0.010701912455260754,0.021818745881319046
1757942205869873000,8.168872802734375,0.012693158350884914,0.002683933824300766,0.019028285518288612
1757942205879958000,8.1789580078125,0.017418671399354935,0.001330249011516571,0.014300642535090446
1757942205890043000,8.18904296875,0.017582455649971962,-0.0022213426418602467,0.013916614465415478
1757942205900128000,8.1991279296875,0.019292205572128296,0.0021552962716668844,0.013460947200655937
1757942205910212900,8.209212890625,0.014544853940606117,0.00535508431494236,0.016153935343027115
1757942205920297000,8.219296875,0.012802081182599068,-0.002734533743932843,0.01895478181540966
1757942205930381800,8.2293818359375,0.015595737844705582,-0.01188329141587019,0.018628278747200966
1757942205940467000,8.239467041015626,0.017239972949028015,-0.019271697849035263,0.01477308664470911
1757942205950551800,8.2495517578125,0.02448723278939724,-0.015895076096057892,0.005321261938661337
1757942205960637000,8.259636962890625,0.028261998668313026,-0.007981494069099426,0.0004087952256668359
1757942205970721800,8.2697216796875,0.030919566750526428,-0.001770469476468861,0.0054392400197684765
1757942205980807000,8.279806884765625,0.030101709067821503,0.002198439557105303,0.008079764433205128
1757942205990892000,8.28989208984375,0.025793246924877167,0.001844771672040224,0.000592020689509809
1757942206000976000,8.299975830078125,0.021021928638219833,0.0041369544342160225,0.0022237394005060196
1757942206011061000,8.31006103515625,0.016442090272903442,0.00839508231729269,0.003980893176048994
1757942206021145900,8.320145751953126,0.013911021873354912,0.011749067343771458,0.004547081422060728
1757942206031231000,8.33023095703125,0.011006312444806099,0.014342187903821468,0.012457734905183315
1757942206041315800,8.34031591796875,0.0023901870008558035,0.015935556963086128,0.015379754826426506
1757942206051401000,8.35040087890625,-0.0059244679287076,0.018124409019947052,0.017600299790501595
1757942206061485800,8.36048583984375,-0.008110923692584038,0.025431323796510696,0.01648683100938797
1757942206071570000,8.37056982421875,-0.010556237772107124,0.020375313237309456,0.016932377591729164
1757942206081654800,8.38065478515625,-0.010308297351002693,0.01860138028860092,0.01575605943799019
1757942206091740000,8.390739990234374,-0.009284045547246933,0.02105548419058323,0.010030529461801052
1757942206101824800,8.40082470703125,-0.011202320456504822,0.020172113552689552,0.006331665441393852
1757942206111910000,8.410909912109375,-0.010880078189074993,0.021811556071043015,0.004472246393561363
1757942206121994800,8.420994873046874,-0.015238873660564423,0.012347746640443802,0.005200620740652084
1757942206132079900,8.431079833984375,-0.017345434054732323,0.01600772887468338,0.010517089627683163
1757942206142163700,8.441163818359374,-0.014649782329797745,0.019002186134457588,0.012430571019649506
1757942206152248800,8.451248779296876,-0.018739333376288414,0.018634937703609467,0.015247662551701069
1757942206162333700,8.461333740234375,-0.01677897945046425,0.01122309360653162,0.01387214008718729
1757942206172418800,8.471418701171874,-0.012045477516949177,0.00933091714978218,0.01248383428901434
1757942206182504000,8.48150390625,-0.004287955816835165,0.007333812769502401,0.009557019919157028
1757942206192588800,8.4915888671875,0.004553738981485367,0.00649678148329258,0.005904494319111109
1757942206202674000,8.501673828125,0.007099987473338842,0.006725813262164593,0.0057223341427743435
1757942206212757800,8.5117578125,0.009446498937904835,0.0012964267516508698,0.0044381581246852875
1757942206222843000,8.5218427734375,0.010364490561187267,-0.003614175831899047,0.00427117757499218
1757942206232927700,8.531927734375,0.01158368494361639,0.0008902947301976383,0.0018359832465648651
1757942206243012900,8.542012939453125,0.012772520072758198,0.0013483584625646472,0.00007936220208648592
1757942206253097700,8.55209765625,0.011112838052213192,-0.0034844798501580954,0.004563326481729746
1757942206263182800,8.562182861328125,0.005882923025637865,-0.007270429749041796,0.0022053637076169252
1757942206273267700,8.572267822265625,0.004749215207993984,-0.011725098825991154,0.0027571707032620907
1757942206283352800,8.582352783203126,0.0015326491557061672,-0.010674215853214264,-0.0032325449865311384
1757942206293436700,8.592436767578125,-0.005075186025351286,-0.011189271695911884,-0.0017441042000427842
1757942206303521800,8.602521728515624,-0.010934140533208847,-0.01064944826066494,-0.0027417242527008057
1757942206313606700,8.612606689453125,-0.011472098529338837,-0.008290686644613743,-0.008298942819237709
1757942206323691800,8.62269189453125,-0.010807906277477741,-0.0002181128947995603,-0.005483448505401611
1757942206333777000,8.63277685546875,-0.007977498695254326,-0.0009456885163672268,-0.00791571382433176
1757942206343861800,8.64286181640625,-0.01010935939848423,-0.0029060414526611567,-0.007158843334764242
1757942206353947000,8.65294677734375,-0.009943976998329163,-0.00012357067316770554,-0.006646451074630022
1757942206364030700,8.66303076171875,-0.011871573515236378,0.00239205127581954,-0.009939982555806637
1757942206374115800,8.67311572265625,-0.015265772119164467,0.003251453395932913,-0.0036495958920568228
1757942206384200700,8.68320068359375,-0.014377607963979244,0.003367567202076316,-0.006081594619899988
1757942206394285800,8.693285888671875,-0.015246330760419369,0.0025121597573161125,-0.007567638531327248
1757942206404370700,8.70337060546875,-0.02047118730843067,-0.004009388852864504,-0.004614725708961487
1757942206414455800,8.713455810546876,-0.018094316124916077,0.0015414375811815262,-0.005881058517843485
1757942206424540700,8.723540771484375,-0.014315555803477764,0.004147340543568134,-0.0026642263401299715
1757942206434625000,8.733625,-0.008581504225730896,0.006845655385404825,-0.0033164345659315586
1757942206444710000,8.7437099609375,-0.00487305223941803,0.014118216000497341,-0.010794058442115784
1757942206454795000,8.753794921875,-0.004085821565240622,0.018432270735502243,-0.013912353664636612
1757942206464879900,8.7638798828125,-0.00022530343267135322,0.009584450162947178,-0.013197028078138828
1757942206474964700,8.77396484375,-0.0022005699574947357,0.004354534670710564,-0.010493121109902859
1757942206485049600,8.784049560546874,0.0015094797126948833,0.007154848426580429,-0.007738080807030201
1757942206495134700,8.794134765625,0.009828928858041763,0.015274027362465858,-0.011648399755358696
1757942206505218800,8.80421875,0.009584183804690838,0.0055092815309762955,-0.00845793355256319
1757942206515304000,8.814303955078126,0.011945875361561775,-0.002543851500377059,-0.0056861150078475475
1757942206525388800,8.824388916015625,0.010388459078967571,0.003683418035507202,-0.008725580759346485
1757942206535474000,8.834473876953124,0.01625327207148075,0.007681355345994234,-0.00509755639359355
1757942206545558800,8.844558837890625,0.019709521904587746,0.0038397456519305706,-0.0030543794855475426
1757942206555644000,8.854643798828125,0.024940503761172295,-0.005997172556817532,-0.003591272747144103
1757942206565729000,8.86472900390625,0.028546422719955444,-0.004803809802979231,-0.009387909434735775
1757942206575812900,8.874812744140625,0.03255181759595871,0.006907707080245018,-0.009437177330255508
1757942206585897700,8.884897705078124,0.03069745935499668,0.006593187805265188,-0.006822219584137201
1757942206595982800,8.89498291015625,0.026582075282931328,0.0033475933596491814,-0.000031957933970261365
1757942206606068000,8.90506787109375,0.019931629300117493,-0.002931075170636177,0.0012636699248105288
1757942206616152800,8.91515283203125,0.02165576070547104,-0.00072597770486027,0.002401106059551239
1757942206626238000,8.925238037109375,0.02382969856262207,-0.00731304008513689,0.0019800602458417416
1757942206636322800,8.93532275390625,0.02551734447479248,-0.020783575251698494,-0.0046940878964960575
1757942206646407000,8.945406982421876,0.026703782379627228,-0.02305098995566368,-0.008237423375248909
1757942206656491800,8.95549169921875,0.023556191474199295,-0.024296285584568977,-0.006446714047342539
1757942206666577000,8.965576904296874,0.021731659770011902,-0.022899456322193146,-0.008082959800958633
1757942206676661800,8.975661865234375,0.020075174048542976,-0.016954215243458748,-0.006549512036144733
1757942206686747000,8.985746826171875,0.0270710326731205,-0.003177683800458908,-0.0052237906493246555
1757942206696831700,8.995831787109376,0.02497592382133007,-0.0007731156656518579,-0.0034083134960383177
1757942206706916900,9.005916748046875,0.022910907864570618,-0.005623531062155962,-0.002865028567612171
1757942206717000700,9.016000732421874,0.016079101711511612,-0.0076275598257780075,-0.004086087923496962
1757942206727085800,9.0260859375,0.010477674193680286,-0.006473345682024956,-0.0035430695861577988
1757942206737170700,9.036170654296875,0.009645170532166958,-0.004327636677771807,-0.0007334345718845725
1757942206747255800,9.046255859375,0.0073351445607841015,-0.0062698801048099995,0.0041468082927167416
1757942206757341000,9.0563408203125,0.004777710884809494,-0.01196957752108574,0.004507666453719139
1757942206767425800,9.06642578125,0.004709533881396055,-0.012893161736428738,-0.00006631271389778703
1757942206777511000,9.076510986328126,0.0016871124971657991,-0.011500595137476921,-0.005426190793514252
1757942206787594800,9.0865947265625,0.005250688176602125,-0.003907389938831329,-0.009858756326138973
1757942206797679900,9.096679931640624,0.005447762086987495,-0.0002711098059080541,-0.00908723846077919
1757942206807764700,9.1067646484375,0.003585147438570857,-0.000054861116950633004,-0.007832623086869717
1757942206817849900,9.116849853515625,0.00210682675242424,-0.0023664848413318396,-0.009541839361190796
1757942206827934700,9.126934814453126,-0.0006684534018859267,-0.0007957525085657835,-0.007425425574183464
1757942206838019800,9.137019775390625,-0.002585396869108081,-0.0014503574930131435,-0.004728708881884813
1757942206848104700,9.147104736328124,-0.003335609333589673,-0.0006002765148878098,-0.005101817660033703
1757942206858188800,9.157188720703125,0.0016764599131420255,0.00407543545588851,-0.00794234499335289
1757942206868273700,9.167273681640625,0.0017603494925424457,0.002927346620708704,-0.005787048954516649
1757942206878358800,9.17735888671875,0.011025752872228622,0.008048072457313538,-0.0073569826781749725
1757942206888443600,9.187443603515625,0.012731773778796196,0.003888747887685895,-0.010844658128917217
1757942206898528800,9.19752880859375,0.01624714583158493,0.005814746022224426,-0.010233462788164616
1757942206908613600,9.207613525390625,0.019781960174441338,0.012254535220563412,-0.009722935035824776
1757942206918698800,9.21769873046875,0.015195198357105255,0.011597800068557262,-0.006258694920688868
1757942206928782600,9.227782470703126,0.016270317137241364,0.01489079836755991,-0.008904545567929745
1757942206938867700,9.23786767578125,0.016760604456067085,0.015397598035633564,-0.006426207721233368
1757942206948952600,9.24795263671875,0.018749719485640526,0.014099573716521263,-0.005139368120580912
1757942206959037700,9.25803759765625,0.017665013670921326,0.013677462935447693,-0.006201969459652901
1757942206969122800,9.268122802734375,0.0199835617095232,0.016379239037632942,-0.007012635935097933
1757942206979207700,9.278207763671874,0.015367504209280014,0.012062521651387215,-0.007006244268268347
1757942206989292800,9.288292724609375,0.014637266285717487,0.01678883284330368,-0.002740126335993409
1757942206999377000,9.298376953125,0.012553608976304531,0.01501064095646143,-0.005358280148357153
1757942207009461800,9.308461669921876,0.011375159956514835,0.014900919049978256,-0.00475480780005455
1757942207019546600,9.318546630859375,0.00765845226123929,0.012753079645335674,-0.006009689066559076
1757942207029631700,9.3286318359375,0.004006992094218731,0.0111621068790555,-0.0034386736806482077
1757942207039716600,9.338716552734375,0.0018034926615655422,0.013117932714521885,-0.00589623861014843
1757942207049801700,9.3488017578125,0.004369182046502829,0.01392779964953661,-0.007822769694030285
1757942207059886600,9.358886474609376,0.003534547286108136,0.014007960446178913,-0.005886118393391371
1757942207069971000,9.368970947265625,0.00370072852820158,0.007244597189128399,-0.004299673717468977
1757942207080055800,9.379055908203124,0.00256435782648623,0.0049617355689406395,-0.006371080409735441
1757942207090141000,9.389140869140626,0.006347644608467817,0.009620136581361294,-0.006302903406322002
1757942207100225800,9.399225830078125,0.0035539884120225906,0.00711836339905858,-0.009721070528030396
1757942207110311000,9.409310791015624,0.003581685246899724,0.003621100215241313,-0.010918693616986275
1757942207120395800,9.419395751953125,0.000046871635277057067,0.007891478948295116,-0.011011372320353985
1757942207130479900,9.42947998046875,0.0027025758754462004,0.002722017001360655,-0.010243049822747707
1757942207140564700,9.439564697265626,0.005918608978390694,-0.0027334685437381268,-0.015156049281358719
1757942207150649900,9.44964990234375,0.009046225808560848,-0.006555637344717979,-0.012562929652631283
1757942207160735000,9.45973486328125,0.00603472301736474,-0.005432582460343838,-0.01455737091600895
1757942207170819800,9.46981982421875,0.005905027035623789,-0.003856257302686572,-0.013349627144634724
1757942207180905000,9.479905029296875,0.007256847806274891,0.004215517546981573,-0.01384231261909008
1757942207190989800,9.48998974609375,0.011777563951909542,0.0036658411845564842,-0.010119212791323662
1757942207201074000,9.500073974609375,0.006852047052234411,0.002359827049076557,-0.012952283956110477
1757942207211158800,9.51015869140625,0.009761550463736057,0.0015523566398769617,-0.01619068719446659
1757942207221244000,9.520243896484375,0.007335943635553122,0.002620816696435213,-0.018743326887488365
1757942207231328800,9.530328857421875,0.00615136930719018,0.0002466087171342224,-0.021750036627054214
1757942207241414000,9.540413818359376,0.008066981099545956,0.005696501582860947,-0.022221682593226433
1757942207251498800,9.550498779296875,0.011155182495713234,0.007600928191095591,-0.027056651189923286
1757942207261584000,9.560583984375,0.013991715386509895,0.00663393409922719,-0.03146524727344513
1757942207271667700,9.570667724609375,0.016828248277306557,0.006813697516918182,-0.03190333768725395
1757942207281752800,9.5807529296875,0.017947042360901833,0.011364241130650043,-0.029711555689573288
1757942207291837700,9.590837646484376,0.008682703599333763,0.018808308988809586,-0.02599751204252243
1757942207301922800,9.6009228515625,0.006037918850779533,0.01890578120946884,-0.018734805285930634
1757942207312008000,9.611008056640625,0.0044440170750021935,0.025410551577806473,-0.0188386682420969
1757942207322092800,9.6210927734375,0.004007791168987751,0.027032682672142982,-0.015627695247530937
1757942207332178000,9.631177978515625,0.002344380598515272,0.023900005966424942,-0.019295133650302887
1757942207342261800,9.64126171875,0.0057316552847623825,0.02569790557026863,-0.021566012874245644
1757942207352347000,9.651346923828125,0.004477306269109249,0.027285683900117874,-0.019508453086018562
1757942207362431700,9.661431640625,0.0006498112925328314,0.03365889564156532,-0.017533719539642334
1757942207372516900,9.671516845703126,0.00021145498612895608,0.035481296479701996,-0.021613948047161102
1757942207382601700,9.681601806640625,0.0008274441352114081,0.03785523772239685,-0.018213624134659767
1757942207392686800,9.691686767578124,0.003312173532322049,0.03663657605648041,-0.014992531388998032
1757942207402771700,9.701771728515626,0.004942560568451881,0.03917589783668518,-0.011331750079989433
1757942207412855800,9.711855712890625,0.0062515041790902615,0.04199511930346489,-0.009916014038026333
1757942207422940700,9.721940673828126,0.00609437795355916,0.04409076273441315,-0.0038312235847115517
1757942207433025800,9.73202587890625,0.00464694993570447,0.04306784272193909,0.00008362325752386823
1757942207443110700,9.742110595703124,0.001996571896597743,0.038782548159360886,0.001181111903861165
1757942207453195800,9.75219580078125,-0.0016740630380809307,0.03681846708059311,-0.0031273500062525272
1757942207463280600,9.76228076171875,-0.004125769250094891,0.03833300620317459,-0.0005470133037306368
1757942207473365800,9.77236572265625,0.00012916330888401717,0.030399451032280922,0.0015052186790853739
1757942207483449600,9.78244970703125,-0.0003009371866937727,0.026680612936615944,0.0017366473330184817
1757942207493534700,9.79253466796875,-0.0034205641131848097,0.02050767093896866,0.004874916281551123
1757942207503619800,9.802619873046876,-0.0054938350804150105,0.022295985370874405,0.004564391914755106
1757942207513704700,9.81270458984375,-0.0054357778280973434,0.01570119895040989,0.0027744811959564686
1757942207523789800,9.822789794921874,-0.008621984161436558,0.011117366142570972,0.005200620740652084
1757942207533874700,9.832874755859375,-0.013519536703824997,0.00869095977395773,0.007186539936810732
1757942207543959300,9.842959228515625,-0.016324112191796303,0.009969810023903847,0.016765663400292397
1757942207554044400,9.85304443359375,-0.020167319104075432,0.0021547635551542044,0.01537469495087862
1757942207564129300,9.86312939453125,-0.020922591909766197,-0.0017510283505544066,0.015786686912178993
1757942207574214400,9.87321435546875,-0.023726368322968483,0.0001752359967213124,0.013598100282251835
1757942207584299300,9.88329931640625,-0.02600204013288021,-0.005879194475710392,0.014554974623024464
1757942207594384400,9.89338427734375,-0.02612001821398735,-0.006744721904397011,0.014888934791088104
1757942207604469500,9.903469482421874,-0.027273433282971382,-0.008329568430781364,0.01500957552343607
1757942207614553300,9.91355322265625,-0.027470506727695465,-0.008726646192371845,0.011640410870313644
1757942207624638200,9.92363818359375,-0.03135579079389572,-0.01101296953856945,0.009160741232335567
1757942207634723300,9.933723388671876,-0.03304876387119293,-0.003531884169206023,0.007125553674995899
1757942207644808400,9.943808349609375,-0.03407567739486694,-0.00001651159800530877,0.008627310395240784
1757942207654893300,9.953893310546874,-0.03298724442720413,0.0012096078135073185,0.009224656969308853
1757942207664978400,9.963978515625,-0.03169667720794678,0.0086054727435112,0.008814264088869095
1757942207675062500,9.9740625,-0.025318406522274017,0.003608583239838481,0.008356999605894089
1757942207685147600,9.984147705078126,-0.011468636803328991,-0.002159290947020054,0.0049074068665504456
1757942207695232500,9.994232421875,0.010528274811804295,-0.0059843892231583595,-0.012839632108807564
1757942207705317400,10.0043173828125,0.039387088268995285,-0.009311743080615997,-0.03532763198018074
1757942207715402200,10.01440234375,0.09028435498476028,-0.0024567660875618458,-0.06950291246175766
1757942207725487400,10.0244873046875,0.12168356031179428,0.031156588345766068,-0.10438846051692963
1757942207735572200,10.034572265625,0.1511399894952774,0.08863425999879837,-0.12309316545724869
1757942207745656600,10.044656494140625,0.18837150931358337,0.18984264135360718,-0.1584428995847702
1757942207755741400,10.054741455078124,0.26734569668769836,0.3107520043849945,-0.23639176785945892
1757942207765826600,10.06482666015625,0.40288805961608887,0.46305179595947266,-0.3963089883327484
1757942207775911400,10.074911376953125,0.6264375448226929,0.6324748992919922,-0.6401424407958984
1757942207785996500,10.08499658203125,0.9304735660552979,0.7364511489868164,-0.9303228259086609
1757942207796081400,10.095081298828125,1.1759268045425415,0.6685926914215088,-1.2998284101486206
1757942207806166500,10.10516650390625,1.3174492120742798,0.5663971304893494,-1.738070011138916
1757942207816250400,10.11525048828125,1.3594329357147217,0.4010193347930908,-2.111940860748291
1757942207826335500,10.12533544921875,1.410810112953186,0.4549635052680969,-2.4649605751037598
1757942207836420600,10.135420654296874,1.5467990636825562,0.6686049699783325,-2.8564834594726562
1757942207846505500,10.14550537109375,1.679730772972107,0.8429328203201294,-3.3709421157836914
1757942207856590600,10.155590576171875,1.810333251953125,0.9379871487617493,-4.018380165100098
1757942207866675500,10.165675537109376,1.9533802270889282,0.9319202303886414,-4.7482008934021
1757942207876760600,10.175760498046875,2.0762386322021484,0.8285354971885681,-5.492815017700195
1757942207886844400,10.185844482421874,2.1970367431640625,0.9194374680519104,-6.131198883056641
1757942207896929500,10.195929443359375,2.3215153217315674,1.1302695274353027,-6.642487049102783
1757942207907014400,10.206014404296875,2.4548609256744385,1.2479588985443115,-7.10317850112915
1757942207917099500,10.216099609375,2.569524049758911,1.3773616552352905,-7.459355354309082
1757942207927184400,10.226184326171875,2.62668776512146,1.684648871421814,-7.6407880783081055
1757942207937269500,10.23626953125,2.605865478515625,1.8182950019836426,-7.408657550811768
1757942207947353300,10.246353271484375,2.580559492111206,1.9085464477539062,-7.031940937042236
1757942207957438500,10.2564384765625,2.539182186126709,1.5768805742263794,-6.485019683837891
1757942207967523300,10.2665234375,2.499089241027832,1.0716288089752197,-5.890070915222168
1757942207977608400,10.2766083984375,2.47220516204834,0.7661762833595276,-5.3457417488098145
1757942207987693300,10.286693359375,2.4635579586029053,0.9419102668762207,-5.039026737213135
1757942207997778400,10.2967783203125,2.3598744869232178,0.892801821231842,-4.724432945251465
1757942208007863600,10.306863525390625,2.1163904666900635,0.7650353908538818,-4.307555198669434
1757942208017947400,10.316947509765624,1.7663977146148682,0.7435905337333679,-3.8307807445526123
1757942208028032300,10.3270322265625,1.3693561553955078,0.8049782514572144,-3.352850914001465
1757942208038117400,10.337117431640625,0.9259874820709229,0.8312402367591858,-2.9073753356933594
1757942208048202500,10.347202392578126,0.4287257790565491,0.75711989402771,-2.5430915355682373
1757942208058287400,10.357287353515625,-0.033118538558483124,0.6611760854721069,-2.310619831085205
1757942208068372500,10.36737255859375,-0.36803901195526123,0.597658097743988,-2.2327287197113037
1757942208078456300,10.377456298828125,-0.5264113545417786,0.6060689091682434,-2.2001233100891113
1757942208088541400,10.38754150390625,-0.5734632611274719,0.6089780926704407,-2.1154849529266357
1757942208098626300,10.397626220703126,-0.5430899262428284,0.30733489990234375,-2.017552614212036
1757942208108711400,10.40771142578125,-0.5386320352554321,0.08431354910135269,-1.9182791709899902
1757942208118796300,10.41779638671875,-0.4945005476474762,-0.0705263614654541,-1.7838281393051147
1757942208128881400,10.42788134765625,-0.3907981216907501,-0.2880597412586212,-1.5947411060333252
1757942208138966300,10.43796630859375,-0.25023967027664185,-0.4958382546901703,-1.3914103507995605
1757942208149050400,10.44805029296875,-0.10111702978610992,-0.5107340812683105,-1.1848959922790527
1757942208159135200,10.45813525390625,0.03380749747157097,-0.38235563039779663,-0.9594058990478516
1757942208169220400,10.468220458984375,0.15376879274845123,-0.18036098778247833,-0.7220048308372498
1757942208179305200,10.47830517578125,0.2975049316883087,0.23502236604690552,-0.4688417911529541
1757942208189390300,10.488390380859375,0.4696604311466217,0.5556419491767883,-0.1498291790485382
1757942208199475500,10.498475341796874,0.6355087757110596,0.20582373440265656,0.19054092466831207
1757942208209559600,10.5085595703125,0.7523555159568787,-0.49853548407554626,0.4433302879333496
1757942208219644400,10.51864453125,0.7963171005249023,-0.9168896079063416,0.5700738430023193
1757942208229729500,10.5287294921875,0.8097364902496338,-0.9184901714324951,0.6088449358940125
1757942208239814400,10.538814453125,0.8478745818138123,-0.6546036601066589,0.6077711582183838
1757942208249899300,10.548899169921874,0.9148397445678711,-0.32367685437202454,0.6174432635307312
1757942208259984400,10.558984375,1.0149391889572144,-0.12720881402492523,0.6385083198547363
1757942208270069200,10.5690693359375,1.133474588394165,-0.012867595069110394,0.6647199392318726
1757942208280153600,10.579153564453126,1.2312318086624146,0.07862956076860428,0.6794083118438721
1757942208290238500,10.589238525390625,1.278486967086792,0.16869394481182098,0.6841408014297485
1757942208300323600,10.599323486328124,1.2408658266067505,0.21957603096961975,0.6964142322540283
1757942208310408400,10.609408447265626,1.1685476303100586,0.12418559938669205,0.6702763438224792
1757942208320493600,10.61949365234375,1.1075825691223145,0.0385788157582283,0.6438761949539185
1757942208330578400,10.629578369140624,1.088950276374817,-0.032469525933265686,0.6330341696739197
1757942208340662500,10.63966259765625,1.1317888498306274,-0.120845727622509,0.595727264881134
1757942208350747400,10.649747314453125,1.1986267566680908,-0.16126132011413574,0.568906307220459
1757942208360832500,10.65983251953125,1.2127054929733276,-0.09935401380062103,0.5716834664344788
1757942208370917400,10.66991748046875,1.1592642068862915,0.027407655492424965,0.5811592936515808
1757942208381002500,10.68000244140625,1.0633666515350342,0.14971758425235748,0.5728909373283386
1757942208391087600,10.690087646484375,0.920073390007019,0.27100592851638794,0.5611589550971985
1757942208401172500,10.70017236328125,0.7515951991081238,0.37518826127052307,0.522569477558136
1757942208411256300,10.71025634765625,0.6024898290634155,0.3378789722919464,0.4406229257583618
1757942208421341400,10.720341552734375,0.492461621761322,0.13536128401756287,0.3103368282318115
1757942208431426600,10.730426513671874,0.41652077436447144,-0.10201717913150787,0.16284458339214325
1757942208441511400,10.740511474609375,0.34455153346061707,-0.28478673100471497,0.015149125829339027
1757942208451596500,10.750596435546875,0.26444417238235474,-0.4901753067970276,-0.12424977868795395
1757942208461681400,10.760681396484374,0.2062477171421051,-0.6517250537872314,-0.24793896079063416
1757942208471765500,10.770765625,0.14793327450752258,-0.7542077302932739,-0.3277890682220459
1757942208481850400,10.780850341796874,0.10642950236797333,-0.8164676427841187,-0.3565352261066437
1757942208491935500,10.790935546875,0.07944022864103317,-0.7989126443862915,-0.3441928029060364
1757942208502020400,10.801020263671875,0.0803864523768425,-0.7504500150680542,-0.2973177134990692
1757942208512105500,10.81110546875,0.11626002937555313,-0.6663788557052612,-0.21967856585979462
1757942208522190300,10.8211904296875,0.14218883216381073,-0.6299737095832825,-0.09616594761610031
1757942208532275500,10.831275390625,0.21648968756198883,-0.3736225962638855,0.09817902743816376
1757942208542358800,10.84135888671875,0.2485530823469162,-0.1533898264169693,0.17077334225177765
1757942208552443600,10.851443603515625,0.21560819447040558,-0.028813006356358528,0.1957511305809021
1757942208562528800,10.86152880859375,0.15963174402713776,-0.015913719311356544,0.16816264390945435
1757942208572614000,10.87161376953125,0.08144000172615051,0.01817181333899498,0.06917694211006165
1757942208582698800,10.88169873046875,-0.018336929380893707,0.06544585525989532,-0.08296599239110947
1757942208592784000,10.891783935546876,-0.1452442705631256,0.06517234444618225,-0.2809150218963623
1757942208602868000,10.901867919921875,-0.27530479431152344,0.08542275428771973,-0.46455249190330505
