time,seconds_elapsed,z,y,x
1757614513305514200,70.02851416015625,-4.862089026509225,8.469251641437411,0.8956803541582077
1757614513315469300,70.03846923828125,-5.057196295806765,8.386904782140254,0.5049573545843362
1757614513325424400,70.04842431640625,-5.225334017375111,8.297854625812173,0.1089375272439792
1757614513335380200,70.05838012695312,-5.361830400010943,8.206146063929795,-0.2834905774810351
1757614513345335300,70.06833520507813,-5.470259795069694,8.113210590600968,-0.6499482285168021
1757614513355290400,70.07829028320313,-5.562742848455906,8.018077899488807,-0.967839727570489
1757614513365245400,70.08824536132812,-5.653807851737738,7.918309365269541,-1.226863661787659
1757614513375201300,70.098201171875,-5.757662778487801,7.809390725389123,-1.4258867893546818
1757614513385156400,70.10815625,-5.879402321496605,7.690699464035034,-1.5672189215838908
1757614513395111400,70.118111328125,-6.024787528508901,7.559802216580509,-1.6497708019338546
1757614513405067500,70.12806762695313,-6.195757258632779,7.418006558492779,-1.6601634550020097
1757614513415022300,70.13802221679687,-6.372787311708927,7.287169516792893,-1.5668864747591316
1757614513424977400,70.14797729492187,-6.529089634054899,7.193987959748506,-1.3371277249276636
1757614513434933500,70.15793359375,-6.659198361480236,7.128813769048452,-1.002732542579621
1757614513444888300,70.16788842773437,-6.779620976671576,7.054960597330331,-0.6593122691895812
1757614513454843400,70.17784350585937,-6.878896758937835,6.979739644390344,-0.3666391633488237
1757614513464798500,70.18779858398437,-6.929487713012099,6.937849883165955,-0.1372165318702347
1757614513474754300,70.19775439453124,-6.929937210345268,6.938569429612159,0.0508227352698333
1757614513484709400,70.20770947265625,-6.895084508150815,6.9704890009641645,0.2011824975579977
1757614513494664400,70.21766455078125,-6.853613264599442,7.007400973775982,0.3076950626773759
1757614513504620300,70.22762036132812,-6.827922943025827,7.029326974380016,0.372019431615062
1757614513514575400,70.23757543945312,-6.824231687292456,7.031694288033247,0.394372936916165
1757614513524530400,70.24753051757813,-6.835964795184135,7.021507240539789,0.3720428490232676
1757614513534485200,70.2574853515625,-6.849602275392413,7.011480352044105,0.3040996502676047
1757614513544441300,70.26744140625,-6.854048148885369,7.010982923915982,0.196368393540848
1757614513554396400,70.277396484375,-6.84580346763134,7.021494381058216,0.0627366933208657
1757614513564351200,70.28735131835937,-6.827369400796294,7.039253325110674,-0.0795652383551467
1757614513574307300,70.29730737304688,-6.803916629016399,7.059071539780497,-0.2159405062288045
1757614513584262400,70.30726245117188,-6.78069415886104,7.076723516327142,-0.3354769862353801
1757614513594217200,70.31721728515625,-6.761138394519686,7.090291438430548,-0.4302653939545154
1757614513604173300,70.32717333984375,-6.746443514212966,7.100048277813196,-0.4951791801527142
1757614513614128400,70.33712841796876,-6.735760207635164,7.107879117569327,-0.52720575554315
1757614513624083200,70.34708325195312,-6.72696549128294,7.11632195174396,-0.5255905023662373
1757614513634038500,70.35703857421875,-6.71698653358221,7.128052137026191,-0.4933448408650234
1757614513643994400,70.36699438476562,-6.702636521190405,7.145335864782333,-0.434964767284505
1757614513653949200,70.37694921875,-6.68190645237267,7.169169744834304,-0.3542927458643913
1757614513663904500,70.38690454101562,-6.65435910475552,7.198839491432905,-0.258125323143322
1757614513673860400,70.3968603515625,-6.619397096967697,7.234019525885581,-0.1513576964174862
1757614513683815200,70.40681518554688,-6.575053512850404,7.275821024304628,-0.0383144691540393
1757614513693770500,70.4167705078125,-6.518082502350211,7.326553432676196,0.0811415020953863
1757614513703725300,70.42672534179688,-6.444933094987273,7.38838941886425,0.2119816490678116
1757614513713681400,70.43668139648437,-6.35215485804677,7.462702609309554,0.3585990647561848
1757614513723636500,70.44663647460938,-6.240056419086456,7.546701327466964,0.5285854098659009
1757614513733591300,70.45659130859374,-6.111534084069729,7.635316599509119,0.7221780368167906
1757614513743547400,70.46654736328125,-5.974646071767807,7.720768439084291,0.9293483035475016
1757614513753502500,70.47650244140625,-5.838021094316244,7.79788908816576,1.13170875884369
1757614513763457300,70.48645727539062,-5.708454803204536,7.865405458077788,1.3112379352591932
1757614513773413400,70.49641333007813,-5.587992440524697,7.925601860365271,1.4593185188353062
1757614513783368400,70.50636840820313,-5.474506931120157,7.979908035570382,1.587832670545578
1757614513793323300,70.5163232421875,-5.3677586210161445,8.024796394088863,1.720519285634905
1757614513803278300,70.5262783203125,-5.263173041903972,8.056423119974136,1.8877099356114864
1757614513813234400,70.536234375,-5.135749608039856,8.079304229345917,2.125860812343657
1757614513823189200,70.54618920898437,-4.95065782906115,8.097229762136935,2.4690511494353413
1757614513833144300,70.55614428710938,-4.7449289202451705,8.082516761651634,2.885988859783113
1757614513843100400,70.56610034179687,-4.587742800801992,8.036865017545223,3.2452719612807037
1757614513853055200,70.57605517578125,-4.454235663110017,8.034950708356499,3.4307021784335374
1757614513863010300,70.58601025390625,-4.308263303859532,8.100479703843593,3.462873094198108
1757614513872966400,70.59596630859374,-4.136643000872433,8.198259110072255,3.4419708836838603
1757614513882921500,70.60592138671875,-3.931998087900877,8.29731861923933,3.444456855280697
1757614513892876300,70.61587622070313,-3.704416828238964,8.383143968302011,3.4886356042250988
1757614513902831400,70.62583129882813,-3.4830300393030047,8.446951546823978,3.562009175732732
1757614513912787500,70.63578735351562,-3.2922195904165505,8.479379652220011,3.6649461108550425
1757614513922742300,70.6457421875,-3.1337016378477216,8.48303700568378,3.793207456848025
1757614513932697300,70.655697265625,-3.003454086473584,8.470496673062444,3.924328576186299
1757614513942653400,70.6656533203125,-2.8975077404022214,8.455017948901652,4.035776734544337
1757614513952608300,70.67560815429688,-2.8136475539326664,8.446558748114109,4.112101264812052
1757614513962563300,70.68556323242187,-2.753320218741893,8.449195526358485,4.147374530506133
1757614513972518400,70.69551831054687,-2.7217183350369334,8.462180095615983,4.141752598971128
1757614513982474200,70.70547412109374,-2.7243326091885565,8.482871585988997,4.097471558696031
1757614513992429300,70.71542919921875,-2.7658348324000834,8.50860340861678,4.015493532711267
1757614514002384400,70.72538427734375,-2.848791640289128,8.536789638659357,3.8958927552968254
1757614514012340200,70.73534033203126,-2.974370615330338,8.564658473315834,3.737659757149219
1757614514022295300,70.74529541015625,-3.1387501534089446,8.589761350390315,3.540434180523455
1757614514032250400,70.75525048828125,-3.3343487133547662,8.610295019853115,3.303836962974071
1757614514042206200,70.76520629882812,-3.55082259580791,8.625341782337427,3.027460400483012
1757614514052161500,70.77516162109374,-3.775236039088666,8.63430425647199,2.714182094313204
1757614514062116400,70.78511645507812,-3.9950580629259353,8.636199276438354,2.3719093104578555
1757614514072071400,70.79507153320313,-4.20183969566524,8.629006734585762,2.013741476725787
1757614514082027300,70.80502734375,-4.392728470484912,8.61058260462284,1.652921959441155
1757614514091982300,70.814982421875,-4.567523604115843,8.579818633046745,1.3018540208421647
1757614514101937400,70.8249375,-4.726631631532311,8.53758926460445,0.96897815701589
1757614514111893500,70.8348935546875,-4.871825407625734,8.485336514797806,0.6593866496000439
1757614514121848300,70.84484838867188,-5.004262577998638,8.425321898818016,0.3764541991921141
1757614514131803400,70.85480346679688,-5.12427135169208,8.360500759339333,0.1192531056210864
1757614514141759500,70.86475952148437,-5.232978979170322,8.292936458632349,-0.1161197577651124
1757614514151714300,70.87471435546875,-5.333458292007446,8.222825980573893,-0.3312775252515449
1757614514161669400,70.88466943359376,-5.431899377015233,8.148408160710334,-0.5179703827513381
1757614514171624200,70.89462426757812,-5.54376868339479,8.062485781013965,-0.6583085720397531
1757614514181580300,70.90458032226563,-5.687524827900528,7.954722740909457,-0.7381232825107872
1757614514191535400,70.91453540039062,-5.877480413523316,7.814663112834095,-0.7461017140440642
1757614514201490400,70.92449047851562,-6.119988024160266,7.633727284491061,-0.6650573887128383
1757614514211446300,70.9344462890625,-6.403887967893481,7.412423789924382,-0.465341383510828
1757614514221401000,70.94440112304687,-6.696479167604446,7.163405774480104,-0.1147183574014343
1757614514231356400,70.9543564453125,-6.965141794717312,6.89326781411767,0.3742441584598273
1757614514241311200,70.96431127929688,-7.186653963598609,6.605789427375793,0.941252530222386
1757614514251267000,70.97426708984375,-7.340880064192413,6.321780178049206,1.5221690888933836
1757614514261222400,70.98422241210938,-7.407004102963208,6.088895551282167,2.057200240832567
1757614514271177200,70.99417724609376,-7.394397134846448,5.942073589465021,2.4869635304838416
1757614514281133300,71.00413330078125,-7.350180976501107,5.862782026085257,2.788006332197785
1757614514291088400,71.01408837890625,-7.316565122625231,5.807890744468569,2.984414162699878
1757614514301043200,71.02404321289063,-7.318300568115711,5.737732920137048,3.113085258537531
1757614514310999300,71.03399926757812,-7.364674781277776,5.638454799783229,3.184308958534896
1757614514320954400,71.04395434570313,-7.449498259821533,5.525114251807332,3.1856679719284173
1757614514330909200,71.0539091796875,-7.553992068997025,5.424530894073843,3.111605249112844
1757614514340864500,71.06386450195312,-7.656471615740656,5.359321632060408,2.970947362883389
1757614514350820400,71.0738203125,-7.742755229964851,5.33859740846157,2.778399422679841
1757614514360775200,71.08377514648437,-7.805880671441555,5.35915036714673,2.5530615580305454
1757614514370730500,71.09373046875,-7.843210577404498,5.411866058290005,2.316487575226277
1757614514380686300,71.10368627929688,-7.856010437744856,5.48630667450726,2.086616451061517
1757614514390641200,71.11364111328125,-7.848886869475245,5.573316849440336,1.871765785896033
1757614514400596500,71.12359643554687,-7.827182987189293,5.66625992155373,1.673047632624954
1757614514410551300,71.13355126953125,-7.794361498561501,5.761907576450705,1.489542246054858
1757614514420507100,71.14350708007812,-7.75210231950283,5.859599304395914,1.3192203123152255
1757614514430462500,71.15346240234375,-7.701122658371925,5.959601062849163,1.160271055657044
1757614514440417300,71.16341723632813,-7.641948000347614,6.06180997595787,1.0126558245703576
1757614514450373400,71.17337329101562,-7.575391999900341,6.165177995973825,0.8799943439222871
1757614514460328400,71.18332836914063,-7.502558234357833,6.268320975062251,0.7682016099102794
1757614514470283300,71.193283203125,-7.423980372205376,6.370572558268904,0.6860553146865218
1757614514480239400,71.2032392578125,-7.338372465285659,6.473591618716716,0.6413459659967571
1757614514490194400,71.2131943359375,-7.241243047398329,6.582416735094785,0.6376636972874402
1757614514500149200,71.22314916992187,-7.12564624492824,6.703970984664559,0.6725375884003937
1757614514510104300,71.23310424804687,-6.985244087025523,6.842880858182907,0.742773154143244
1757614514520060400,71.24306030273438,-6.819124719542264,6.996427744340896,0.8485027887240052
1757614514530015200,71.25301513671874,-6.63377107475698,7.154532147672772,0.988010189744085
1757614514539970300,71.26297021484375,-6.442530710020661,7.303234516409039,1.1519367964234202
1757614514549926400,71.27292651367188,-6.262516088175773,7.429757202041149,1.3228610069051383
1757614514559881200,71.28288110351562,-6.108280050709843,7.528118207550048,1.4787553329721093
1757614514569836300,71.29283618164062,-5.983864566490054,7.6023115710079665,1.6026850795015692
1757614514579791400,71.30279125976563,-5.884768232443928,7.659738508582115,1.6935921157427132
1757614514589747200,71.31274731445312,-5.801986488860845,7.70627872596085,1.7665147286124527
1757614514599702300,71.32270239257812,-5.721365722703934,7.747896684506535,1.8456598692588504
1757614514609657300,71.3326572265625,-5.616714677140116,7.795410130831598,1.9632871546432376
1757614514619613400,71.34261352539062,-5.452872606939077,7.860431176796555,2.156420493519306
1757614514629568300,71.352568359375,-5.242004581668973,7.924776515457034,2.426861820742488
1757614514639523300,71.3625234375,-5.043900760903954,7.964896344399452,2.699982304047048
1757614514649478100,71.37247802734375,-4.872091949607432,8.008453746575116,2.880589338827133
1757614514659434200,71.38243432617188,-4.714422722822428,8.076559899073839,2.9519159146770835
1757614514669389300,71.39238940429688,-4.555858885285258,8.161374025267362,2.9675837316691878
1757614514679344400,71.40234448242188,-4.384324799276888,8.246313239145278,2.9910581307590007
1757614514689300200,71.41230029296875,-4.198494476890564,8.319428744238614,3.054525809802114
1757614514699255300,71.42225537109375,-4.016154334707558,8.37042594102621,3.158615129829943
1757614514709210400,71.43221044921874,-3.8608129663482313,8.393172025841475,3.2892528495654463
1757614514719166200,71.44216625976563,-3.745440912544727,8.39179956844449,3.423410560120642
1757614514729121300,71.45212133789063,-3.670943597704172,8.381704875409602,3.527257011303305
1757614514739076400,71.46207641601562,-3.627117607720196,8.379915069383383,3.576505318596959
1757614514749031400,71.47203149414062,-3.5960607906773685,8.393378946590422,3.576302489501238
1757614514758987300,71.4819873046875,-3.570882802540064,8.418352059805393,3.5426693922296164
1757614514768942300,71.4919423828125,-3.5559643426105376,8.449491878956556,3.483043775567412
1757614514778897400,71.5018974609375,-3.5577383665457365,8.483139881536363,3.398412604725361
1757614514788853500,71.511853515625,-3.5806107080891727,8.517213416051865,3.287349061770737
1757614514798808300,71.52180834960937,-3.625608372201025,8.54991273960471,3.150295045252144
1757614514808763400,71.53176342773438,-3.688988957482576,8.580141289129852,2.990470393998921
1757614514818719500,71.54171948242187,-3.763875856162608,8.607868084967135,2.8121576076358554
1757614514828674300,71.55167431640625,-3.8427693601354953,8.634131822514533,2.618261467693746
1757614514838629000,71.56162915039063,-3.9203316155046224,8.659447465556859,2.4115109607450664
1757614514848584400,71.57158447265626,-3.995196886874735,8.682810805487632,2.1949092141285536
1757614514858540300,71.58154028320313,-4.06938761998415,8.702200565612316,1.970324798195064
1757614514868495000,71.5914951171875,-4.146922402824461,8.715088688758016,1.7380143180541694
1757614514878450400,71.60145043945313,-4.232094256414473,8.718970498627424,1.4964420885711909
1757614514888406300,71.61140625,-4.329098294356465,8.711225583589076,1.2424974303796887
1757614514898361000,71.62136108398437,-4.440163298615813,8.689538067916034,0.973281918624416
1757614514908316400,71.63131640625,-4.562478887946903,8.653175545680522,0.6904513576883822
1757614514918271200,71.64127124023437,-4.686713462641835,8.604994575357436,0.3989906233120709
1757614514928227000,71.65122705078124,-4.800532149523496,8.550666188320516,0.1069056560901925
1757614514938182400,71.66118237304687,-4.894336806902289,8.496117436531186,-0.1783668729041703
1757614514948137200,71.67113720703125,-4.962046069037914,8.44659089681804,-0.4511623072391376
1757614514958093300,71.68109326171874,-5.003977915838361,8.404147593364119,-0.7077328934874385
1757614514968048400,71.69104833984375,-5.023740016406774,8.368881049671769,-0.945668520033732
1757614514978003200,71.70100317382813,-5.0275008302450175,8.339330545538663,-1.161964707832411
1757614514987959300,71.71095922851562,-5.025751940751076,8.313294187006354,-1.3421464298725128
1757614514997914400,71.72091430664062,-5.035913269281387,8.287080133819579,-1.4609092951580882
1757614515007869200,71.730869140625,-5.079954071059823,8.25531721433401,-1.488011090964824
1757614515017824500,71.74082446289063,-5.167047248101234,8.21921188172996,-1.384413353846222
1757614515027780400,71.7507802734375,-5.2810383689403535,8.188073816144465,-1.1119636824753134
1757614515037735200,71.76073510742188,-5.398668138542771,8.15733147187829,-0.6947575304497033
1757614515047690500,71.7706904296875,-5.512331342601776,8.107074279803037,-0.2449075479181483
1757614515057646600,71.780646484375,-5.618231511443853,8.03674109890461,0.1290054332253988
1757614515067601400,71.79060131835938,-5.679391790327429,7.986192814928293,0.3682554029064253
1757614515077556700,71.800556640625,-5.682030906659365,7.977886174353957,0.4881132968870922
1757614515087511600,71.81051147460937,-5.639988000699877,8.002551829054951,0.5657660800838843
1757614515097467600,71.82046752929688,-5.581311939847469,8.03753897128403,0.6459715799707919
1757614515107422500,71.83042236328124,-5.542850399506092,8.056162423211335,0.738567153820768
1757614515117377500,71.84037744140625,-5.545123020613193,8.04598940424323,0.8270864912077784
1757614515127333600,71.85033374023438,-5.5834577197045085,8.012654705396294,0.8903796904668212
1757614515137288400,71.86028833007812,-5.638029852369427,7.971125009655952,0.9188225986842066
1757614515147243500,71.87024340820312,-5.690127119353413,7.935454561337828,0.9063411566432564
1757614515157199600,71.88019970703125,-5.729328079885244,7.913520961949229,0.8493160048030316
1757614515167154400,71.89015454101562,-5.753100000616907,7.906521312320232,0.7477649710811675
1757614515177109500,71.90010961914062,-5.764109470409155,7.910456898203492,0.6083777258420363
1757614515187064600,71.91006469726562,-5.767016882288456,7.919193746888637,0.4452592206751927
1757614515197020400,71.9200205078125,-5.767797219011187,7.92636992212832,0.27485052196756
1757614515206975500,71.9299755859375,-5.771076971334218,7.927977357324957,0.1107245385249145
1757614515216930600,71.9399306640625,-5.780481928539276,7.92181766565144,-0.0355882818934274
1757614515226886400,71.94988647460937,-5.797733507591485,7.907800830736756,-0.1530033082000445
1757614515236841500,71.95984155273437,-5.821054177424311,7.888719113647937,-0.2320059077037498
1757614515246796500,71.96979663085938,-5.845929675483704,7.869170948091149,-0.2675835449055768
1757614515256751600,71.97975170898438,-5.867381628835201,7.853474781787395,-0.259098515557032
1757614515266707700,71.98970776367187,-5.882198674216866,7.843830755129456,-0.2107766389259137
1757614515276662500,71.99966259765625,-5.889121751478314,7.840390843808651,-0.1299574641200713
1757614515286617600,72.00961767578124,-5.886247072824835,7.8435963618516915,-0.0223898986386018
1757614515296573700,72.01957373046875,-5.869574754965305,7.855337068527937,0.1104472924861125
1757614515306528500,72.02952856445313,-5.836218428808451,7.876378687512874,0.2675571318226866
1757614515316483600,72.03948364257812,-5.785326445960998,7.905750327947735,0.4466478254893794
1757614515326439700,72.04943969726563,-5.71715833414197,7.941868520033359,0.6412498121459037
1757614515336394500,72.05939453125,-5.634443226054311,7.982522017461061,0.8382952829644084
1757614515346349600,72.069349609375,-5.541486125415563,8.026541191929578,1.0183324819672852
1757614515356304600,72.0793046875,-5.444686962395906,8.073543766123056,1.1591834796160458
1757614515366260500,72.08926049804687,-5.349809122827649,8.122946971717477,1.252068830192834
1757614515376215600,72.09921557617187,-5.259401122149825,8.172879754143953,1.308848263643682
1757614515386170600,72.10917065429688,-5.169741309490799,8.222191774323582,1.356346950791031
1757614515396126500,72.11912646484375,-5.066862534296512,8.275119062390923,1.421160929876566
1757614515406081500,72.12908154296875,-4.92100503359735,8.34207838294208,1.537491161187738
1757614515416036600,72.13903662109375,-4.688581010079384,8.42930600001812,1.7704235726192592
1757614515425991400,72.14899145507812,-4.408719528082013,8.491077104276417,2.1529487257555124
1757614515435947800,72.15894775390625,-4.212406682386994,8.474909813329576,2.569414434677362
1757614515445902600,72.16890258789063,-4.081159014059603,8.444839084714651,2.863436836235225
1757614515455857400,72.178857421875,-3.934802331666648,8.468129359409213,2.996411474485696
1757614515465813800,72.18881372070312,-3.746205174915492,8.538701025238632,3.037579643437266
1757614515475768600,72.1987685546875,-3.5062717986807224,8.619485457524657,3.095300303260982
1757614515485723400,72.20872338867187,-3.228357651358843,8.676613704413175,3.234885007300973
1757614515495678700,72.2186787109375,-2.9574732565432784,8.70142607410848,3.4218361504107717
1757614515505634600,72.22863452148438,-2.7391297808259725,8.705679055377841,3.588693476779759
1757614515515589400,72.23858935546875,-2.580743053421378,8.699068697327375,3.7197234107032418
1757614515525544700,72.24854467773437,-2.462438745558262,8.687090674763917,3.826384919306636
1757614515535500500,72.25850048828126,-2.362537086478621,8.672822495436668,3.920581498612463
1757614515545455400,72.26845532226562,-2.2723370294630527,8.658095466426014,4.005528603535891
1757614515555410700,72.27841064453125,-2.198635541175306,8.642396962034702,4.079871312336623
1757614515565366500,72.28836645507812,-2.153367097298056,8.624200211086869,4.142051874178648
1757614515575321300,72.2983212890625,-2.144874724893272,8.604305424049496,4.187582037732005
1757614515585276700,72.30827661132813,-2.1744491944238544,8.586109842145442,4.2096199742779135
1757614515595231500,72.3182314453125,-2.2395884599409994,8.574147017151116,4.199835370105505
1757614515605187600,72.3281875,-2.3383462096825243,8.571595579102635,4.150940406294167
1757614515615142700,72.338142578125,-2.4689932817682623,8.578905025333166,4.059168423786759
1757614515625097500,72.34809741210937,-2.627998433332145,8.593605750858783,3.926058176457882
1757614515635053600,72.35805346679687,-2.809461500419676,8.6118884265244,3.7566833143100142
1757614515645008600,72.36800854492188,-3.0074738435089587,8.630164672449231,3.5560806624665853
1757614515654963500,72.37796337890624,-3.216862151615321,8.645210850411653,3.329038039726018
1757614515664918800,72.38791870117187,-3.432857310640812,8.653193081337212,3.0835294937074185
1757614515674874600,72.39787451171875,-3.652852645218372,8.649971781203151,2.8293153709247707
1757614515684829400,72.40782934570312,-3.875075884978473,8.633121184167265,2.5735914281010626
1757614515694784800,72.41778466796875,-4.096659657791257,8.602127495488524,2.3218942565754053
1757614515704740600,72.42774072265625,-4.3119358548924325,8.559473179632425,2.07678187026754
1757614515714695400,72.4376953125,-4.512518048469722,8.510800626400112,1.8368069929786024
1757614515724650500,72.447650390625,-4.691097669075429,8.462606796595454,1.5963384869538246
1757614515734605600,72.45760546875,-4.84355120703876,8.41986714054346,1.347673522730917
1757614515744561400,72.4675615234375,-4.968853410965204,8.384286708596349,1.0884092769518494
1757614515754516500,72.4775166015625,-5.068547710904479,8.35436737115085,0.8275275860387832
1757614515764471600,72.48747143554688,-5.146324193546175,8.327537231892347,0.5812693906966596
1757614515774427600,72.497427734375,-5.207403223887086,8.301727667853235,0.3669736194675788
1757614515784382500,72.50738256835938,-5.257428945294023,8.27590875146389,0.1979639191039837
1757614515794337500,72.51733764648438,-5.304611552229523,8.247696802458167,0.083587644005334
1757614515804293600,72.52729370117187,-5.357244241264462,8.213972812032699,0.0309215892736217
1757614515814248400,72.53724853515625,-5.412161241844296,8.177762850010394,0.0552924097634851
1757614515824203500,72.54720361328125,-5.449089581269026,8.151170026639104,0.1904037860480137
1757614515834158600,72.55715869140624,-5.454958181041479,8.138044587606192,0.4313163643121719
1757614515844114400,72.56711450195313,-5.455616352689266,8.119942529204486,0.6878574687376618
1757614515854069500,72.57706958007813,-5.455377867758274,8.102532544720173,0.8707385128643363
1757614515864024600,72.58702465820312,-5.405522826743126,8.129235258206725,0.9307321591213344
1757614515873980400,72.59698046875,-5.301963668069243,8.200006830522417,0.9052660016924142
1757614515883935500,72.606935546875,-5.171486691853404,8.286794302615522,0.8690186302691698
1757614515893890600,72.616890625,-5.054900293824076,8.358857668307422,0.8647857419397681
1757614515903845600,72.626845703125,-4.998107562500239,8.3893165194571,0.8992701953437179
1757614515913801700,72.6368017578125,-5.013534848734736,8.375534662342071,0.9409002827186136
1757614515923756500,72.64675659179687,-5.076672565171123,8.334998653814196,0.962073857520148
1757614515933711600,72.65671166992188,-5.157267027842998,8.285927456653118,0.9572759557191282
1757614515943667700,72.66666772460937,-5.23609681892991,8.239162782868743,0.9326871656466276
1757614515953622500,72.67662255859375,-5.3041714072465895,8.199695280355215,0.8950870644401758
1757614515963577600,72.68657763671875,-5.359668838062882,8.168716204723715,0.8464274437546729
1757614515973532400,72.69653247070312,-5.402279314777255,8.146281085553765,0.7898364455480128
1757614515983488500,72.70648852539063,-5.4323862837493415,8.131658685961366,0.7319093033667653
1757614515993443600,72.71644360351563,-5.452117989179492,8.123189548301696,0.6771711664851755
1757614516003398700,72.72639868164063,-5.46429942536056,8.119089711767435,0.6262381209749728
1757614516013354500,72.7363544921875,-5.472533000698685,8.11717481805682,0.5772332305157557
1757614516023309600,72.7463095703125,-5.481816961872577,8.114261560958623,0.5280644912643357
1757614516033264600,72.7562646484375,-5.497189303049445,8.106923473155499,0.4786012991109862
1757614516043220500,72.76622045898438,-5.520979343959689,8.093288915556668,0.4334598060816526
1757614516053175600,72.77617553710938,-5.552490919032692,8.073422770091891,0.4000418859306722
1757614516063130400,72.78613037109375,-5.587231393024325,8.050117297828198,0.3858003388820216
1757614516073085400,72.79608544921875,-5.6173079668581485,8.028557207927108,0.398128380459547
1757614516083041500,72.80604150390624,-5.634061533260345,8.014481920823455,0.4424820841120556
1757614516092996400,72.81599633789062,-5.628930015590787,8.013286573559045,0.5222963196590542
1757614516102951400,72.82595141601563,-5.594806796714663,8.028990338647365,0.6354633376989514
1757614516112907500,72.83590747070312,-5.5271799521654845,8.063532659718394,0.774653927854821
1757614516122862300,72.8458623046875,-5.424589346262812,8.116588542601466,0.930181612566486
1757614516132817400,72.8558173828125,-5.291233599740266,8.184670729702711,1.0882957335747778
1757614516142772500,72.8657724609375,-5.137608387649059,8.261613684129715,1.23332350545153
1757614516152728300,72.87572827148438,-4.977146023014187,8.341377541196346,1.3490037484213708
1757614516162683400,72.88568334960938,-4.823545653103292,8.41871037172377,1.4244729770340026
1757614516172638500,72.89563842773437,-4.685725036126375,8.490411918365956,1.4585212309777735
1757614516182594600,72.90559448242188,-4.566347546073794,8.554369134491681,1.4634262464150785
1757614516192549400,72.91554931640626,-4.465041427023708,8.608495861476658,1.458631267223507
1757614516202504400,72.92550439453125,-4.374971572259068,8.652947582143545,1.4684882059797644
1757614516212459300,72.93545922851563,-4.280646690398455,8.690975407242775,1.5209952228084205
1757614516222415400,72.94541528320312,-4.159188594679534,8.725372182363271,1.655118446572125
1757614516232370400,72.95537036132812,-3.982096290022135,8.752426193505524,1.9257080962248143
1757614516242325500,72.96532543945312,-3.7604593257173895,8.745088105702399,2.3564311708189547
1757614516252281300,72.97528125,-3.561109596544504,8.683758899992704,2.8427546982124445
1757614516262236400,72.985236328125,-3.3996912463590503,8.624154618379473,3.199446614173054
1757614516272191500,72.99519140625,-3.2229531619668004,8.630017372933029,3.3624060563206672
1757614516282146600,73.005146484375,-2.989183276797831,8.689038886222242,3.42575478515923
1757614516292102400,73.01510229492187,-2.6895880435436963,8.757239146745205,3.4996105872258543
1757614516302057500,73.02505737304688,-2.3589677035592493,8.802421519774198,3.622572950027883
1757614516312012500,73.03501245117188,-2.044762784063816,8.81921950984001,3.769702954880893
1757614516321968400,73.04496850585937,-1.7720479589506983,8.820326594299077,3.902827230735123
1757614516331923500,73.05492333984375,-1.542892435709387,8.81636996562779,4.007675260175764
1757614516341878500,73.06487841796876,-1.3568721437089144,8.816144924700259,4.074903753057122
1757614516351834600,73.07483471679687,-1.22110758247897,8.823873473125696,4.101040649354458
1757614516361789400,73.08478955078125,-1.1410206309378146,8.83783185585141,4.094038369376957
1757614516371744500,73.09474462890626,-1.1122877998631446,8.854200222328304,4.066492483064532
1757614516381699300,73.10469921875,-1.1264939468048512,8.869256921684741,4.029603598867356
1757614516391655400,73.11465551757813,-1.178165901048854,8.881305086874962,3.988071272778511
1757614516401610500,73.12461059570313,-1.2647468177191912,8.889983483371138,3.94195249568224
1757614516411565600,73.13456567382812,-1.3824611968651412,8.895943853080272,3.8886160422921177
1757614516421521400,73.144521484375,-1.525172946884483,8.900362838566302,3.824624923896789
1757614516431476500,73.1544765625,-1.6865217389650642,8.903878737732768,3.747929514490068
1757614516441431600,73.164431640625,-1.8628795918680727,8.907036909502745,3.655787821887433
1757614516451386400,73.17438647460938,-2.054610370469838,8.910095128029583,3.5438963036760684
1757614516461342200,73.18434228515625,-2.266459515731781,8.912349044436215,3.4064003886088727
1757614516471297500,73.19429760742187,-2.5035908401578664,8.912441398894787,3.2358664195537563
1757614516481252400,73.20425244140625,-2.7697394386231897,8.906968520441652,3.02735226393342
1757614516491208200,73.21420825195312,-3.062780427928269,8.890528842294216,2.783569811055064
1757614516501163500,73.22416357421875,-3.3718867091104388,8.858899778321385,2.5140891455575822
1757614516511118300,73.23411840820313,-3.67786609044373,8.811597344398498,2.235939289783686
1757614516521074400,73.24407446289062,-3.959131301759183,8.753298884686828,1.9686133181020613
1757614516531029500,73.25402954101563,-4.196434329490363,8.6950658914268,1.7193550641611215
1757614516540984300,73.263984375,-4.376453042988479,8.651348330253363,1.4735156787529586
1757614516550939400,73.273939453125,-4.496722805705666,8.631629484304785,1.202011179277673
1757614516560895500,73.2838955078125,-4.568119524182379,8.631561679765582,0.8937536969445645
1757614516570850300,73.29385034179687,-4.61030329991728,8.636625977417825,0.569339846917428
1757614516580805600,73.3038056640625,-4.637341821229458,8.637050924831629,0.2583999936325475
1757614516590761500,73.31376147460938,-4.6575040270313615,8.630048937115072,-0.0161575413043843
1757614516600716300,73.32371630859375,-4.678115145644545,8.615613000005483,-0.2383524271862581
1757614516610671600,73.33367163085937,-4.714936225302517,8.58967425662875,-0.3965732234394177
1757614516620626400,73.34362646484375,-4.783744388590753,8.547218678215145,-0.4808229572158307
1757614516630582300,73.35358227539062,-4.881322134767473,8.49152250995636,-0.4869582451004535
1757614516640537600,73.36353759765625,-4.993618434387445,8.429335810634493,-0.4247657005596906
1757614516650492400,73.37349243164063,-5.120099618965387,8.35752203578949,-0.3267878856820985
1757614516660448300,73.3834482421875,-5.2597518352836365,8.273479478490351,-0.2344311986219137
1757614516670403600,73.39340356445312,-5.371778378051519,8.202448962977527,-0.1850751383711583
1757614516680358400,73.4033583984375,-5.418589229065179,8.171133787259459,-0.2044804248585365
1757614516690313200,73.41331323242187,-5.42200108333528,8.167254899999499,-0.2611916701776907
1757614516700269600,73.42326953125,-5.4248132181465625,8.163805636328458,-0.3066621759656816
1757614516710224400,73.43322436523438,-5.457582099804282,8.141139046490192,-0.3271004222299903
1757614516720179200,73.44317919921875,-5.534656571656465,8.08877289943695,-0.3312615239648148
1757614516730135600,73.45313549804688,-5.6433788121819495,8.01355662267208,-0.324894034759514
1757614516740090400,73.46309033203126,-5.7650265852540725,7.927052059173583,-0.3109553065823391
1757614516750045400,73.47304541015625,-5.888146768966317,7.836768561658263,-0.2918339698691852
1757614516760001500,73.48300146484375,-6.004055121603608,7.749093200814723,-0.2707198336373083
1757614516769956400,73.49295629882812,-6.108153793981671,7.667902525815367,-0.253221348885633
1757614516779911400,73.50291137695312,-6.200830324113369,7.593370724183321,-0.2465898749819025
1757614516789866500,73.51286645507813,-6.283588686820864,7.524750776943564,-0.2550524915692396
1757614516799822300,73.522822265625,-6.356794208285212,7.46213270046711,-0.2794591117415577
1757614516809777400,73.53277734375,-6.420060519537329,7.4063301492244,-0.3153735248833894
1757614516819732500,73.542732421875,-6.472360031095147,7.358841252818703,-0.3555106702867895
1757614516829688300,73.55268823242187,-6.512579813280701,7.321428929269313,-0.3915985037667676
1757614516839643400,73.56264331054687,-6.539863541525602,7.295702951860427,-0.4163286385387182
1757614516849598500,73.57259838867188,-6.5532601987153285,7.28318424654901,-0.4246860229196026
1757614516859553300,73.58255322265624,-6.552683860132098,7.284349783197045,-0.41343331895601
1757614516869509400,73.59250927734375,-6.539535624745488,7.298039285853505,-0.3787961592083796
1757614516879464400,73.60246435546875,-6.51620034186542,7.321883102777599,-0.315547347080335
1757614516889419300,73.61241918945312,-6.482469337177276,7.35528560616374,-0.2185968476901762
1757614516899375400,73.62237524414063,-6.433646561819314,7.400752056831121,-0.0861215098645072
1757614516909330400,73.63233032226563,-6.361867273765802,7.462621360766887,0.0793593861852772
1757614516919285500,73.64228540039062,-6.26155221157968,7.542572264838218,0.2701966865460388
1757614516929240600,73.65224047851562,-6.13447130754292,7.636357632994652,0.4740646420620381
1757614516939196400,73.66219653320313,-5.991330080065131,7.733996753969788,0.6779722537349909
1757614516949151500,73.6721513671875,-5.8483811602890485,7.823757688915729,0.8692875834036617
1757614516959106600,73.6821064453125,-5.719489991959929,7.898940063410997,1.0317955554567275
1757614516969062400,73.6920625,-5.612584445467591,7.958789259696006,1.1519142923306671
1757614516979017500,73.702017578125,-5.528910136958957,8.005569715571403,1.2298030762404202
1757614516988972500,73.71197265625,-5.463388155734538,8.042451293244957,1.2809065098814665
1757614516998927400,73.72192724609376,-5.4079900936394925,8.072231514480709,1.3278390875786543
1757614517008883500,73.73188354492187,-5.355213612219691,8.096768574365973,1.3908448481984437
1757614517018838500,73.74183862304687,-5.292801287448406,8.119963571992516,1.4909168954089282
1757614517028793300,73.75179345703125,-5.188551808422804,8.152322119283676,1.6700189324535428
1757614517038749400,73.76174951171875,-5.016730429905652,8.189700540563464,1.9828212916746732
1757614517048704500,73.77170458984375,-4.83427279882282,8.188526236087084,2.397550970584154
1757614517058661600,73.78166162109375,-4.706047985447943,8.14584152509272,2.769256623542309
1757614517068616700,73.79161669921875,-4.604154714159667,8.126321416586636,2.9891499590501187
1757614517078572500,73.80157250976562,-4.482529737441242,8.162346085169911,3.0746400848090647
1757614517088527600,73.81152758789062,-4.311017571003735,8.236088197728991,3.122876000189781
1757614517098482700,73.82148266601563,-4.078035913603007,8.32083568842709,3.209935567222536
1757614517108438500,73.8314384765625,-3.803663092149794,8.39760036367774,3.344069896902144
1757614517118393600,73.8413935546875,-3.523967614369094,8.464539810484647,3.4790240185320376
1757614517128348700,73.8513486328125,-3.2685975995495915,8.525438808083534,3.578201601120829
1757614517138304800,73.8613046875,-3.05320215998292,8.577727213725447,3.642923956400156
1757614517148259600,73.87125952148438,-2.8707857376933097,8.62363790102899,3.682638711673021
1757614517158214700,73.88121459960938,-2.707651231239736,8.670019712975622,3.6972619880482553
1757614517168169500,73.89116943359375,-2.5584160708010195,8.720921048173308,3.683804248321056
1757614517178125600,73.90112548828125,-2.429577655572444,8.775200335371494,3.641892859786749
1757614517188080600,73.91108056640626,-2.330422723206877,8.829382007414102,3.575128185024857
1757614517198035500,73.92103540039062,-2.263347813452035,8.88113966718018,3.488986609619856
1757614517207991600,73.93099145507813,-2.2258970575883983,8.929246403223276,3.388853333741426
1757614517217946600,73.94094653320313,-2.212722226455808,8.973856529322266,3.277826907926798
1757614517227901700,73.95090161132812,-2.218204311128705,9.016009325397016,3.1561949169456955
1757614517237856500,73.9608564453125,-2.240029335576296,9.05613324599266,3.023096360054612
1757614517247812600,73.9708125,-2.2806775723069905,9.093411714029312,2.877284452062845
1757614517257767700,73.980767578125,-2.3471311352930964,9.125861446735264,2.716621304158866
1757614517267722500,73.99072241210938,-2.445935208394378,9.150887751442191,2.5394974353194235
1757614517277678600,74.0006787109375,-2.582313079217076,9.16536694317162,2.344805468824505
1757614517287633700,74.01063354492187,-2.7600416359514,9.165037272825836,2.1341623383514583
1757614517297588500,74.02058837890625,-2.977534047797322,9.145275756779313,1.915358990037441
1757614517307543600,74.03054345703126,-3.2250854978203773,9.103848352369663,1.6997580910265444
1757614517317499600,74.04049975585937,-3.484719015303254,9.043722092708943,1.4960615648210047
1757614517327454500,74.05045434570313,-3.731701725527644,8.974568476983904,1.3045625491484998
1757614517337409500,74.06040942382812,-3.9415795707166192,8.910378621146082,1.1133384048946202
1757614517347365600,74.07036572265625,-4.101015514913201,8.86237768356502,0.900164733030647
1757614517357320400,74.08032055664063,-4.210966420450807,8.833446772634982,0.6390183267667889
1757614517367275500,74.09027563476562,-4.278834672540426,8.818131130081415,0.3202272850574925
1757614517377231600,74.10023168945312,-4.316707307077944,8.80538212314546,-0.0405712077054195
1757614517387186400,74.1101865234375,-4.340803637458384,8.784092082357406,-0.4093228148972615
1757614517397141800,74.12014184570313,-4.36580071607083,8.749242887294292,-0.7489295578811317
1757614517407096600,74.1300966796875,-4.404095083151757,8.701168884477019,-1.031498764467239
1757614517417052400,74.14005249023438,-4.47241370935738,8.638530349734426,-1.242475364678353
1757614517427007700,74.1500078125,-4.583164825361967,8.560655082893371,-1.371198190703243
1757614517436962600,74.15996264648437,-4.734131924159825,8.471818861576914,-1.4094833515644072
1757614517446918400,74.16991845703124,-4.917576812714338,8.374817453983425,-1.360229929704219
1757614517456873700,74.17987377929687,-5.133173035550117,8.261773258605599,-1.2506189236454666
1757614517466828500,74.18982861328125,-5.365128857034445,8.132852279660105,-1.1146657810408622
1757614517476783600,74.19978369140625,-5.564801534551382,8.015212573185563,-0.9796440740674732
1757614517486739700,74.20973974609375,-5.703280030915141,7.930655052101612,-0.8647012785267084
1757614517496694500,74.21969458007813,-5.788477018946409,7.879727997940778,-0.7574808208663016
1757614517506649600,74.22964965820313,-5.844414010223746,7.849546794688701,-0.6307059140387922
1757614517516605700,74.23960571289062,-5.894916701492667,7.822322103154659,-0.4812072438256815
1757614517526560500,74.249560546875,-5.954480651095509,7.784812164449692,-0.3335009003894403
1757614517536515800,74.25951586914063,-6.02501315395832,7.734502365404367,-0.2170572718316689
1757614517546470700,74.269470703125,-6.098250239604711,7.67858349430561,-0.1451740667459554
1757614517556426500,74.27942651367188,-6.16416209692955,7.626319054061174,-0.1129164042796939
1757614517566381600,74.28938159179687,-6.216237152081727,7.584024803689122,-0.1064087668181862
1757614517576336600,74.29933666992187,-6.252635330152511,7.553932447764277,-0.1142159791035577
1757614517586292500,74.30929248046876,-6.275524038308858,7.534628027835488,-0.1325793553225696
1757614517596247600,74.31924755859374,-6.2889277097612615,7.522904272294044,-0.1604409565206617
1757614517606202600,74.32920263671875,-6.297350670191645,7.515000367301702,-0.1963602650333195
1757614517616157400,74.33915747070313,-6.305967691889405,7.506614816272259,-0.2364494065765291
1757614517626113500,74.34911352539062,-6.318221024262905,7.494964710488915,-0.2755724795665591
1757614517636068600,74.35906860351562,-6.333870428815484,7.480381473863124,-0.3104441421898081
1757614517646023400,74.3690234375,-6.350766618558764,7.464839036816358,-0.3380754782959819
1757614517655979500,74.3789794921875,-6.3661787072241305,7.450876562437415,-0.3558132699625566
1757614517665934600,74.3889345703125,-6.377523108059168,7.440940274834633,-0.3605403715496882
1757614517675889400,74.39888940429688,-6.382725352877378,7.436887784573435,-0.352052748385258
1757614517685844700,74.4088447265625,-6.379381887668371,7.440747382611036,-0.3303963219702243
1757614517695800600,74.41880053710938,-6.366319576999545,7.453506910941004,-0.2926256682361476
1757614517705755600,74.42875561523438,-6.34221389426887,7.476073547536134,-0.2345355357792228
1757614517715710700,74.43871069335937,-6.304738442355394,7.509901582857966,-0.1485151116690132
1757614517725666600,74.44866650390625,-6.251123172023892,7.555989380294084,-0.0299703940625884
1757614517735621600,74.45862158203126,-6.180954241776466,7.612608508616685,0.1198286039541009
1757614517745576700,74.46857666015624,-6.09707827321589,7.675251135012507,0.2942648868105374
1757614517755531500,74.47853149414063,-6.006846213626861,7.736494416004419,0.4846155909644439
1757614517765487600,74.48848754882812,-5.916835103312135,7.791185791134834,0.6773857590839266
1757614517775442700,74.49844262695312,-5.8328352161109445,7.836818246018886,0.8559786775626241
1757614517785397500,74.5083974609375,-5.759860580793023,7.872285280719399,1.0106914656948298
1757614517795353600,74.518353515625,-5.698853446644544,7.898081400755047,1.146185685550794
1757614517805308700,74.52830859375,-5.643711405137181,7.917730688598752,1.2761178143002092
1757614517815263500,74.53826342773438,-5.581092159616947,7.936173523262143,1.4279242865316568
1757614517825218600,74.54821850585938,-5.484346188089251,7.96113202342987,1.6470459070146082
1757614517835174700,74.55817456054687,-5.313953381070494,7.998509275665879,1.9890015877448024
1757614517845129500,74.56812939453125,-5.090716288092732,8.017004132777451,2.445948214006424
1757614517855084500,74.57808447265624,-4.900519587190449,7.990632258680463,2.881855997762084
1757614517865040600,74.58804052734375,-4.745853049352765,7.982671655064821,3.1502754637688395
1757614517874995700,74.59799560546875,-4.565507588118314,8.048532074463367,3.247710294343531
1757614517884950500,74.60795043945312,-4.346899031724036,8.156744027379155,3.2775527671605347
1757614517894905600,74.61790551757812,-4.1107746923834085,8.260158224624394,3.322908158668876
1757614517904861700,74.62786181640625,-3.87742127906084,8.339613454133271,3.403947442498803
1757614517914816500,74.63781640625,-3.663268825292587,8.400931553927064,3.4892990365698933
1757614517924771600,74.647771484375,-3.475206798331439,8.448852996531128,3.5651425053223966
1757614517934727700,74.65772778320313,-3.3106738232567903,8.48493494825959,3.6353438765347
1757614517944682500,74.6676826171875,-3.1662790885865686,8.513792209431529,3.6959947445914154
1757614517954637600,74.67763745117188,-3.042744186593592,8.5412249907583,3.736251643916965
1757614517964593700,74.68759375,-2.9417759211957453,8.57210937384367,3.746372640436888
1757614517974548500,74.69754858398437,-2.865400829784572,8.607289408296346,3.724837684977055
1757614517984503600,74.70750366210937,-2.8142557489588853,8.64596429912746,3.6739135534256695
1757614517994458600,74.71745874023438,-2.787430870397389,8.68725375637114,3.596140577915311
1757614518004414500,74.72741455078125,-2.784835885468125,8.729915086489916,3.493372861880064
1757614518014369500,74.73736962890625,-2.8075971678525207,8.773001364022493,3.364847311992943
1757614518024324600,74.74732470703125,-2.856628033003211,8.815855586364865,3.2079154595717787
1757614518034280400,74.75728051757812,-2.931515808466077,8.856827648222446,3.022113194236159
1757614518044235800,74.76723583984375,-3.030007454617321,8.89400616301596,2.808222021752596
1757614518054190600,74.77719067382813,-3.1482083021059637,8.925071163365244,2.56949217608869
1757614518064144100,74.78714404296875,-3.2833091387301683,8.947413928076625,2.309553976570814
1757614518074100000,74.79709985351562,-3.4330633546069262,8.957562981647252,2.036301829710603
1757614518084055000,74.80705493164062,-3.595269348038733,8.952074321103096,1.7620504426799717
1757614518094010000,74.81701000976562,-3.76607190490216,8.92905351099968,1.5030381258353591
1757614518103966000,74.82696606445313,-3.938610784038901,8.889958933451771,1.2752800483018158
1757614518113921300,74.83692138671876,-4.102068823358416,8.840328348842263,1.091779995493963
1757614518123876000,74.8468759765625,-4.245399143667519,8.788476581051945,0.953762686901167
1757614518133831000,74.85683081054688,-4.362804456864297,8.742038655003904,0.8444181497588753
1757614518143787300,74.86678735351562,-4.456669319997728,8.704609380319715,0.7336616999920457
1757614518153742000,74.8767421875,-4.536707025569677,8.673556654930115,0.5984104951117187
1757614518163697000,74.88669677734374,-4.613247244414687,8.642760534650087,0.4370496107345447
1757614518173653200,74.8966533203125,-4.691721938453615,8.60759920489788,0.2595959619514644
1757614518183608000,74.90660815429688,-4.776595978140831,8.564342831495404,0.08116582368589
1757614518193563000,74.91656298828126,-4.87628998581916,8.5079335465312,-0.0850800197212491
1757614518203518200,74.92651831054687,-4.995699916836619,8.435680795747041,-0.2295468423801474
1757614518213474000,74.93647412109375,-5.132326063331961,8.349467908671498,-0.3405529377928003
1757614518223428900,74.94642895507812,-5.288587469145655,8.248574169814587,-0.4027851932894438
1757614518233384200,74.95638427734374,-5.460594141101837,8.1360887773633,-0.3954020973008126
1757614518243340000,74.96634008789063,-5.618816033333539,8.032067261874674,-0.2918518160531297
1757614518253294800,74.976294921875,-5.746333575221896,7.945978877961635,-0.1068007252778392
1757614518263250200,74.98625024414062,-5.88372252278328,7.845202043482661,0.0705503718796418
1757614518273205000,74.996205078125,-6.031531157550216,7.730781299054622,0.1614008875939995
1757614518283161000,75.0061611328125,-6.1376090210467575,7.6464318677634,0.1794240355405956
1757614518293116200,75.0161162109375,-6.189955878877639,7.603672337967157,0.1975981727978214
