time,seconds_elapsed,z,y,x
1757974808048205600,2.51820556640625,0.2894701450809836,0.0752460873812437,0.466826799762994
1757974808058188800,2.528188720703125,0.2812196186080575,-0.0076513915359973,0.4617604562841355
1757974808068172800,2.5381728515625,0.2689806070208549,-0.1198924538373947,0.3943606984890997
1757974808078157000,2.548156982421875,0.2918278141230344,-0.2285761159181594,0.3317889453724026
1757974808088141000,2.55814111328125,0.3498524253293871,-0.2624994283080101,0.3017775457292795
1757974808098125000,2.568125,0.3224355722241103,-0.1887941406279802,0.3823744926191866
1757974808108109000,2.578109130859375,0.3165200645700097,-0.1825929479002952,0.4611415937334299
1757974808118093000,2.588093017578125,0.2772800872020423,-0.1432014332324266,0.5072022109016776
1757974808128077000,2.5980771484375,0.2169818319752812,-0.1148661501079797,0.441506626676023
1757974808138061000,2.60806103515625,0.1906704558938741,-0.045069560304284,0.3156830292239785
1757974808148045000,2.618045166015625,0.1550125747963786,0.0277560219317674,0.3052428837522864
1757974808158029000,2.628029052734375,0.2001543235540389,0.0528723430097103,0.2876009902082383
1757974808168013000,2.638012939453125,0.2311295997932553,0.112232294473052,0.322517259158194
1757974808177996000,2.64799609375,0.2880347054503858,0.1638555142045021,0.3662834817789495
1757974808187980000,2.65797998046875,0.2623468680948019,0.1993231334269046,0.4422228121213614
1757974808197964000,2.667964111328125,0.2299851059332489,0.1422369721144437,0.4485489464029669
1757974808207948000,2.677947998046875,0.1738333028614521,0.0353968920737504,0.4510318492598831
1757974808217932000,2.68793212890625,0.1928691349819302,-0.1307481943726539,0.4666382914535701
1757974808227916000,2.697916015625,0.152283149832487,-0.2776934903085231,0.4484032543219625
1757974808237900000,2.707900146484375,0.1059171199768781,-0.4168950402498245,0.3987966351099312
1757974808247884000,2.717884033203125,0.207647894179821,-0.4584808500915766,0.4255757748335599
1757974808257868000,2.727867919921875,0.1964227358102798,-0.4435439777225256,0.4403299841120839
1757974808267852000,2.73785205078125,0.2127475554063916,-0.3044225072801113,0.3169868052989244
1757974808277836000,2.7478359375,0.1841184039019048,-0.115149058702588,0.1079977256432175
1757974808287820000,2.757820068359375,0.1416388600908219,0.0176478848934173,-0.0122450029365718
1757974808297803000,2.767802978515625,0.1461107448078691,0.0838537567287683,0.0739917034059762
1757974808307787000,2.777787109375,0.1220154373407363,0.1771416967570781,0.2957845889247953
1757974808317771000,2.78777099609375,0.1491181099303066,0.3269014655917883,0.3480151268996298
1757974808327755000,2.797755126953125,0.314566884675622,0.3422375664114951,0.2910441163994371
1757974808337739000,2.807739013671875,0.4889360479794442,0.2416664836376905,0.2401360592000186
1757974808347723000,2.817722900390625,0.5898175118766724,0.0003460369586944,0.1525954306520521
1757974808357707000,2.82770703125,0.6333638081364333,-0.3025216420948505,0.0019895663820207
1757974808367691000,2.83769091796875,0.5889074112944305,-0.6633832449555397,-0.1590289708308875
1757974808377675000,2.847675048828125,0.6480202561289071,-0.9853893397212028,-0.3854378257125616
1757974808387659000,2.857658935546875,0.6238425310753285,-1.04994218365252,-0.5133826531022787
1757974808397643000,2.86764306640625,0.4812900632709264,-1.0352817901372908,-0.5818810197889804
1757974808407627000,2.877626953125,0.4875887250237166,-0.943870165374875,-0.6446434731721877
1757974808417611000,2.887611083984375,0.5370967061668634,-0.5626403127461671,-0.7481978095404803
1757974808427594000,2.897593994140625,0.5909708466302603,-0.1087327619194984,-0.8353628827743231
1757974808437578000,2.907577880859375,0.4694054911445826,0.3506973517209291,-1.0165716828398406
1757974808447562000,2.91756201171875,0.4418593856364488,0.8163257354795932,-1.260649173142016
1757974808457546000,2.9275458984375,0.567914380691573,1.0120943912953138,-1.4641596752561628
1757974808467530000,2.937530029296875,0.5466729282855988,1.241582945883274,-1.4702783042669296
1757974808477514000,2.947513916015625,0.421440136333555,1.190138589850068,-1.3516573316700755
1757974808487498000,2.957498046875,0.4009895420443266,0.8510527654677629,-1.0037339747071266
1757974808497482000,2.96748193359375,0.4519702991537749,0.5142062444448471,-0.5997315876476467
1757974808507466000,2.977466064453125,0.5577426038324833,0.2994903115749359,-0.2383148351222276
1757974808517450000,2.987449951171875,0.6760580906767397,0.0841331581920385,-0.0118301385253667
1757974808527434000,2.99743408203125,0.6320481954932212,-0.0948585503458976,0.0753406337969005
1757974808537418000,3.00741796875,0.4938998809318989,-0.2895148610055446,-0.0623654168896377
1757974808547401000,3.01740087890625,0.4455429695200175,-0.3727852648884058,-0.1989250740200281
1757974808557385000,3.027385009765625,0.4770137011259794,-0.5664741918206214,-0.3157553638078272
1757974808567369000,3.037368896484375,0.4684972171932459,-0.7139771216392516,-0.3994793566770851
1757974808577353000,3.04735302734375,0.4854365884911268,-0.7727998974859714,-0.3807128430172801
1757974808587337000,3.0573369140625,0.515315593926236,-0.7737684502571821,-0.3185992089316248
1757974808597321000,3.067321044921875,0.5426297903746367,-0.8028308786123991,-0.3799987033985555
1757974808607305000,3.077304931640625,0.5456985302954912,-0.742934336054325,-0.3925855055101215
1757974808617289000,3.0872890625,0.4962561617344617,-0.664665685981512,-0.4610891328938305
1757974808627273000,3.09727294921875,0.5868581506144255,-0.7017126833498477,-0.6093611473888159
1757974808637257200,3.10725732421875,0.6724859312783926,-0.6262789644420147,-0.7156218201063573
1757974808647241200,3.1172412109375,0.6889320391666144,-0.5746037222623824,-0.7553997037433088
1757974808657225000,3.127224853515625,0.713946726500988,-0.6429553739547729,-0.660909548318386
1757974808667208000,3.1372080078125,0.6848001269936561,-0.6455144107878208,-0.4433564923264086
1757974808677192000,3.14719189453125,0.6351841554313897,-0.594185205566883,-0.3002214023284614
1757974808687176000,3.157176025390625,0.6270750832557678,-0.5677519566714764,-0.3328158042021095
1757974808697160000,3.167159912109375,0.6681149496525526,-0.509917022818327,-0.3780380708500743
1757974808707144000,3.17714404296875,0.6475128911286592,-0.4428308610171079,-0.4130291586019098
1757974808717128000,3.1871279296875,0.6411521239250898,-0.4418301595419645,-0.398133933417499
1757974808727112000,3.19711181640625,0.6278812120068819,-0.4135094894647598,-0.4617401441484689
1757974808737096200,3.20709619140625,0.6373994933933019,-0.3804138600707054,-0.5328900482572615
1757974808747080200,3.217080078125,0.6579962912201881,-0.3708183487296104,-0.5463853435158729
1757974808757064200,3.227064208984375,0.7939882314652204,-0.4890373163968324,-0.5054274563141167
1757974808767048200,3.237048095703125,0.825203453940153,-0.4696002099990845,-0.4681453350156545
1757974808777032000,3.247031982421875,0.7304419342279433,-0.4489706789463758,-0.467815226278454
1757974808787015000,3.257014892578125,0.702385468044877,-0.4908107558101415,-0.4441973270647227
1757974808796999000,3.2669990234375,0.6922778424631804,-0.5107821152150631,-0.3030360213577747
1757974808806983000,3.27698291015625,0.7612503294676541,-0.5975251636445522,-0.2337545414693653
1757974808816967000,3.286966796875,0.7837666241150348,-0.6014379531741142,-0.1893188951544463
1757974808826951000,3.296950927734375,0.8286269255828111,-0.6217793149352073,-0.4696965099804103
1757974808836935200,3.30693505859375,1.0286451286017897,-0.6535217761546372,-0.8845337409175932
1757974808846919200,3.316919189453125,1.1854168220251795,-0.4126794683814048,-1.001896968538314
1757974808856903200,3.326903076171875,1.1861246780335903,-0.0537555555850267,-0.9474607372127472
1757974808866887200,3.33688720703125,0.9823924959927796,0.1777180353403091,-0.8213502856433391
1757974808876871200,3.34687109375,0.8628010709285736,0.063682490837574,-0.7388784847922623
1757974808886855000,3.35685498046875,0.8476245445847511,0.1870014119923114,-0.5478400723688304
1757974808896839000,3.3668388671875,0.7263976272732019,0.4441027806490659,-0.415348833721131
1757974808906822000,3.37682177734375,0.7351157712578773,0.6224509305864572,-0.5658930309318005
1757974808916806000,3.386805908203125,1.0624135426908732,0.845129220637679,-1.0013904803209006
1757974808926790000,3.396789794921875,1.366338621842861,1.015451300507784,-1.3606275507196783
1757974808936774000,3.40677392578125,1.483643981796503,1.3914303930014371,-1.3116836332000792
1757974808946758100,3.416758056640625,1.2182085000365972,1.914159551119804,-1.0757862344831228
1757974808956742100,3.4267421875,0.8699784152120351,2.765620897388458,-0.9097000386171042
1757974808966726100,3.43672607421875,0.7427245657611637,3.526979947927594,-0.9084477004684508
1757974808976710100,3.446710205078125,0.663725774782896,4.320936030688881,-1.1144568875305354
1757974808986694100,3.456694091796875,0.6965507705420255,4.993970316565036,-1.4064461758255955
1757974808996678100,3.46667822265625,1.0191256051063535,5.3759086097240445,-1.5095542297311126
1757974809006662000,3.476661865234375,0.8600139974933118,5.613655289569497,-1.2656992961384357
1757974809016646000,3.48664599609375,0.3870505216062069,5.632664525943994,-0.9913048473753034
1757974809026630000,3.4966298828125,0.1508463584950193,5.619980985459685,-0.7745357813678682
1757974809036614000,3.50661376953125,-0.0368809931516647,5.8616743571043015,-0.6601673516489565
1757974809046597000,3.51659716796875,-0.2454104194063693,6.203336169454455,-0.7709604070991277
1757974809056581000,3.5265810546875,-0.4597913481682538,6.341518313220143,-0.8059630391582846
1757974809066565000,3.536565185546875,-0.704503702307865,5.980238192686438,-0.6848655934453011
1757974809076548400,3.54654833984375,-0.9278717281889168,5.089588745367527,-0.267514626121521
1757974809086532400,3.556532470703125,-1.1343663606803864,3.813740541788936,0.2715704773835837
1757974809096516400,3.566516357421875,-1.3631184907525775,2.4516385346025227,0.8870803566604852
1757974809106500400,3.576500244140625,-1.55433313652575,1.142664891013503,1.4303893614709375
1757974809116484400,3.586484375,-1.734074786648154,-0.1175292318373918,1.537376302636415
1757974809126468400,3.59646826171875,-1.8590151715248824,-1.2138245858639478,1.5106034465231
1757974809136452400,3.606452392578125,-1.8421417781353,-1.911131727731228,1.526293475347012
1757974809146436400,3.616436279296875,-1.8510430236019195,-2.0310972468048334,1.5703053432919083
1757974809156420400,3.62642041015625,-1.6741186228573322,-1.849043228086829,1.8079624451577665
1757974809166403600,3.636403564453125,-1.5232015006810429,-1.3415052093595266,2.2013345710009333
1757974809176387300,3.64638720703125,-1.5618202774107457,-0.858941472890973,2.408004998450726
1757974809186371300,3.656371337890625,-1.676132885289192,-0.6360287895619869,2.265228951023519
1757974809196355300,3.666355224609375,-1.5883219153672457,-0.6669622724860906,1.8571230741679667
1757974809206339300,3.67633935546875,-1.3303781045369802,-0.8295803538501262,1.4067350757695734
1757974809216323300,3.6863232421875,-1.1983517069220542,-0.9139508279293777,1.2059697807103396
1757974809226307300,3.696307373046875,-1.0133225448507814,-0.9667349081337452,1.1585067493982613
1757974809236291300,3.706291259765625,-0.7783896803170443,-0.9430933357834816,1.1877736142843962
1757974809246275300,3.716275390625,-0.5209926166493445,-0.808465085107088,1.2210280875019728
1757974809256259300,3.72625927734375,-0.1359856566347181,-0.5647364082425832,1.1617334563598036
1757974809266243600,3.73624365234375,0.1641173800110817,-0.305549465483427,0.9669843528501688
1757974809276227600,3.7462275390625,0.4414641757737845,-0.2379255435436963,0.7477678936906158
1757974809286211600,3.756211669921875,0.6288192235093564,-0.2113449951320886,0.6242306536100805
1757974809296194300,3.7661943359375,0.7519955943882465,-0.3018330753087997,0.5531329180799425
1757974809306178300,3.77617822265625,0.7185866612613201,-0.3920142814934253,0.5479888331897557
1757974809316162300,3.786162353515625,0.6735690503399818,-0.5732213279932737,0.6618817543514073
1757974809326146300,3.796146240234375,0.6552074642192572,-1.0610638816475868,0.7945856128364801
1757974809336130300,3.80613037109375,0.5002671509414911,-1.5199030436575411,0.8724095878817141
1757974809346114300,3.8161142578125,0.3684446053355932,-1.887483141118288,0.8558065358661114
1757974809356098300,3.826098388671875,0.2380307574838399,-2.403970774498582,0.8237292897343635
1757974809366082300,3.836082275390625,0.1481250072397291,-2.945644287061691,0.7294955932885407
1757974809376066600,3.846066650390625,0.1362484722893685,-3.3746886147886515,0.5107029124990106
1757974809386050600,3.856050537109375,0.1122737955272197,-3.702360480231047,0.2630335351847112
1757974809396034600,3.86603466796875,0.1310815179802477,-3.988932858043909,0.2026229056246578
1757974809406018600,3.8760185546875,0.066725073403865,-4.267243018946052,0.2459595046564936
1757974809416002600,3.88600244140625,-0.1900746819578111,-4.183380494388937,0.2821962085552513
1757974809425985300,3.8959853515625,-0.2113169380813837,-4.224562399604916,0.3881310103192925
1757974809435969300,3.90596923828125,-0.115051297416538,-4.140224658751488,0.6950967723414302
1757974809445953300,3.915953369140625,-0.0927716610692441,-3.634426177167892,1.0165339081127196
1757974809455937300,3.925937255859375,-0.149758015269041,-3.048652241593599,1.0818480918053537
1757974809465921300,3.93592138671875,-0.2193961265753954,-2.415322774118185,0.8267747949101031
1757974809475905500,3.945905517578125,-0.1635194871831685,-1.9466852716714145,0.3026457068659365
1757974809485889500,3.9558896484375,0.0377810837965458,-1.6111632772505282,0.0258867209285497
1757974809495873500,3.96587353515625,0.1143611231952905,-1.3488093948930502,0.1878169661588966
1757974809505857500,3.975857421875,0.1890893241822719,-1.2233815187603234,0.4395090231180191
1757974809515841500,3.985841552734375,0.1758077447395771,-0.937441593632102,0.7376043732032179
1757974809525825500,3.995825439453125,0.189713520495221,-0.3758598500281572,1.144972364238277
1757974809535809500,4.0058095703125,0.3421358596026897,0.0870715497314929,1.0378021754603832
1757974809545793500,4.01579345703125,0.7116653375655412,0.4204547785580158,0.5280040297813713
1757974809555776300,4.0257763671875,1.044469816656038,0.9274398395776748,0.2394657587230205
1757974809565760300,4.03576025390625,1.249115679475665,1.3188491409152745,-0.0399971524108201
1757974809575744500,4.04574462890625,1.3380816646516325,1.5262410145074128,-0.3189695766139775
1757974809585728500,4.055728515625,1.2400918305426836,1.7956816402554512,-0.5102160788301379
1757974809595712500,4.06571240234375,1.2779630037754772,2.072182121387124,-0.6169464148860424
1757974809605696500,4.075696533203125,1.4142355145275591,2.7860972837060687,-0.2000383690241724
1757974809615680500,4.085680419921875,1.6333745245367288,3.484208143171668,0.6160323687810451
1757974809625664500,4.09566455078125,1.773965483009815,3.5967771222531795,1.4600914029039442
1757974809635648500,4.1056484375,1.5312186567895114,3.057646864432096,1.649217405834794
1757974809645632500,4.115632568359375,1.101869281701371,2.672206700631976,1.1919759613450616
1757974809655616500,4.125616455078125,0.7121503446035087,2.470528528511524,0.3092624215919524
1757974809665600300,4.135600341796875,0.6528980182331054,2.369591535034776,-0.575033638112247
1757974809675584300,4.145584228515625,0.7916804659795016,2.470049220561981,-0.9827500772587956
1757974809685567500,4.1555673828125,0.819871445262432,3.221141728630662,-0.5108987273320555
1757974809695551500,4.165551513671875,0.9423739354677496,4.239931818172336,0.1771516336292028
1757974809705535500,4.175535400390625,0.8692571152001619,5.4932075399369,0.7431127613611519
1757974809715519500,4.18551953125,0.6217331377059221,6.233294669866561,0.2963546438977122
1757974809725503500,4.19550341796875,0.2039781926911324,6.277210383960604,-0.6035198740147054
1757974809735487500,4.205487548828125,-0.1459492706358432,5.368879734000563,-1.5896090325683354
1757974809745471500,4.215471435546875,-0.2527450731433928,4.24555550327301,-1.9198302902325988
1757974809755455500,4.22545556640625,-0.2747873205382377,3.1629595887750384,-1.6596417692154646
1757974809765439500,4.235439453125,-0.5361445200085639,2.035829536023736,-1.4915233368694782
1757974809775423500,4.245423583984375,-0.8045172242641448,1.0974544609338044,-1.374385296306759
1757974809785407200,4.2554072265625,-0.9847533799052238,0.3277145355403423,-0.9762278358832
1757974809795391200,4.26539111328125,-1.0073895746052264,-0.2639104641497135,-0.4483462634377181
1757974809805375200,4.275375244140625,-1.0731962179899217,-0.5065303029894829,-0.1471533857285976
1757974809815358500,4.2853583984375,-1.161011425695568,-0.2484942838311195,-0.3787431503795087
1757974809825342500,4.295342529296875,-1.2518969807572662,0.206454300481081,-0.9058610449761152
1757974809835326500,4.305326416015625,-1.280094316715747,0.49853462806046,-1.255063189703226
1757974809845310500,4.315310546875,-1.2277654329329728,0.2313637008100748,-1.1151407781414686
1757974809855294500,4.32529443359375,-1.2282085005253554,-0.3392570892959833,-0.5996591069333255
1757974809865278500,4.335278564453125,-1.1707407925494016,-0.8432932373821735,-0.2095294701427221
1757974809875262500,4.345262451171875,-1.0639261392109096,-1.249494449660182,-0.0441290645837783
1757974809885246500,4.35524658203125,-0.8552864575147628,-1.6693471706718206,0.0461595474980771
1757974809895230500,4.36523046875,-0.8428479047674685,-1.9376772048294544,0.0971254723645746
1757974809905214200,4.375214111328125,-0.6769272747267038,-2.3502993900656697,0.0372395973309874
1757974809915198200,4.3851982421875,-0.4276360683642327,-2.9596389101445677,0.0674807140767574
1757974809925182500,4.395182373046875,-0.2762695949852466,-3.6159266438812017,0.0558238862916827
1757974809935166500,4.40516650390625,-0.1532196269650012,-4.19495753493607,-0.0393574662677943
1757974809945149400,4.4151494140625,-0.0624717998735606,-4.615139926293492,0.0073829498581588
1757974809955133400,4.425133544921875,0.0271130478531122,-4.830465515494346,0.0151660049498081
1757974809965117400,4.435117431640625,-0.0350602805305272,-4.909708563557267,0.1272486618191003
1757974809975101400,4.445101318359375,-0.2550456051707268,-4.959159115424752,0.402912107604742
1757974809985085400,4.45508544921875,-0.4810509938180446,-5.004142166489363,0.6840190596185625
1757974809995069400,4.4650693359375,-0.5780348657548428,-5.040698165470362,0.813022456150502
1757974810005053400,4.475053466796875,-0.7182091331858188,-4.93640893895626,0.7576685254581272
1757974810015037400,4.485037353515625,-0.8074545198250561,-4.823178281095624,0.475869207265973
1757974810025021400,4.495021484375,-0.783383323885873,-4.887796591478586,0.324165903148055
1757974810035005400,4.50500537109375,-0.6510072360504419,-4.845772974741458,0.350642552793771
1757974810044989400,4.514989501953125,-0.5720628056079149,-4.657339484119415,0.4282341803878545
1757974810054973400,4.524973388671875,-0.7336229023516178,-4.245059244188666,0.5086325359657407
1757974810064957400,4.53495751953125,-0.6981237189471722,-3.7450001830399033,0.517536411780864
1757974810074941400,4.54494140625,-0.5883861638993024,-3.1324744341403243,0.5847429850913584
1757974810084926500,4.554926513671875,-0.642809170417115,-2.388413139882684,0.6350953081041574
1757974810094910500,4.564910400390625,-0.5072042567282915,-1.4760767614126205,0.2370733106285333
1757974810104894500,4.57489453125,-0.3540828294407576,-0.3898796075522899,-0.4456806974902749
1757974810114878500,4.58487841796875,-0.0069440469842404,0.40916356921494,-1.05855862082839
1757974810124862500,4.594862548828125,0.3741630560476333,0.812219469204545,-1.6845730891153214
1757974810134846500,4.604846435546875,0.7574013258893042,1.0501607948392628,-1.9003994674451647
1757974810144830500,4.61483056640625,0.7515799993246793,1.430174257415533,-1.409020117966831
1757974810154814500,4.624814453125,0.5695365750659257,1.9481208574324844,-0.9202493435516952
1757974810164798500,4.634798583984375,0.3507791847854852,2.6013164703726765,-0.6616837475612759
1757974810174782500,4.644782470703125,0.1874093352060765,3.231223562183976,-0.7588594888083636
1757974810184766500,4.654766357421875,0.0255184721380472,3.871837925970554,-1.104296289652586
1757974810194750200,4.664750244140625,-0.1303062958240509,4.173354190415144,-1.5310120283015072
1757974810204734200,4.674734130859375,-0.1322649556111544,4.185989215582609,-1.8591928661793469
1757974810214718500,4.684718505859375,-0.2214578083455562,4.045118855646252,-1.7916750349625945
1757974810224701400,4.694701416015625,-0.4186614654004573,3.963221493682265,-1.3505834188282488
1757974810234685400,4.704685546875,-0.4525836452791467,4.040855352982878,-0.8209992802485823
1757974810244669400,4.71466943359375,-0.5509709542730823,4.08766386590898,-0.8256864151515066
1757974810254653400,4.7246533203125,-0.7019663658499717,4.203694383621215,-1.0533724503621458
1757974810264637400,4.734637451171875,-0.6810586023777723,4.447070593786239,-1.2644016575433312
1757974810274621400,4.744621337890625,-0.6229770002871752,4.804842998459935,-1.372353352087736
1757974810284605400,4.75460546875,-0.5727139629930258,4.8892450367212295,-1.075046375901252
1757974810294589400,4.76458935546875,-0.6591904694408178,4.796146481785178,-0.4023129726678133
1757974810304573400,4.774573486328125,-1.0250795450747012,4.49680873042345,0.1078008878968656
1757974810314557400,4.784557373046875,-1.4436492405384778,4.243051996019482,0.1941616590104997
1757974810324541400,4.79454150390625,-1.711253298509121,3.8580999079972496,-0.0279978678636252
1757974810334525400,4.804525390625,-2.0740642818719146,3.3235365197002884,-0.083963500713557
1757974810344509400,4.814509521484375,-2.4312340444773435,2.5810195322752,0.2930003650337457
1757974810354492400,4.824492431640625,-2.6581156314373016,1.6484475905060767,0.8739999258130788
1757974810364476400,4.834476318359375,-2.880747744259238,0.7251414897322654,1.4927552167519926
1757974810374460400,4.84446044921875,-2.8815993926525114,-0.227204243043065,1.9478902635470032
1757974810384444400,4.8544443359375,-2.8070915564179417,-0.9547107083410024,2.18627144190371
1757974810394428400,4.864428466796875,-2.5514836411893365,-1.4484779758691786,2.417722820997238
1757974810404412400,4.874412353515625,-1.8635042996376752,-1.4992401948571203,2.7213728826001287
1757974810414396400,4.884396484375,-1.1197061132956296,-0.9865554608911276,2.370763355293125
1757974810424380400,4.89438037109375,-0.7220476153701544,-0.2794996629476547,1.691754525052011
1757974810434364400,4.904364501953125,-0.3478583289027214,0.2387783609807491,1.3131490295775234
1757974810444348400,4.914348388671875,-0.1252414136499166,0.6025263329327106,1.2206133692212402
1757974810454332400,4.92433251953125,-0.1372796419680118,0.7598235115349292,1.2388413920901715
1757974810464316400,4.93431640625,-0.1146405246585607,0.6169768830895423,1.169949788302183
1757974810474300400,4.944300537109375,0.0890630158096551,0.3913566943675279,1.0670892794169484
1757974810484284400,4.954284423828125,0.4265325641017407,0.1616086120605468,0.9251989287830888
1757974810494267400,4.964267333984375,0.8218979095887392,-0.2353343580067157,0.742593267531693
1757974810504251400,4.97425146484375,1.2050373952310531,-0.9380132560402156,0.4589566509097814
1757974810514235400,4.9842353515625,1.4640712663203477,-1.829233196723461,0.2856314437009394
1757974810524219400,4.994219482421875,1.4426596449792384,-2.8922219089537857,0.1731596413835883
1757974810534203600,5.00420361328125,1.3145797930330037,-4.014143287146092,-0.0060590077780187
1757974810544187400,5.0141875,1.0726531240891664,-4.879402272620797,-0.0044379824474453
1757974810554171400,5.02417138671875,0.6982640042006969,-5.338215131145716,0.1787003243759274
1757974810564155400,5.0341552734375,0.3612988252341747,-5.746067617762089,0.0689399729743599
1757974810574139400,5.044139404296875,0.1546995267918333,-5.90910421679914,-0.4040951799094677
1757974810584123400,5.054123291015625,-0.0532306549280881,-5.692803060564398,-0.8798777318052947
1757974810594107400,5.064107421875,-0.0441162051022052,-5.262053097963332,-0.8119606721378863
1757974810604091400,5.07409130859375,0.1231008944898843,-4.880718615916371,-0.2192333372291177
1757974810614075400,5.084075439453125,0.0222492412090301,-4.590312359029054,0.507003765720129
1757974810624059400,5.094059326171875,-0.2179980232805013,-4.381784174883365,1.2354051340311765
1757974810634042600,5.104042724609375,-0.342823914932087,-4.158548250949383,1.7023501533463596
1757974810644026600,5.114026611328125,-0.1891741529215127,-3.7856718006461856,1.6532630279637872
1757974810654010600,5.1240107421875,0.0102250414162874,-3.070775226074457,1.181209506528452
1757974810663994400,5.133994384765625,0.1993278096020221,-2.3947242227256296,0.6614770460080355
1757974810673978400,5.143978271484375,0.4593295758754014,-2.032598883539438,0.2615427851703018
1757974810683962400,5.15396240234375,0.6660627663630991,-1.7192133176028728,0.1443554255731403
1757974810693946400,5.1639462890625,0.6355483856339007,-1.3081325165897606,0.3190461489815265
1757974810703930400,5.173930419921875,0.548580880798772,-0.6957306863307953,0.6707835112746805
1757974810713914400,5.183914306640625,0.4589146383989602,0.1483411342084407,1.0223660483323036
1757974810723898400,5.1938984375,0.4341846132248639,1.041909683844447,1.0418722744435072
1757974810733882400,5.20388232421875,0.5277537082821131,1.904385176080465,0.6650611881051213
1757974810743866400,5.213866455078125,0.7988309222560376,2.5579665734678505,0.0203838126633316
1757974810753850400,5.223850341796875,1.1916799740731716,2.633196294236183,-0.5956779283426702
1757974810763834400,5.23383447265625,1.3443220203459263,2.3228508266478776,-0.6717931267086417
1757974810773817300,5.2438173828125,1.3432324715435504,1.8804945974051952,-0.3243191209483891
1757974810783801300,5.25380126953125,1.329098732250929,1.5570155074775218,0.1329598790727555
1757974810793785300,5.263785400390625,1.3673707413695753,1.6004793861508368,0.7169436432946473
1757974810803769300,5.273769287109375,1.517913331145048,2.066321704921126,1.025947998472303
1757974810813753300,5.28375341796875,1.6679507478773592,2.749099386176467,0.797826348323375
1757974810823737300,5.2937373046875,1.6556524073183536,3.367897054952383,0.3320525647446513
1757974810833721300,5.303721435546875,1.779200461053848,3.920462548407912,-0.1001834716957062
1757974810843705300,5.313705322265625,1.906149847665429,4.147950284567475,-0.4113936663545668
1757974810853689300,5.323689453125,2.069438960158825,3.813316178897023,-0.6424816920284181
1757974810863673300,5.33367333984375,1.9864877052277323,3.5578280906558035,-0.9065190704934298
1757974810873657300,5.3436572265625,1.9529384868472812,3.700505207753181,-1.109985295074433
1757974810883641600,5.3536416015625,1.8144728499650955,4.361246998289227,-1.0599893842838704
1757974810893625600,5.36362548828125,1.771330458331108,5.140014279747009,-1.001568028844893
1757974810903609600,5.373609619140625,1.8263135098844765,5.671171658992767,-1.2964026235684751
1757974810913592300,5.38359228515625,1.500205240496993,5.836061776942015,-1.6413503257215023
1757974810923576300,5.393576416015625,0.8573157713852823,5.17255578238964,-1.698479449392855
1757974810933560300,5.403560302734375,0.3012344518285244,3.937154740011692,-1.4637676071986556
1757974810943544300,5.41354443359375,-0.2674755362201482,2.598357620567083,-1.0621424706645308
1757974810953528300,5.4235283203125,-0.7067894020922482,1.2466536732763052,-0.7938552527353167
1757974810963512300,5.43351220703125,-1.0585773985940965,0.1766015985310077,-0.4841004445165395
1757974810973496300,5.443496337890625,-1.431054547381401,-0.8424386663794518,-0.1370934717461466
1757974810983480600,5.45348046875,-1.5364409214824435,-1.7318308071136477,0.2218232806570828
1757974810993464600,5.463464599609375,-1.4484598556905983,-2.0245190374583006,0.4165567482061684
1757974811003448600,5.473448486328125,-1.178040082712099,-1.5044827716857194,0.1761965248614549
1757974811013432600,5.4834326171875,-0.9855185190588236,-0.7361679106593132,-0.3624430268332362
1757974811023416600,5.49341650390625,-0.8888818531244993,-0.0101297643482685,-0.6688152068763971
1757974811033400600,5.503400634765625,-0.7736462121170014,0.2991857756704091,-0.5552731449790299
1757974811043384300,5.51338427734375,-0.6380700130660086,0.2592261057257652,-0.3708554658696055
1757974811053367300,5.5233671875,-0.4707498914908617,-0.1585819577157497,-0.2619078921556472
1757974811063351300,5.533351318359375,-0.3677899408191442,-0.6419663629174233,-0.1444664847321808
1757974811073335300,5.543335205078125,-0.3497118478149175,-1.0985030932039022,-0.1167177693240344
1757974811083317500,5.5533173828125,-0.3747382621197029,-1.617021940150857,-0.1747906035862863
1757974811093301500,5.563301513671875,-0.2909007989386096,-2.006045807656646,-0.226992499988526
1757974811103285500,5.573285400390625,-0.2059732389658689,-2.4170032745510337,-0.1229870588518679
1757974811113269500,5.58326953125,-0.1882131258696317,-2.787462726840377,0.0093417557757347
1757974811123253500,5.59325341796875,-0.2259048508822917,-3.195704505035281,-0.029342122079432
1757974811133237500,5.603237548828125,-0.2447639016637578,-3.6923435286074873,-0.1597681718256324
1757974811143221500,5.613221435546875,-0.2515618912408128,-4.1316602440238,-0.2651847218692302
1757974811153205800,5.623205810546875,-0.163070501306653,-4.426931476598978,-0.1565085855077952
1757974811163189800,5.633189697265625,0.0489297428637742,-4.668662257644534,0.0968263432875275
1757974811173173500,5.643173583984375,0.1670639548569917,-4.827839843165874,0.296138297733292
1757974811183157500,5.653157470703125,0.0740659011533483,-4.777112695491313,0.4935309014890343
1757974811193141500,5.6631416015625,-0.0197246546348556,-4.746724571490288,0.5363017563968897
1757974811203124500,5.67312451171875,-0.2450759815539233,-4.528381095772981,0.3067311495486646
1757974811213108500,5.6831083984375,-0.366699222972989,-4.259068480318785,-0.0560855329025536
1757974811223092500,5.693092529296875,-0.31919571352005,-4.047371018487215,-0.3142060154739767
1757974811233076500,5.703076416015625,-0.1509790632302872,-3.819539583456516,-0.382702482464537
1757974811243060500,5.713060546875,0.0598690700292587,-3.335921369498968,-0.2323543192826211
1757974811253044500,5.72304443359375,0.2569581607937812,-2.7939719626039263,-0.1041918305542319
1757974811263028700,5.73302880859375,0.1466103648930788,-2.253503149655461,0.051081879396364
1757974811273012700,5.7430126953125,-0.0534597920754225,-1.763732258287072,0.0566618714857846
1757974811282996700,5.752996826171875,-0.1993511904776096,-1.1334177547186612,-0.2168997066497802
1757974811292980500,5.76298046875,-0.1776286034911871,-0.5138046779066324,-0.4753259672347455
1757974811302964500,5.772964599609375,0.0813730458289384,0.1589578052908182,-0.3999082496136427
1757974811312948500,5.782948486328125,0.273560920548439,1.039772671815753,-0.4158496959153562
1757974811322932500,5.792932373046875,0.1736369035065174,1.8737708421081305,-0.6936245808970183
1757974811332916500,5.80291650390625,-0.0546294158101081,2.430919571700692,-1.1613667419392617
1757974811342900500,5.812900390625,-0.5672761558532714,2.570076697978377,-1.6113979627892374
1757974811352883500,5.822883544921875,-0.8041933991372585,2.238130223956704,-1.8229662452831863
1757974811362867700,5.83286767578125,-0.778591340368986,2.187230642324686,-2.001293352432549
1757974811372851700,5.842851806640625,-0.8224772438466549,2.533711253133416,-1.740393468275666
1757974811382835700,5.852835693359375,-0.8780524160742759,2.787147669541836,-1.0012042370337992
1757974811392819700,5.86281982421875,-1.0271195264697075,3.3497160860955715,-0.5195776352848858
1757974811402803700,5.8728037109375,-1.2532418194949626,3.91834014942646,-0.4541969256946817
1757974811412787500,5.882787353515625,-1.6091022530674934,3.954855816397071,-0.6483991724438964
1757974811422771500,5.892771484375,-2.310638410806656,3.7275475284576416,-0.9605411680601535
1757974811432755500,5.90275537109375,-2.478195117616653,3.657539926251769,-0.9942227806486188
1757974811442739500,5.912739501953125,-1.8087024498701092,3.91774393709898,-0.6510264522075653
1757974811452723500,5.922723388671875,-1.2418904043972492,4.312708885091543,-0.4689093781907111
1757974811462707500,5.93270751953125,-1.0366998402416705,4.566493676546216,-0.0682816186634823
1757974811472691500,5.94269140625,-1.359061324316263,4.457124370288849,0.6664968469314276
1757974811482675500,5.952675537109375,-1.9275532857000828,4.052476232671737,1.4816634755037723
1757974811492658700,5.96265869140625,-2.481554949438572,3.5481712045162914,2.0685762058496477
1757974811502642700,5.972642578125,-2.780492303305864,2.9302053103893995,2.365502512155473
1757974811512626700,5.982626708984375,-2.6694647084474563,2.199088253378868,2.2895246033683416
1757974811522610400,5.9926103515625,-2.482739190787077,1.4527362178355454,2.0487125446029006
1757974811532594400,6.002594482421875,-2.298502567332983,0.8072925341963767,1.820112171026319
1757974811542578400,6.012578369140625,-1.9533295319914816,0.1872229457885026,1.815852467755228
1757974811552562400,6.0225625,-1.621059232842922,-0.2086906812310218,2.0398706281080843
1757974811562546400,6.03254638671875,-1.1780910091817378,-0.1963432408332824,2.333478603646159
1757974811572530400,6.042530517578125,-0.6425345181941986,0.0559890137255191,2.223898284986615
1757974811582514400,6.052514404296875,-0.4679869295835495,0.5103413857102393,1.816723989892751
1757974811592498400,6.06249853515625,-0.3596282616734504,1.0239952569693327,1.2321902636379003
1757974811602482400,6.072482421875,-0.0934270562380552,1.4643740486592054,0.5761459102030844
1757974811612466700,6.082466796875,0.201437349101901,1.6835434538066387,0.2456898208696395
1757974811622450700,6.09245068359375,0.486512766355276,1.5266683000087735,0.2289600372018292
1757974811632433700,6.10243359375,0.7321481536239385,1.0922142221927642,0.4195856310406699
1757974811642417400,6.11241748046875,0.9488929619729518,0.6145505327254533,0.684636826190725
1757974811652401400,6.1224013671875,1.0696066690653565,0.1807984656989574,0.8757513725902885
1757974811662385400,6.132385498046875,1.124895425567031,-0.2253413717806339,0.938763416820392
1757974811672369400,6.142369384765625,1.073797691014409,-0.6825450415432452,0.9057952862635256
1757974811682353400,6.152353515625,1.064942768907547,-1.2812445096641778,0.6995337318755686
1757974811692337400,6.16233740234375,1.0773597674101592,-1.9465356340676545,0.236853822658956
1757974811702321400,6.1723212890625,0.9838590614140034,-2.536190794989466,-0.2582307380128651
1757974811712305700,6.1823056640625,0.9743962365418672,-3.3147353736072778,-0.5422344343814999
1757974811722289700,6.19228955078125,0.9328075040906668,-4.05187592869103,-0.5828246573146433
1757974811732273700,6.202273681640625,0.7745376810640097,-4.619612103271484,-0.4998548438135534
1757974811742257700,6.212257568359375,0.615410948947072,-4.96113889106512,-0.1170385987762361
1757974811752241700,6.22224169921875,0.668675506144762,-5.373489273622631,0.1244247635047882
1757974811762225700,6.2322255859375,0.4803180033683776,-5.692578019636869,0.197412623630464
1757974811772209700,6.242209716796875,0.3734638948023319,-5.721963688597083,0.3210650875885039
1757974811782192400,6.2521923828125,0.6436860263168811,-5.588372964274883,0.4013519456159323
1757974811792176400,6.26217626953125,0.453339980071783,-5.187245401999354,0.3566781796962022
1757974811802160400,6.272160400390625,0.0240168354034423,-4.876864278575778,0.2190235669359564
1757974811812144600,6.28214453125,-0.1167114765805657,-4.754910216033458,0.1901199093390256
1757974811822128600,6.292128662109375,-0.1313759617490228,-4.545139338350296,0.4504105024911463
1757974811832112600,6.302112548828125,-0.0274538149816449,-4.34544620256722,1.0340159349199385
1757974811842096600,6.3120966796875,0.226197111827135,-3.871798178482056,1.6701447507902978
1757974811852080600,6.32208056640625,0.6978676983594894,-3.3019249918729066,1.7382414048083126
1757974811862064600,6.332064697265625,0.9083353261351584,-2.68152397955358,1.3229805416315794
1757974811872048600,6.342048583984375,0.9130407273471356,-1.6940099027633666,0.9389028983563183
1757974811882032600,6.35203271484375,0.9078115945219992,-0.5438567018210888,0.6734970810823142
1757974811892016600,6.3620166015625,0.9654816932022572,0.3945505219727754,0.3144036934705451
1757974811902000400,6.37200048828125,1.040328552132845,1.077986374875903,-0.1711141435632482
1757974811911984400,6.381984375,1.1325848110258578,1.499890183198452,-0.5001467394322157
1757974811921968400,6.391968505859375,1.129863277107477,1.8948077849179503,-0.5498103495284915
1757974811931951600,6.40195166015625,1.360057349616289,2.147999871176481,-0.6871116188064217
1757974811941935600,6.411935546875,1.5112673172593116,2.208376306205988,-0.6787542709581553
1757974811951919600,6.421919677734375,1.4360779285013674,2.4415695605307817,-0.2581470052521675
1757974811961903600,6.431903564453125,1.3727648554980754,2.7758640589833257,0.3028724282938987
1757974811971887600,6.4418876953125,1.498026727414131,3.074700875085592,0.7571594068922102
1757974811981871600,6.45187158203125,1.7261773113965988,3.2747891476660964,0.9718217098787426
1757974811991855600,6.461855712890625,1.5695447341829538,3.467412491193413,0.8745127707060426
1757974812001839600,6.471839599609375,1.2400316247880458,3.4495366427630185,0.5557810579685494
1757974812011823600,6.48182373046875,1.1754922248601911,3.422818731707334,0.4057406090289354
1757974812021807400,6.491807373046875,1.295641868329048,3.8404467624068257,0.4579980350106954
1757974812031791400,6.501791259765625,1.4010253198206424,4.304496937063336,0.5125980785958468
1757974812041775400,6.511775390625,1.3302683605521917,4.475108355268835,0.4720524985220283
1757974812051759400,6.52175927734375,1.4232599479824304,4.689145073702931,0.1218116583969444
1757974812061743600,6.53174365234375,1.4029729467570782,4.794723170983791,-0.2020974204458296
1757974812071727600,6.5417275390625,1.1269050118237731,4.802414894530177,-0.618250410156697
1757974812081712000,6.551712158203125,0.5575421128243208,4.752204464206099,-1.2019835606183855
1757974812091695400,6.5616953125,0.0825578716993331,4.28045087556541,-1.78345841075927
1757974812101679400,6.571679443359375,-0.4345569536685943,3.6621249159544704,-1.8728347303017971
1757974812111663400,6.581663330078125,-0.8378945932090281,2.898153052568436,-1.2357459102928638
1757974812121647400,6.5916474609375,-1.0636983218044045,2.08086168692708,-0.5843760514751076
1757974812131631000,6.601631103515625,-1.3177993396013974,1.3018459836661815,-0.1728635079812258
1757974812141615000,6.611614990234375,-1.49221015008986,0.7801274638950825,-0.0292746828664094
1757974812151599000,6.62159912109375,-1.4702975934892892,0.5396732786566019,-0.0699456428855657
1757974812161583000,6.6315830078125,-1.3422346926778554,0.3337310193508863,-0.2427984102770686
1757974812171567000,6.641567138671875,-1.1399918724119662,0.060543608289957,-0.5245199870578945
1757974812181551000,6.651551025390625,-0.8619272107034921,-0.1320879185438156,-0.7234780865646898
1757974812191535400,6.661535400390625,-0.8626859201163053,0.0227256265491247,-0.5999034370832145
1757974812201519400,6.671519287109375,-0.9434797047525644,0.0404331326752901,-0.4336843355525285
1757974812211503400,6.68150341796875,-1.0197843612760304,-0.070111062580347,-0.2600238319747149
1757974812221487400,6.6914873046875,-1.0669558622956274,-0.3468056049793958,-0.0521196980115026
1757974812231471400,6.701471435546875,-0.9612918402969836,-0.759492087623477,0.1007632443450391
1757974812241454300,6.711454345703125,-0.8281909453183413,-1.2254548179030418,0.1231516017638146
1757974812251438000,6.72143798828125,-0.6240390765607357,-1.844329059046507,-0.0103138887435197
1757974812261422000,6.731422119140625,-0.4337485598951578,-2.462195584452152,-0.0760413294121623
1757974812271406000,6.741406005859375,-0.2303022090584039,-2.911977579781413,0.0532012827031314
1757974812281390000,6.75139013671875,-0.0139583827257156,-3.209858118072152,0.3734874218083918
1757974812291374000,6.7613740234375,0.0874438810420688,-3.5250989564865827,0.634790187677741
1757974812301358300,6.7713583984375,0.26315233925879,-3.8782290883123873,1.0145981908097863
1757974812311342300,6.78134228515625,0.4500643194019794,-4.52920527163744,0.9896379370763896
1757974812321326300,6.791326416015625,0.5162169997453689,-5.038675719732046,0.7113958729743957
1757974812331310300,6.801310302734375,0.3104454208314419,-5.151003875795007,0.2581112763516605
1757974812341294300,6.81129443359375,0.1728898845314979,-5.295695255324244,-0.2617439337655902
1757974812351278300,6.8212783203125,0.1655681633412838,-5.433006461474299,-0.7104590305157006
1757974812361262300,6.831262451171875,0.276151539829839,-5.3501738644868135,-0.7953666802115738
1757974812371246300,6.841246337890625,0.3865232828617095,-4.882396778261661,-0.2349723928265273
1757974812381230300,6.851230224609375,0.2495160280942916,-4.111048248627782,0.3729888246364891
1757974812391214000,6.861214111328125,0.1372071795199997,-3.3498388356924056,0.835487239806354
1757974812401197300,6.871197265625,-0.0168412081530317,-2.7016467301279303,0.8626707225471735
1757974812411181300,6.881181396484375,-0.2861632490226998,-2.206346261683106,0.5605316500291228
1757974812421165300,6.891165283203125,-0.3464741810679435,-2.0116186393529176,0.2853331914067268
1757974812431149300,6.9011494140625,-0.4390039962053298,-1.8485200809955595,0.0807329943597316
1757974812441133300,6.91113330078125,-0.4427659790873527,-1.65931443695724,-0.109914080658555
1757974812451117300,6.921117431640625,-0.2846866736641154,-1.2594675621420144,-0.1841951223999261
1757974812461101300,6.931101318359375,0.0816740928684361,-0.6860650323629379,-0.2344885548323392
1757974812471085300,6.941085205078125,0.4771417114198207,0.1092278519600629,-0.3479325631827116
1757974812481069300,6.9510693359375,0.8077683350145817,0.9326046749949456,-0.5625967658653855
1757974812491053300,6.96105322265625,0.9053963500738144,1.4941139378845691,-0.8990059183843433
1757974812501037300,6.971037353515625,0.8586194013297558,1.713243011021614,-1.092515981618315
1757974812511021000,6.98102099609375,0.6925263373315333,1.6297580876052378,-1.1888996957048774
1757974812521005000,6.991005126953125,0.4908323831200599,1.4297761980086563,-1.180631779705733
1757974812530989000,7.000989013671875,0.2635246797025203,1.3163047171294688,-1.0554372739374638
1757974812540973300,7.010973388671875,0.0896492912650108,1.1322995643436908,-0.918371859242022
1757974812550957300,7.020957275390625,-0.0520972669839858,1.0080769723474978,-0.6552854248262941
1757974812560940300,7.030940185546875,-0.287999780267477,1.0669055934131144,-0.5018748783990741
1757974812570924300,7.04092431640625,-0.5195967418441548,1.2983411904156208,-0.2726651407524943
1757974812580908300,7.050908203125,-0.7497557065069675,1.6935498840361831,-0.4674205278724431
1757974812590892300,7.060892333984375,-1.0916051503837108,2.184900153550505,-0.7169871171101927
1757974812600876300,7.070876220703125,-1.162424653494358,2.543204473143816,-0.631679362180829
1757974812610860300,7.0808603515625,-1.0826233870267867,2.9180156909018757,-0.5027822025023401
1757974812620844300,7.09084423828125,-1.2327251011669635,3.334807855299115,-0.398619817238301
1757974812630828000,7.100828125,-1.4421931965112684,3.7256858262389896,-0.3972010364815592
1757974812640812000,7.11081201171875,-1.6307915223062035,4.086123066207766,-0.4860469024091958
1757974812650796300,7.12079638671875,-1.6296154642641545,4.312961398547888,-0.806669141601026
1757974812660780300,7.1307802734375,-1.6421218946158884,4.266019030109048,-1.513763810250163
1757974812670764300,7.140764404296875,-1.4254139111459254,3.978099329340458,-2.190626276112348
1757974812680748300,7.150748291015625,-1.0002490552008152,3.6810751156181096,-2.086831701247394
1757974812690732300,7.160732177734375,-0.5479611779978498,3.435374261897802,-1.1830495083719492
1757974812700716300,7.17071630859375,-0.3285924874186515,3.3239614671140907,-0.504889696175605
1757974812710700300,7.1807001953125,-0.7338508658885955,3.299268924406171,0.2106405001245438
1757974812720683300,7.190683349609375,-1.3329916480362414,3.16674261444509,0.8231022438772022
1757974812730667300,7.200667236328125,-2.1398644955158237,2.8645535653054712,1.209355623756349
1757974812740651300,7.2106513671875,-2.67005507555604,2.264610234603285,1.476980139993131
1757974812750635300,7.22063525390625,-2.9151345825076103,1.4215531440645457,1.7823183008134365
1757974812760619300,7.230619384765625,-2.7697394386231897,0.6721411364287138,2.0714064608395097
1757974812770603300,7.240603271484375,-2.519999538645148,0.0810854610592126,2.2098148145765064
1757974812780587300,7.250587158203125,-2.1117940008074045,-0.4286182112693786,2.188497008998692
1757974812790571300,7.2605712890625,-1.6525602865219116,-0.7596475704461336,2.151451619065553
1757974812800555300,7.27055517578125,-1.209032675412297,-0.6845370921432972,2.0091370516702534
1757974812810539300,7.280539306640625,-0.9093243371725082,-0.2891255694270134,1.6929184542648492
1757974812820523300,7.290523193359375,-0.6629308250129222,0.0496802689701318,1.3425775147661565
1757974812830507300,7.30050732421875,-0.415505120261386,0.2617483176797628,1.0325365830823778
1757974812840491300,7.3104912109375,-0.3042168286401778,0.4451426450908183,0.7217634646665304
1757974812850475300,7.320475341796875,-0.023025522811152,0.3172071700513362,0.5307814586054533
1757974812860459300,7.330459228515625,0.2757551426570862,0.0784732327342033,0.4135289978828281
1757974812870443300,7.340443359375,0.4887701168280094,-0.268846166986227,0.2849070749491453
1757974812880427300,7.35042724609375,0.6885550225477666,-0.600729512643814,0.2569488084435463
1757974812890410200,7.36041015625,0.8484031277418136,-0.8992594547539949,0.3086004505518823
1757974812900394200,7.370394287109375,0.9566554126679896,-1.1694009222477677,0.4387668995138257
1757974812910378200,7.380378173828125,0.960887862605974,-1.5629951664090156,0.5965077302303164
1757974812920362200,7.3903623046875,0.9043511518698184,-2.0386814183235167,0.5571882578853518
1757974812930346200,7.40034619140625,0.8735282166481018,-2.464178282701969,0.4287932025101035
1757974812940330200,7.410330322265625,0.8210247069507837,-2.8943548293292523,0.3051403001606464
1757974812950314200,7.420314208984375,0.7961397834759205,-3.404693876951933,0.1406985105007887
1757974812960298200,7.43029833984375,0.7153074934601783,-3.877611833196878,-0.1178770223617553
1757974812970282200,7.4402822265625,0.618516586812213,-4.204305208995938,-0.2399354220613837
1757974812980266200,7.450266357421875,0.4916991560172289,-4.518545345935225,-0.1586651790197938
1757974812990250200,7.460250244140625,0.4276349723856896,-4.684358423948288,0.0841072200331836
1757974813000234200,7.470234130859375,0.3846211755674332,-4.759283608812093,0.3778315884925425
1757974813010218200,7.48021826171875,0.2122556802362203,-4.678501514613628,0.6818947609409689
1757974813020202200,7.4902021484375,0.1258008010983467,-4.454076673156023,0.919350568081066
1757974813030186200,7.500186279296875,0.0114747492164373,-4.032565663543343,1.0178151070296764
1757974813040170200,7.510170166015625,-0.0332985315550118,-3.680217622005939,0.9712433254688978
1757974813050154200,7.520154296875,0.0299104234866797,-3.4076170709222557,0.5545160430014133
1757974813060138200,7.53013818359375,-0.0304038330268114,-3.0024568921297785,0.004693637708947
1757974813070121200,7.540121337890625,0.1614122127056121,-2.7566835576951503,-0.1023966907657682
1757974813080105200,7.550105224609375,0.4200565730206668,-2.461158642619848,0.1878498455151915
1757974813090089200,7.560089111328125,0.4394206872474402,-1.7960861294031143,0.6633635173417627
1757974813100073200,7.5700732421875,0.4659259054005146,-1.1288976469457148,1.073401531303674
1757974813110057500,7.580057373046875,0.5556050803471356,-0.5580734432220459,1.1773124990899115
1757974813120041500,7.59004150390625,0.5607318487763404,-0.187379013133049,0.9207005213852972
1757974813130025500,7.600025390625,0.5563303989470004,-0.0087795187830924,0.5428515433665365
1757974813140009500,7.610009521484375,0.5669178439348935,0.2307616432636976,0.3441136624816805
1757974813149993500,7.619993408203125,0.5676788183700293,0.3412982397347688,0.2408919190686196
1757974813159977500,7.6299775390625,0.7744429885178804,0.345744113227725,0.110490419241786
1757974813169961500,7.63996142578125,0.936740824951604,0.4643377594262361,-0.0559621987838298
1757974813179945500,7.649945556640625,0.9329875368326902,0.683798840996623,-0.1378082689519971
1757974813189929500,7.659929443359375,0.9780104084510356,0.9435206212848424,0.0040582624148577
1757974813199913200,7.669913330078125,0.9931653074849396,1.2169564541488884,0.3125843325562775
1757974813209897200,7.679897216796875,0.7993494662374258,1.539167131575942,0.598316314022243
1757974813219881200,7.689881103515625,0.7579716731231659,1.7464666507095097,0.7609548536524177
1757974813229865200,7.699865234375,0.8130833194922655,1.8845394888818263,0.9285460472539068
1757974813239849200,7.70984912109375,0.7440092718094586,1.989836431133747,1.123053816288337
1757974813249832400,7.71983251953125,0.7220885319024324,2.0702397551476954,1.1887032963499429
1757974813259816400,7.72981640625,0.7832032911438495,2.0029519332945345,1.0589635483674704
1757974813269800400,7.739800537109375,0.8155342197757214,1.8999141681462528,0.6332383551258594
1757974813279784400,7.749784423828125,0.8808224653095006,2.0174948379099367,0.1770555528435856
1757974813289768400,7.7597685546875,1.1008856044262647,2.160867536056041,-0.0660722355183213
1757974813299752400,7.76975244140625,1.2935633084893223,2.5074714809834955,-0.2173484733305871
1757974813309736400,7.779736328125,1.4727425024233758,2.9775206037938595,-0.3518800586994737
1757974813319720200,7.78972021484375,1.484593245345354,3.5941140405237677,-0.3524219835564494
1757974813329704200,7.7997041015625,1.4517770174145697,4.381479638978838,-0.4347094408165663
1757974813339688200,7.809688232421875,1.35585931340456,5.009361362442374,-0.3804481276664883
1757974813349672200,7.819672119140625,1.015033440421894,4.998939337149262,-0.163582396351546
1757974813359656400,7.829656494140625,0.5355663913270459,4.767485619968175,-0.1188452098067849
1757974813369640400,7.839640380859375,0.3630629122972488,5.059966929563879,-0.2564604404047131
1757974813379624400,7.84962451171875,-0.1573170523464679,3.822463361948728,-0.3210805774185806
1757974813389608400,7.8596083984375,-0.982158687236905,2.1342413949370385,-0.4802336860857903
1757974813399592400,7.869592529296875,-1.4938655160814522,0.8724813379436731,-0.5263252098489553
1757974813409576400,7.879576416015625,-1.6342758572906255,-0.1074964981228113,-0.4677310551263391
1757974813419560400,7.889560546875,-1.4810317534714936,-0.7976292183160781,-0.4024794883411377
1757974813429543400,7.89954345703125,-1.2312813320994376,-1.3396440916627643,-0.3761289492931217
1757974813439527200,7.909527099609375,-0.9813613993793724,-1.5730957046627998,-0.5148137088187038
1757974813449511200,7.91951123046875,-0.7286305008918047,-1.476708045053482,-0.7291266138456761
1757974813459495400,7.929495361328125,-0.4596814580529928,-0.9274848477631806,-0.7359367322519421
1757974813469479400,7.9394794921875,-0.3960147493064403,-0.2097504194170236,-0.7856389207929372
1757974813479463400,7.94946337890625,-0.5750555576831102,0.3257926275670528,-1.050075600773841
1757974813489447400,7.959447509765625,-0.8047218069255352,0.3477905243635177,-1.1855838491551578
1757974813499431400,7.969431396484375,-0.952879985782504,0.0090717797279357,-0.955543067511916
1757974813509415400,7.97941552734375,-1.0030044913887977,-0.4071902233153581,-0.3745410225145518
1757974813519399400,7.9893994140625,-1.0107593432992696,-0.7802280016601085,0.0097476331628859
1757974813529383400,7.999383544921875,-0.9546808977246284,-1.0203139381080866,0.0763512721441686
1757974813539367400,8.009367431640625,-0.7089923189640045,-1.0738619884222744,-0.0581670884169638
1757974813549351400,8.019351318359375,-0.3662562284458428,-1.0219704731434582,-0.1908878980368375
1757974813559335400,8.02933544921875,-0.0043892114022746,-1.1149673212707043,-0.3560330136604607
1757974813569319400,8.0393193359375,0.2550935359656811,-1.2844102802187205,-0.3831676888234913
1757974813579303200,8.04930322265625,0.366150941440463,-1.576157430320978,-0.2162107014723122
1757974813589287200,8.059287109375,0.39120354963243,-1.9180290860295293,-0.0601674684539437
1757974813599271400,8.069271484375,0.3289975610882044,-2.2535674470633267,-0.0316489377170801
1757974813609255400,8.07925537109375,0.2536047221800312,-2.662330618783832,-0.1176338612556457
1757974813619238400,8.08923828125,0.302832004951965,-2.945186021900177,-0.1381366971887648
1757974813629222400,8.099222412109375,0.3751128310531377,-3.165206490918994,-0.0580928541369736
1757974813639206400,8.109206298828125,0.4470148687034845,-3.3893343952566384,0.0803987939693033
1757974813649190400,8.1191904296875,0.5028618436098099,-3.5679046635121106,0.3029696781232953
1757974813659174400,8.12917431640625,0.4893441903889179,-3.750075586608052,0.5211845590248704
1757974813669158400,8.139158447265626,0.4841285015672445,-3.9192362214833496,0.609155687944591
1757974813679142400,8.149142333984376,0.3540133444011211,-3.8740766448080537,0.5182281934373081
1757974813689126400,8.15912646484375,0.2810428007364273,-3.70460972046256,0.3864920109406113
1757974813699110100,8.169110107421876,0.1320364806175231,-3.5896471242427825,0.1240310149468481
1757974813709094400,8.179094482421876,0.0144236530167516,-3.2958564856141805,-0.0441107982747256
1757974813719078400,8.189078369140624,0.0275321317817084,-2.8509219303160904,0.0104912911370396
1757974813729062400,8.1990625,0.068382028564345,-2.4032202483922243,0.1142116317220032
1757974813739046400,8.20904638671875,0.0586573561519384,-1.9235680154562,0.2300603631265461
1757974813749030400,8.219030517578124,0.0241313925606664,-1.4228192184776067,0.4652348543964326
1757974813759014400,8.229014404296874,-0.0358504901933018,-1.0282330406695603,0.4847638768613338
1757974813768998400,8.238998291015625,0.0515875638961791,-0.6935895826488733,0.4873762513168156
1757974813778982400,8.248982421875,0.179799517789483,-0.4879571199446916,0.4101099101543426
1757974813788966400,8.25896630859375,0.262870599707961,-0.3584948737293482,0.269360838510096
1757974813798949400,8.268949462890625,0.4028863886415958,-0.3525818502932786,0.0499202152058482
1757974813808933400,8.278933349609375,0.386418068921566,-0.3964940572559833,-0.3982574136666953
1757974813818917400,8.28891748046875,0.4076759610056877,-0.3156920893132686,-0.8903647851586342
1757974813828901400,8.2989013671875,0.4704986201435327,-0.1487076294332742,-1.1662959419697525
1757974813838885400,8.308885498046875,0.4815969372630119,0.0192886378377676,-1.1814780212715268
1757974813848869400,8.318869384765625,0.5432727644532919,0.0317903920143842,-1.1030588568121191
1757974813858853400,8.328853271484375,0.6216986509144306,-0.0344844534039497,-0.9527643965788184
1757974813868837400,8.33883740234375,0.7532891413301229,-0.0231710322290658,-0.760071933338046
1757974813878821400,8.3488212890625,0.8750000427663326,0.1330558867931366,-0.5372916442170739
1757974813888805400,8.358805419921875,0.8805494935870171,0.3632856151372194,-0.3939613239079713
1757974813898789400,8.368789306640625,0.6798679312884807,0.4280395345985889,-0.6390684495188296
1757974813908773400,8.3787734375,0.4845610477656126,0.5184042806565762,-0.9171702283672988
1757974813918757400,8.38875732421875,0.3330237478643655,0.6314286022901535,-1.165554914344102
1757974813928741400,8.398741455078126,0.4491565569072961,0.8269108423799276,-1.4005457196101545
1757974813938725400,8.408725341796876,0.6140846687793732,1.3833528850078582,-1.2243027252584695
1757974813948709400,8.41870947265625,0.8061375189423561,2.007257521533966,-1.0204602147109807
1757974813958693400,8.428693359375,0.8919956012308597,2.543788410511613,-0.8756327877119183
1757974813968677400,8.438677490234374,0.8776122710913419,3.091837303325533,-0.8834621661633253
1757974813978661400,8.448661376953124,0.8180722868859768,3.627698914739489,-1.40770216723606
1757974813988644400,8.458644287109376,0.8621259481459855,4.098881425493955,-1.741698267263919
1757974813998628400,8.46862841796875,0.8547820151239633,4.726954287615418,-1.915854518469423
1757974814008612400,8.4786123046875,0.9052297613352536,5.154326298215985,-1.8813262259237469
1757974814018596400,8.488596435546874,0.7625432918876409,5.286797078597545,-1.945926562258601
1757974814028580400,8.498580322265624,0.4351695326089859,5.155597633326053,-2.193560137607157
1757974814038564400,8.508564453125,0.1083247656404972,4.87161936365962,-2.465776950070262
1757974814048548400,8.51854833984375,-0.224541179579962,4.5083419318288565,-2.56941911085248
1757974814058532400,8.528532470703125,-0.4066097930788994,4.011294327455759,-2.527053256548941
1757974814068516600,8.5385166015625,-0.5371311564257368,3.3564573770493267,-2.5956521610006686
1757974814078500400,8.548500244140625,-0.7621241896927357,2.794744700542092,-2.361426056496799
1757974814088483600,8.558483642578125,-1.0889888304054736,2.2716525543302297,-1.2305218920342624
1757974814098467600,8.568467529296875,-1.367619893825054,1.4438731124222275,-0.1434432791642844
1757974814108451600,8.57845166015625,-1.7322557545274495,0.7190431728571653,0.509879613417387
1757974814118435600,8.588435546875,-2.1844974179685117,0.2099807210415601,0.650301645064354
1757974814128419600,8.598419677734375,-2.6298382159799334,-0.4990735572427511,0.7408075531587004
1757974814138403600,8.608403564453125,-2.974268323999643,-1.2628127809166907,0.8785222255431115
1757974814148387600,8.6183876953125,-3.2741835829883814,-1.6098942802280187,1.284641604756564
1757974814158371600,8.62837158203125,-3.1339637959152458,-1.5405278985351325,2.079590351817012
1757974814168355600,8.63835546875,-2.4929005193173883,-1.0971540166825056,3.246093214535713
1757974814178339800,8.64833984375,-1.7846295003652572,-0.3637801206558942,4.364204386790097
1757974814188322600,8.658322509765625,-1.4483195704370735,0.237972889816761,4.840076516665518
1757974814198306600,8.668306640625,-1.4703805955976248,0.6787497409135103,4.662351759323477
1757974814208290600,8.67829052734375,-1.7107488561183213,0.9099170423686505,3.999530824425816
1757974814218274600,8.688274658203126,-1.737885284847021,0.3444008819252252,3.0089000769197938
1757974814228258600,8.698258544921876,-1.6881991706579922,-0.101913145032525,2.073183991906047
1757974814238242600,8.70824267578125,-1.5010264937520026,-0.126456634658575,1.7435913875341411
1757974814248226600,8.7182265625,-1.0937238961033522,-0.2581009010881185,1.583546663789451
1757974814258210600,8.72821044921875,-0.6894311477951705,-0.4584019396364688,1.468865514859557
1757974814268194600,8.738194580078124,-0.5669159442387521,-0.5204717345803975,1.2613185968361795
1757974814278178800,8.7481787109375,-0.614016352783516,-0.5546539901673794,0.9719041274651884
1757974814288162800,8.758162841796874,-0.8622516203522682,-0.546219339299202,0.6065896368488669
