time,seconds_elapsed,z,y,x
1757859318361708300,44.94470825195312,0.9407163858413696,0.4665277600288391,-0.091733917593956
1757859318371692500,44.954692626953126,0.8145999908447266,0.7672657370567322,-0.1606647819280624
1757859318381675500,44.96467553710937,0.6421448588371277,1.0180939435958862,-0.0957773923873901
1757859318391659500,44.97465942382812,0.5127440094947815,1.1520928144454956,0.1033016219735145
1757859318401642200,44.984642333984375,0.3878289461135864,1.17111074924469,0.3444985151290893
1757859318411625500,44.99462548828125,0.287099152803421,1.0885132551193235,0.555295467376709
1757859318421609500,45.004609375,0.236417070031166,1.0227776765823364,0.6914572715759277
1757859318431592400,45.01459252929688,0.1949860006570816,0.9919116497039796,0.7833856344223022
1757859318441576400,45.02457641601563,0.1163540408015251,1.0373278856277466,0.8578705191612244
1757859318451559400,45.03455932617187,-0.0101431813091039,1.1248260736465454,0.9117867350578308
1757859318461542400,45.04454248046875,-0.1384699940681457,1.1913381814956665,0.9611446857452391
1757859318471526400,45.0545263671875,-0.2420762777328491,1.2244999408721924,1.0056521892547607
1757859318481509400,45.06450927734375,-0.3068417012691498,1.2273797988891602,1.0120078325271606
1757859318491493400,45.074493408203125,-0.3205798864364624,1.189291000366211,0.9755651950836182
1757859318501476400,45.08447631835938,-0.2948393523693084,1.1319382190704346,0.919694185256958
1757859318511459300,45.094459228515625,-0.2653389871120453,1.034393310546875,0.8767110109329224
1757859318521443300,45.104443359375,-0.2475485503673553,0.9154203534126282,0.8331310749053955
1757859318531426300,45.11442626953125,-0.2443825751543045,0.8238645792007446,0.7898650765419006
1757859318541410600,45.12441064453125,-0.2474129945039749,0.725660502910614,0.7286190390586853
1757859318551393500,45.1343935546875,-0.2613437175750732,0.6459507942199707,0.6421941518783569
1757859318561376300,45.14437622070312,-0.284039705991745,0.5678967237472534,0.5675289630889893
1757859318571360300,45.1543603515625,-0.3034381866455078,0.4788922965526581,0.511664092540741
1757859318581343500,45.16434350585938,-0.3014671802520752,0.419798344373703,0.4689773321151733
1757859318591327500,45.17432739257813,-0.2423918694257736,0.3721743524074554,0.4316747188568115
1757859318601310500,45.184310546875,-0.1579843014478683,0.2856964766979217,0.3742444515228271
1757859318611293400,45.19429345703125,-0.0871343687176704,0.1842233687639236,0.2769972383975982
1757859318621277400,45.20427734375,-0.0259738098829984,0.0884236022830009,0.1368854194879531
1757859318631260400,45.21426049804688,0.0017478326335549,-0.0130593432113528,-0.0096126794815063
1757859318641244400,45.224244384765626,-0.0241380929946899,-0.1272266656160354,-0.0952956229448318
1757859318651227400,45.23422729492187,-0.0591109916567802,-0.1945138275623321,-0.1012065112590789
1757859318661210400,45.24421044921875,-0.0731045678257942,-0.2566560208797455,-0.0224195551127195
1757859318671194400,45.2541943359375,-0.0518818385899066,-0.3577003479003906,0.0735804736614227
1757859318681177300,45.26417724609375,0.0078872181475162,-0.4798086881637573,0.0858102440834045
1757859318691161300,45.27416137695312,0.1278088241815567,-0.5993236303329468,-0.0399775095283985
1757859318701144600,45.28414453125,0.2388408035039901,-0.7223600745201111,-0.3156399726867676
1757859318711127300,45.29412719726562,0.2430246323347091,-0.8414608836174011,-0.6200217008590698
1757859318721111300,45.304111328125,0.1039804592728614,-1.030445218086243,-0.729839026927948
1757859318731094300,45.31409423828125,-0.1517980545759201,-1.2360281944274902,-0.5498290657997131
1757859318741078300,45.32407836914062,-0.4379256665706634,-1.4112985134124756,-0.1617249846458435
1757859318751061500,45.3340615234375,-0.6612751483917236,-1.465208649635315,0.1189008206129074
1757859318761044500,45.34404443359375,-0.7593361735343933,-1.4361591339111328,0.1523221582174301
1757859318771028200,45.3540283203125,-0.6916990876197815,-1.3248909711837769,0.0281554721295833
1757859318781011500,45.36401147460938,-0.6090306043624878,-1.2198904752731323,-0.1095382124185562
1757859318790995700,45.37399560546875,-0.6080489158630371,-1.1839572191238403,-0.1933841109275818
1757859318800978400,45.383978515625,-0.7385696768760681,-1.2905641794204712,-0.1585068255662918
1757859318810961400,45.39396142578125,-0.8983766436576843,-1.5891625881195068,-0.0079681780189275
1757859318820945400,45.4039453125,-0.9542382955551147,-1.9388777017593384,0.1041532978415489
1757859318830928600,45.4139287109375,-0.9474605917930604,-2.1928727626800537,0.1277920454740524
1757859318840912600,45.42391259765625,-0.9449689388275146,-2.26452898979187,0.1171069145202636
1757859318850895400,45.43389526367187,-0.9826989769935608,-2.1759839057922363,0.1411376893520355
1757859318860878600,45.44387866210938,-1.0445468425750732,-1.989895820617676,0.2123588621616363
1757859318870862600,45.45386254882813,-1.0992666482925415,-1.7962079048156738,0.3211447298526764
1757859318880845600,45.46384545898437,-1.073705792427063,-1.6550089120864868,0.4086602032184601
1757859318890829600,45.47382958984375,-0.983664095401764,-1.5878427028656006,0.437100350856781
1757859318900812500,45.4838125,-0.8841055631637573,-1.560472011566162,0.4156749546527862
1757859318910795500,45.49379541015625,-0.7988263368606567,-1.5188210010528564,0.402575671672821
1757859318920779500,45.503779541015625,-0.6991812586784363,-1.4613478183746338,0.4436450898647308
1757859318930762500,45.51376245117188,-0.6044816374778748,-1.3505537509918213,0.5342764258384705
1757859318940746500,45.52374658203125,-0.5081766843795776,-1.157895803451538,0.6410050392150879
1757859318950729700,45.53372973632813,-0.3997836112976074,-0.8978663682937622,0.7333016395568848
1757859318960712400,45.54371240234375,-0.2921373248100281,-0.6281792521476746,0.7811282873153687
1757859318970696400,45.55369653320312,-0.1875690966844558,-0.392676442861557,0.7634150981903076
1757859318980679400,45.563679443359376,-0.0689425840973854,-0.2076517343521118,0.6915443539619446
1757859318990663400,45.573663330078126,0.067325510084629,-0.0972895324230194,0.575775146484375
1757859319000646700,45.583646728515625,0.2335371226072311,-0.0272489320486783,0.4352465271949768
1757859319010629400,45.59362939453125,0.4402679204940796,0.0264092367142438,0.2952050268650055
1757859319020613400,45.60361328125,0.659309983253479,0.0658338740468025,0.1799106448888778
1757859319030596600,45.6135966796875,0.8675540089607239,0.1238979771733284,0.1060380190610885
1757859319040580600,45.62358056640625,1.0334277153015137,0.22042877972126,0.0836645364761352
1757859319050563600,45.6335634765625,1.1378262042999268,0.3983830511569977,0.1017897427082061
1757859319060546600,45.643546630859376,1.1536622047424316,0.6515194773674011,0.1473332643508911
1757859319070530300,45.6535302734375,1.073693871498108,0.9352459907531738,0.1987535804510116
1757859319080513500,45.66351342773437,0.9206284284591676,1.23545241355896,0.2599074840545654
1757859319090497500,45.67349755859375,0.7322481274604797,1.517375111579895,0.335996925830841
1757859319100480500,45.68348046875,0.5670671463012695,1.735135197639465,0.4282533526420593
1757859319110463700,45.69346362304688,0.3745395243167877,1.874008655548096,0.5063840746879578
1757859319120447700,45.70344775390625,0.1528870165348053,1.9369090795516968,0.4505168497562408
1757859319130430500,45.71343041992188,0.027581026777625,1.96857750415802,0.4066705405712127
1757859319140414500,45.72341455078125,0.1105968207120895,1.933853030204773,0.6212510466575623
1757859319150397400,45.7333974609375,0.284820556640625,1.9737755060195925,0.9896280169487
1757859319160380700,45.74338061523437,0.3837790787220001,2.165250301361084,1.2888890504837036
1757859319170364700,45.75336474609375,0.3520640432834625,2.3803746700286865,1.4624773263931274
1757859319180347400,45.763347412109376,0.2505869567394256,2.5350513458251958,1.5388394594192505
1757859319190331400,45.773331298828126,0.1211519911885261,2.6674299240112305,1.5707942247390747
1757859319200314600,45.78331469726562,0.0180799346417188,2.8001482486724854,1.6515092849731443
1757859319210298600,45.79329858398437,0.0015326491557061,2.862510919570923,1.8007559776306152
1757859319220281600,45.80328149414063,0.0861069187521934,2.824426651000977,1.9285027980804443
1757859319230264300,45.81326440429687,0.1970238536596298,2.846686840057373,1.9432140588760376
1757859319240248300,45.82324829101562,0.2604771256446838,2.7689318656921387,1.8763378858566284
1757859319250231600,45.8332314453125,0.2517395615577698,2.60522985458374,1.7933257818222046
1757859319260214500,45.843214599609375,0.1862404495477676,2.524384021759033,1.7377866506576538
1757859319270198500,45.853198486328125,0.1027564704418182,2.51489782333374,1.701534867286682
1757859319280181500,45.86318139648437,0.0465006567537784,2.5343050956726074,1.6570640802383425
1757859319290165500,45.87316552734375,0.0301973167806863,2.535789966583252,1.6075737476348877
1757859319300148500,45.8831484375,0.0571951121091842,2.474616289138794,1.554054856300354
1757859319310132500,45.89313256835938,0.1012856066226959,2.3677210807800293,1.4794038534164429
1757859319320115500,45.90311547851562,0.1115113496780395,2.248512983322144,1.3901737928390503
1757859319330098700,45.9130986328125,0.0447461642324924,2.1381874084472656,1.2877593040466309
1757859319340082400,45.92308251953125,-0.0666346848011016,2.042221069335937,1.185309886932373
1757859319350065400,45.9330654296875,-0.1012552455067634,1.9487688541412356,1.0553425550460815
1757859319360049400,45.94304931640625,-0.0331763289868831,1.8910448551177976,0.858646035194397
1757859319370032600,45.95303271484375,0.080344371497631,1.877795696258545,0.6616519689559937
1757859319380015600,45.963015625,0.1944411247968673,1.8281441926956177,0.5318756103515625
1757859319389999600,45.97299951171875,0.2775634229183197,1.7821327447891235,0.5287232398986816
1757859319399982300,45.982982421875,0.3317568898200989,1.6805366277694702,0.679328203201294
1757859319409966600,45.99296655273437,0.346797376871109,1.5061265230178833,0.917369782924652
1757859319419949600,46.00294946289063,0.3227575421333313,1.2621703147888184,1.0861486196517944
1757859319429932500,46.0129326171875,0.2653389871120453,0.981712520122528,1.0649209022521973
1757859319439916500,46.02291650390625,0.1920325607061386,0.6993940472602844,0.8089932203292847
1757859319449899500,46.0328994140625,0.1483593732118606,0.4710894823074341,0.4382852017879486
1757859319459883500,46.04288354492188,0.1089536473155021,0.2516109347343445,0.0291443038731813
1757859319469866500,46.05286645507813,0.0583919361233711,0.028213795274496,-0.3534584641456604
1757859319479849500,46.06284936523438,0.0021033645607531,-0.126723051071167,-0.6306858062744141
1757859319489833500,46.07283349609375,-0.0976024568080902,-0.319821149110794,-0.7230690121650696
1757859319499816400,46.08281640625,-0.1582823097705841,-0.6441081166267395,-0.7266812920570374
1757859319509800400,46.092800537109376,-0.1847962141036987,-0.9909888505935668,-0.8243724703788757
1757859319519783400,46.10278344726562,-0.1790626943111419,-1.3350147008895874,-1.188732028007507
1757859319529766700,46.1127666015625,-0.1656078696250915,-1.644838809967041,-1.675479292869568
1757859319539750700,46.12275073242188,-0.1846135258674621,-1.9170531034469604,-1.985643029212952
1757859319549733600,46.13273364257813,-0.1878407448530197,-2.0876998901367188,-1.919708013534546
1757859319559717400,46.14271728515625,-0.1750463843345642,-2.1874167919158936,-1.5835256576538086
1757859319569700400,46.15270043945313,-0.1605196297168731,-2.2175652980804443,-1.2222553491592407
1757859319579683600,46.16268359375,-0.1529573202133178,-2.197717428207397,-1.0862959623336792
1757859319589667600,46.17266748046875,-0.1578122675418853,-2.2217319011688232,-1.1785653829574585
1757859319599650600,46.18265063476562,-0.1472744047641754,-2.359677791595459,-1.3060064315795898
1757859319609634600,46.19263452148437,-0.1115917786955833,-2.5397396087646484,-1.309940218925476
1757859319619617500,46.20261743164063,-0.1128463894128799,-2.7241873741149902,-1.198405385017395
1757859319629600500,46.2126005859375,-0.1516065746545791,-2.870769023895264,-1.0188250541687012
1757859319639584500,46.22258447265625,-0.199132815003395,-2.8865854740142822,-0.8285496234893799
1757859319649567500,46.2325673828125,-0.2698586583137512,-2.7704508304595947,-0.6552721261978149
1757859319659550500,46.24255053710937,-0.3396268188953399,-2.569288969039917,-0.4670665264129638
1757859319669534500,46.25253442382812,-0.3861793875694275,-2.4023208618164062,-0.2663888037204742
1757859319679517400,46.26251733398438,-0.4582594335079193,-2.2970402240753174,-0.1410133093595504
1757859319689501400,46.27250146484375,-0.442548394203186,-2.1678240299224854,-0.0655286759138107
1757859319699484700,46.28248461914063,-0.4012526273727417,-2.1068108081817627,-0.0330556891858577
1757859319709467400,46.29246728515625,-0.4035384058952331,-2.00457763671875,-0.0450710728764534
1757859319719451400,46.30245141601562,-0.4463753700256347,-1.864943027496338,-0.0668847560882568
1757859319729434400,46.31243432617188,-0.4853888154029846,-1.7098503112792969,-0.068289577960968
1757859319739418600,46.32241870117188,-0.4705840349197387,-1.5806041955947876,-0.0344056449830532
1757859319749401600,46.33240161132812,-0.390169620513916,-1.4841614961624146,0.0248150676488876
1757859319759384600,46.34238452148438,-0.2480500191450119,-1.362108826637268,0.0766772031784057
1757859319769368300,46.35236840820313,-0.0623267590999603,-1.2100578546524048,0.1109456941485405
1757859319779351600,46.3623515625,0.1466504335403442,-1.075647234916687,0.0919525623321533
1757859319789335600,46.37233544921875,0.3722630441188812,-0.9195253252983092,0.0301344655454158
1757859319799318300,46.382318359375,0.5697561502456665,-0.7721644043922424,-0.0523676015436649
1757859319809301500,46.39230151367188,0.7246761918067932,-0.6215503811836243,-0.1650552600622177
1757859319819285500,46.40228540039063,0.8472676277160645,-0.4271862208843231,-0.2872621417045593
1757859319829268500,46.4122685546875,0.9115901589393616,-0.2334979772567749,-0.4058681428432464
1757859319839252500,46.42225244140625,0.8915730714797974,-0.0296332594007253,-0.5035907030105591
1757859319849235200,46.432235107421874,0.791633665561676,0.2266674935817718,-0.5718861222267151
1757859319859218400,46.44221850585937,0.6436455249786377,0.3969878256320953,-0.5993755459785461
1757859319869202400,46.45220239257812,0.5122478604316711,0.3710936605930328,-0.6057043075561523
1757859319879185400,46.462185302734376,0.4809367954730987,0.3348182141780853,-0.6356222629547119
1757859319889169400,46.47216943359375,0.5222482681274414,0.3306546211242676,-0.6981223821640015
1757859319899152400,46.48215234375,0.5824099183082581,0.5708879828453064,-0.7632747292518616
1757859319909135400,46.49213525390625,0.587954580783844,1.0473061800003052,-0.7356860041618347
1757859319919119400,46.50211938476563,0.4313274323940277,1.7002166509628296,-0.4586706459522247
1757859319929102300,46.512102294921874,0.0109503855928778,2.15739369392395,0.0338003076612949
1757859319939086300,46.52208642578125,-0.5571282505989075,2.016202211380005,0.2551396191120147
1757859319949069600,46.53206958007812,-0.8501494526863098,1.2296442985534668,-0.1321977227926254
1757859319959052300,46.54205224609375,-0.5895466208457947,0.6236457228660583,-0.4612989127635956
1757859319969036300,46.552036376953126,0.0238352920860052,0.4066031873226166,-0.2626532018184662
1757859319979019500,46.56201953125,0.5479952096939087,0.4930485785007477,0.2387148439884185
1757859319989003500,46.57200341796875,0.7217121124267578,0.8341627717018127,0.6442682147026062
1757859319998986500,46.58198657226563,0.5242366194725037,1.3364027738571167,0.8004586100578308
1757859320008969200,46.59196923828125,0.1595771461725235,1.813014268875122,0.8008192181587219
1757859320018953200,46.601953125,-0.1265526115894317,2.1309447288513184,0.7132874727249146
1757859320028936400,46.6119365234375,-0.3524499237537384,2.276820182800293,0.611631453037262
1757859320038920400,46.62192041015625,-0.3628820478916168,2.2887251377105717,0.6837548613548279
1757859320048903400,46.6319033203125,-0.259712278842926,2.2269787788391118,0.901841402053833
1757859320058886400,46.64188647460937,-0.213741049170494,2.2369446754455566,1.120158314704895
1757859320068870400,46.65187036132812,-0.2703452110290527,2.357647657394409,1.282660961151123
1757859320078853400,46.661853271484375,-0.4032526612281799,2.5630807876586914,1.3794007301330566
1757859320088837400,46.67183740234375,-0.5017451643943787,2.760530710220337,1.393843650817871
1757859320098820400,46.6818203125,-0.5123170614242554,2.8982505798339844,1.3244690895080566
1757859320108803600,46.69180346679688,-0.4817512035369873,2.937241554260254,1.18645977973938
1757859320118787300,46.70178735351563,-0.4563238620758056,2.9169249534606934,1.0096815824508667
1757859320128770300,46.71177026367187,-0.427460253238678,2.8546533584594727,0.888019859790802
1757859320138754300,46.72175439453125,-0.4148203730583191,2.7388036251068115,0.8300551176071167
1757859320148737500,46.73173754882812,-0.3939324021339416,2.5972158908843994,0.8030219078063965
1757859320158720500,46.741720458984375,-0.3456908166408539,2.436589479446411,0.8011587262153625
1757859320168704500,46.75170458984375,-0.2733793556690216,2.248340368270874,0.8245322704315186
1757859320178687200,46.76168725585938,-0.1621622741222381,2.0131118297576904,0.8885034918785095
1757859320188671200,46.77167114257813,-0.0063439160585403,1.7548401355743408,0.959222137928009
1757859320198654500,46.78165454101563,0.1694702506065368,1.4693503379821775,1.0319828987121582
1757859320208637400,46.79163745117187,0.2918560802936554,1.2290312051773071,1.0951019525527954
1757859320218621400,46.80162133789062,0.3599224984645843,1.1249728202819824,1.191577672958374
1757859320228604400,46.8116044921875,0.3859879076480865,1.065477728843689,1.2560242414474487
1757859320238588400,46.82158837890625,0.324682205915451,1.0109484195709229,1.1261131763458252
1757859320248571400,46.8315712890625,0.1966070681810379,1.0043121576309204,0.8808016180992126
1757859320258554400,46.84155444335938,0.0670160502195358,0.979021430015564,0.5845438838005066
1757859320268538400,46.85153833007813,0.0154450023546814,0.8109953999519348,0.3011249601840973
1757859320278521300,46.86152124023437,0.0917610824108123,0.5009725689888,0.0496967174112796
1757859320288505300,46.87150537109375,0.2625426650047302,0.045960035175085,-0.1612256467342376
1757859320298488300,46.88148828125,0.4462640285491943,-0.4171729981899261,-0.3424497544765472
1757859320308471600,46.89147143554688,0.5101844072341919,-0.7457023859024048,-0.5420619249343872
1757859320318455600,46.90145556640625,0.4846492409706116,-0.8436305522918701,-0.8270683884620667
1757859320328438300,46.91143823242187,0.4358026087284088,-0.708164632320404,-1.1760815382003784
1757859320338422300,46.92142236328125,0.309893399477005,-0.5762731432914734,-1.3281008005142212
1757859320348405200,46.9314052734375,0.1215605214238166,-0.6487361788749695,-1.1069802045822144
1757859320358388500,46.94138842773437,-0.0260979123413562,-0.9589017629623412,-0.6808738708496094
1757859320368372500,46.95137255859375,-0.0702749639749527,-1.3324955701828003,-0.3625582158565521
1757859320378355500,46.96135546875,-0.0083098616451025,-1.5586349964141846,-0.3189907670021057
1757859320388338400,46.97133837890625,0.0509963370859622,-1.720288872718811,-0.4996172785758972
1757859320398322400,46.981322509765626,0.0357028692960739,-1.807580590248108,-0.6844843029975891
1757859320408305400,46.99130541992187,-0.0557860322296619,-1.8672242164611816,-0.6895107626914978
1757859320418289400,47.00128930664062,-0.2105532437562942,-1.950054407119751,-0.5167533755302429
1757859320428272400,47.0112724609375,-0.3739743828773498,-2.019005537033081,-0.2995648682117462
1757859320438255400,47.02125537109375,-0.4720319807529449,-2.072062969207764,-0.1556077003479004
1757859320448239400,47.0312392578125,-0.4499386548995971,-2.161388397216797,-0.1056108474731445
1757859320458222300,47.04122241210938,-0.3332424163818359,-2.217948198318481,0.0495683513581752
1757859320468206300,47.05120629882813,-0.2021493762731552,-2.2571589946746826,0.2286696583032608
1757859320478189600,47.061189453125,-0.1431888490915298,-2.2257487773895264,0.2897737622261047
1757859320488172300,47.07117236328125,-0.1053519919514656,-2.1542341709136963,0.2687033712863922
1757859320498156300,47.08115625,-0.0656511783599853,-2.050830841064453,0.2435194551944732
1757859320508139300,47.09113916015625,-0.046930756419897,-1.914497256278992,0.2304941862821579
1757859320518123300,47.101123291015625,-0.0620359405875206,-1.7267405986785889,0.2229750305414199
1757859320528106500,47.1111064453125,-0.0784868225455284,-1.5159122943878174,0.2006750404834747
1757859320538089500,47.12108935546875,-0.0661638379096984,-1.3352292776107788,0.1519085764884948
1757859320548073200,47.1310732421875,-0.0192037876695394,-1.20107102394104,0.0725785940885543
1757859320558056400,47.14105639648437,0.0790631249547004,-1.1478352546691897,-0.0395514033734798
1757859320568040400,47.15104052734375,0.24103444814682,-1.15677011013031,-0.1745739430189132
1757859320578023400,47.1610234375,0.4395781755447387,-1.1667479276657104,-0.3344139456748962
1757859320588006400,47.17100634765625,0.6236478686332703,-1.1432039737701416,-0.5010883808135986
1757859320597990400,47.180990478515625,0.7654609084129333,-1.0553388595581057,-0.6621497273445129
1757859320607973400,47.19097338867188,0.8382794857025146,-0.9257416725158693,-0.8055481910705566
1757859320617957400,47.20095727539063,0.8456183671951294,-0.8123229742050171,-0.9307984709739684
1757859320627940400,47.2109404296875,0.8111802339553833,-0.8017529249191284,-1.0492846965789795
1757859320637923600,47.22092358398437,0.7746981382369995,-0.8685764074325562,-1.1834946870803833
1757859320647907600,47.23090747070312,0.7840340733528137,-0.9449694156646729,-1.344369888305664
1757859320657890300,47.240890380859376,0.8543316721916199,-0.9295273423194884,-1.53125262260437
1757859320667874300,47.250874267578126,0.9661575555801392,-0.7267391085624695,-1.7288144826889038
1757859320677857300,47.26085717773437,1.071501851081848,-0.3437680304050445,-1.8921849727630613
1757859320687840500,47.27084057617188,1.1355321407318115,0.1938195377588272,-1.9615014791488647
1757859320697824500,47.28082446289063,1.149522304534912,0.8155677914619446,-1.9114891290664675
1757859320707807200,47.29080712890625,1.0705071687698364,1.3838179111480713,-1.8193387985229488
1757859320717790500,47.30079052734375,0.8257695436477661,1.6446162462234497,-1.8109724521636963
1757859320727774500,47.3107744140625,0.5189430117607117,1.4013068675994873,-1.7131409645080566
1757859320737757400,47.32075732421875,0.3638983368873596,0.9730253219604492,-1.366676688194275
1757859320747741400,47.330741455078126,0.3446591198444366,0.8324713706970215,-1.1178491115570068
1757859320757724200,47.34072412109375,0.3311683535575866,0.9767431020736694,-1.2284767627716064
1757859320767707400,47.35070727539063,0.2433812320232391,1.1509138345718384,-1.3933008909225464
1757859320777691400,47.36069140625,0.1637007892131805,1.3537644147872925,-1.2889974117279053
1757859320787674400,47.37067431640625,0.1137313619256019,1.6417298316955566,-0.8649449348449707
1757859320797658400,47.38065844726562,0.0470332875847816,1.8906121253967283,-0.3324117660522461
1757859320807641600,47.3906416015625,-0.0261826012283563,2.067181348800659,0.1458565443754196
1757859320817624300,47.40062426757813,-0.0415599606931209,2.083041191101074,0.5178189277648926
1757859320827608300,47.4106083984375,0.0141448471695184,1.9704468250274656,0.7536154389381409
1757859320837591300,47.42059130859375,0.0990197882056236,1.803101181983948,0.9044694304466248
1757859320847575600,47.43057543945312,0.130749225616455,1.69928240776062,1.0395779609680176
1757859320857558500,47.44055859375,0.0566198714077472,1.6720470190048218,1.1853346824645996
1757859320867541500,47.45054150390625,-0.0621643029153347,1.706226825714111,1.356789469718933
1757859320877525200,47.46052514648437,-0.1502510160207748,1.7603803873062134,1.5218162536621094
1757859320887508500,47.47050854492188,-0.1687125861644745,1.8249635696411133,1.662994146347046
1757859320897492500,47.48049243164063,-0.1528228372335434,1.8544684648513796,1.7744128704071045
1757859320907475500,47.49047534179687,-0.1641654968261718,1.8492852449417116,1.8805406093597408
1757859320917458400,47.50045849609375,-0.2041241079568863,1.8151235580444336,1.964025616645813
1757859320927442400,47.5104423828125,-0.2612504959106445,1.753166437149048,2.0158393383026123
1757859320937425400,47.52042529296875,-0.3329499959945678,1.6656194925308228,2.0181548595428467
1757859320947409400,47.530409423828125,-0.3929145336151123,1.5708909034729004,1.9774836301803589
1757859320957392400,47.54039233398437,-0.3955731689929962,1.4580076932907104,1.906993269920349
1757859320967375600,47.55037573242188,-0.2902169227600097,1.3509010076522827,1.821612000465393
1757859320977359600,47.56035961914063,-0.1347543448209762,1.25794517993927,1.7391471862792969
1757859320987342300,47.57034228515625,0.0015627428656443,1.1838504076004028,1.6592212915420532
1757859320997325300,47.5803251953125,0.076858565211296,1.139521598815918,1.5671237707138062
1757859321007309300,47.59030932617188,0.0874747186899185,1.132959008216858,1.4356526136398315
1757859321017292500,47.60029248046875,0.0439972840249538,1.107841968536377,1.2647367715835571
1757859321027276500,47.610276611328125,-0.0526166073977947,1.067636013031006,1.0759985446929932
1757859321037259300,47.62025927734375,-0.1725379526615142,0.9866098165512084,0.9075443148612976
1757859321047242500,47.63024243164063,-0.2798654735088348,0.8667646646499634,0.7835014462471008
1757859321057226500,47.6402265625,-0.3140625953674316,0.6695740818977356,0.7269337773323059
1757859321067209500,47.65020947265625,-0.2895444631576538,0.3267253935337066,0.5751802325248718
1757859321077193500,47.660193359375,-0.2354300916194915,-0.098417118191719,0.2675744593143463
1757859321087176400,47.67017651367188,-0.1424535512924194,-0.4901659786701202,-0.0540571101009845
1757859321097159400,47.68015942382812,-0.0885626226663589,-0.7432816028594971,-0.2558099329471588
1757859321107143400,47.69014331054687,-0.1376673132181167,-0.7769572734832764,-0.3547975122928619
1757859321117126400,47.70012646484375,-0.2646194100379944,-0.6593941450119019,-0.4754229784011841
1757859321127110400,47.7101103515625,-0.3854528963565826,-0.602816641330719,-0.8817462921142578
1757859321137093600,47.72009375,-0.4201773107051849,-0.7000302672386169,-1.3964959383010864
1757859321147076400,47.73007641601563,-0.3484024405479431,-1.139084815979004,-1.4777265787124634
1757859321157060400,47.74006030273438,-0.0555325001478195,-1.730762243270874,-1.0846199989318848
1757859321167043300,47.750043212890624,0.2672285139560699,-2.1292245388031006,-0.5784130096435547
1757859321177027600,47.76002758789063,0.3658735752105713,-2.358597755432129,-0.2536663711071014
1757859321187010600,47.77001049804687,0.2474894225597381,-2.420247793197632,-0.2500492632389068
1757859321196993300,47.7799931640625,0.0326924324035644,-2.405095338821411,-0.463922917842865
1757859321206977300,47.78997729492188,-0.1242614984512329,-2.3715596199035645,-0.6449467539787292
1757859321216960500,47.79996044921875,-0.1195900440216064,-2.3083324432373047,-0.6338677406311035
1757859321226944500,47.80994458007813,-0.0675790458917617,-2.3256616592407227,-0.4829171299934387
1757859321236927500,47.81992749023438,-0.0754851698875427,-2.3393728733062744,-0.3023308217525482
1757859321246910200,47.82991015625,-0.1684926152229309,-2.355459928512573,-0.1586120128631591
1757859321256894500,47.83989453125,-0.2807499170303345,-2.353178739547729,-0.0361454859375953
1757859321266877400,47.84987744140625,-0.3112348318099975,-2.350414276123047,0.0732901915907859
1757859321276860400,47.8598603515625,-0.3107360303401947,-2.317439556121826,0.1603465378284454
1757859321286844400,47.86984448242188,-0.2693555653095245,-2.2879528999328613,0.2269362062215805
1757859321296827600,47.87982763671875,-0.2522985637187958,-2.2271838188171387,0.2535427808761596
1757859321306811400,47.88981127929687,-0.1940171420574188,-2.1079492568969727,0.2620063126087188
1757859321316794400,47.89979443359375,-0.1182693839073181,-1.9556068181991575,0.2911689877510071
1757859321326777300,47.90977734375,-0.0399183891713619,-1.7894556522369385,0.3424753248691559
1757859321336761600,47.91976171875,0.0507089830935001,-1.6292060613632202,0.396899402141571
1757859321346744600,47.92974462890625,0.1597297489643097,-1.4804224967956543,0.4248636662960052
1757859321356728600,47.939728515625,0.2883124947547912,-1.322348713874817,0.4083043932914734
1757859321366711300,47.94971118164062,0.430819571018219,-1.1681684255599976,0.3388238549232483
1757859321376694500,47.95969458007813,0.5498378276824951,-1.0467597246170044,0.2371276021003723
1757859321386678500,47.96967846679688,0.6183447241783142,-0.9053216576576232,0.1273417025804519
1757859321396661500,47.97966162109375,0.6359657645225525,-0.7258309721946716,0.0253130793571472
1757859321406645500,47.9896455078125,0.5841774344444275,-0.5072796940803528,-0.0635619312524795
1757859321416628500,47.99962841796875,0.5034838914871216,-0.2327573448419571,-0.1322315335273742
1757859321426611500,48.00961157226563,0.4345280230045318,0.0072746905498206,-0.1838819533586502
1757859321436595500,48.01959545898438,0.3979324698448181,0.2085105925798416,-0.244922935962677
1757859321446578400,48.02957836914062,0.4253875017166137,0.3421115279197693,-0.3418920934200287
1757859321456561400,48.0395615234375,0.4352404177188873,0.3580526709556579,-0.5379204750061035
1757859321466545400,48.04954541015625,0.4760698676109314,0.4022771418094635,-0.758314847946167
1757859321476528400,48.0595283203125,0.584208607673645,0.359793871641159,-0.9347719550132751
1757859321486512400,48.06951245117188,0.7224248051643372,0.3967641294002533,-1.0439815521240234
1757859321496495400,48.07949536132813,0.8324796557426453,0.6107427477836609,-1.0101587772369385
1757859321506478600,48.089478515625,0.8498232364654541,1.0203111171722412,-0.6844052076339722
1757859321516462300,48.09946240234375,0.7123191356658936,1.5514588356018066,-0.1627020984888076
1757859321526445300,48.1094453125,0.4315812289714813,2.069891452789306,0.2180923819541931
1757859321536429300,48.11942919921875,0.1668371856212616,2.284709930419922,0.33372762799263
1757859321546412500,48.12941259765625,-0.1136224344372749,1.9504005908966064,0.23832468688488
1757859321556395500,48.1393955078125,-0.3377383649349212,1.128008246421814,0.2863729000091553
1757859321566379500,48.149379638671874,-0.3361244797706604,0.4291250109672546,0.510308027267456
1757859321576362500,48.15936254882813,-0.1073696017265319,0.2552778422832489,0.6772514581680298
1757859321586346500,48.16934643554688,0.1025130599737167,0.6036403179168701,0.7446171641349792
1757859321596329500,48.17932958984375,0.1568559259176254,1.2187964916229248,0.8044933080673218
1757859321606312400,48.1893125,0.1664411723613739,1.7983357906341553,0.917907178401947
1757859321616296400,48.19929638671875,0.210330069065094,2.2616968154907227,1.017269492149353
1757859321626279400,48.209279541015626,0.0494237430393695,2.491096019744873,1.0342342853546145
1757859321636262400,48.21926245117187,-0.1720202267169952,2.493852376937866,1.034091591835022
1757859321646246400,48.22924633789062,-0.2831355631351471,2.358532428741455,1.051798701286316
1757859321656229400,48.2392294921875,-0.2909159958362579,2.175947904586792,1.0623152256011963
1757859321666213600,48.24921362304688,-0.3546409010887146,2.045358419418335,1.1208781003952026
1757859321676196400,48.2591962890625,-0.5392927527427673,2.107529640197754,1.230658769607544
1757859321686179300,48.26917944335938,-0.744185745716095,2.3018133640289307,1.3823806047439575
1757859321696163300,48.27916333007813,-0.8881477117538452,2.540944814682007,1.5257372856140137
1757859321706146600,48.289146484375,-0.95796138048172,2.7657103538513184,1.6366599798202517
1757859321716130600,48.299130615234375,-0.9462722539901732,2.939297676086426,1.7319817543029783
1757859321726113300,48.30911328125,-0.8672938346862793,3.0069048404693604,1.8133468627929688
1757859321736096300,48.31909619140625,-0.7384316921234131,2.9539363384246826,1.803540587425232
1757859321746080500,48.32908056640625,-0.5734190344810486,2.869379758834839,1.735512614250183
1757859321756063500,48.3390634765625,-0.3537988066673279,2.7469098567962646,1.7268354892730713
1757859321766047500,48.34904760742187,-0.119117870926857,2.4227614402771,1.7850300073623655
1757859321776030500,48.35903051757813,-0.0171696655452251,2.1279726028442383,1.6885766983032229
1757859321786013400,48.36901342773437,-0.0291280578821897,1.897528886795044,1.5566648244857788
1757859321795997700,48.378997802734375,-0.1041176170110702,1.6925538778305054,1.4368007183074951
1757859321805980400,48.38898046875,-0.2089926302433014,1.576848387718201,1.3452606201171875
1757859321815964400,48.39896435546875,-0.3219175934791565,1.5279908180236816,1.266001582145691
1757859321825947600,48.40894775390625,-0.4456174075603485,1.5254744291305542,1.1406694650650024
1757859321835930600,48.4189306640625,-0.5271202921867371,1.4647995233535769,0.9553267359733582
1757859321845914600,48.42891455078125,-0.5228924751281738,1.3318969011306765,0.735741138458252
1757859321855897300,48.4388974609375,-0.4218950569629669,1.1173739433288574,0.508906364440918
1757859321865880600,48.44888061523437,-0.2248128652572631,0.7777330279350281,0.2972282171249389
1757859321875864600,48.45886450195312,0.0661286860704422,0.3463613986968994,0.1057397425174713
1757859321885847600,48.46884765625,0.3855748474597931,-0.0335734076797962,-0.0932314097881317
1757859321895831600,48.47883154296875,0.6303744912147522,-0.3299390375614166,-0.3283240795135498
1757859321905814500,48.488814453125,0.6896823048591614,-0.4490236043930053,-0.5417418479919434
1757859321915797500,48.49879760742188,0.5092352628707886,-0.4232423305511474,-0.722137987613678
1757859321925781500,48.50878149414063,0.1453404128551483,-0.4225896000862121,-0.9007359147071838
1757859321935764500,48.51876440429688,-0.1994001865386963,-0.6338027715682983,-1.124661207199097
1757859321945748500,48.52874853515625,-0.3512603044509887,-1.029667854309082,-1.508242964744568
1757859321955731700,48.53873168945312,-0.2462752908468246,-1.5186119079589844,-1.911131501197815
1757859321965714400,48.54871435546875,-0.0007432882557623,-1.9905632734298704,-2.073214054107666
1757859321975698400,48.558698486328126,0.1815844476222992,-2.357792615890503,-1.992048263549805
1757859321985681400,48.56868139648437,0.1915169656276703,-2.524423122406006,-1.832063913345337
1757859321995665700,48.57866577148437,0.0543742924928665,-2.500741720199585,-1.7150331735610962
1757859322005648600,48.58864868164063,-0.0660884752869606,-2.41511607170105,-1.6680243015289309
1757859322015631400,48.59863134765625,-0.0974906012415885,-2.337982654571533,-1.682583570480347
1757859322025615400,48.60861547851562,-0.0163395591080188,-2.312602996826172,-1.672171950340271
1757859322035598600,48.6185986328125,0.130262404680252,-2.4258241653442383,-1.5643656253814695
1757859322045581600,48.62858154296875,0.2283956259489059,-2.668498516082764,-1.3643722534179688
1757859322055565600,48.638565673828126,0.2080828994512558,-2.907682180404663,-1.1256928443908691
1757859322065548500,48.64854858398437,0.0578356012701988,-2.970467329025269,-0.9246854782104492
1757859322075532500,48.65853247070312,-0.1659442335367202,-2.92200255393982,-0.766145646572113
1757859322085515500,48.668515625,-0.3989665508270263,-2.792010307312012,-0.6428226232528687
1757859322095498500,48.67849853515625,-0.564113974571228,-2.6447784900665283,-0.5117738246917725
1757859322105482500,48.688482421875,-0.6042733788490295,-2.4846343994140625,-0.4013932347297668
1757859322115465500,48.69846557617188,-0.5371806025505066,-2.285627841949463,-0.3127062320709228
1757859322125449500,48.70844946289063,-0.4182358682155609,-2.0949511528015137,-0.2785181701183319
1757859322135432400,48.71843237304687,-0.2898861467838287,-1.9378060102462769,-0.2989475429058075
1757859322145415400,48.72841552734375,-0.1900514364242553,-1.8189818859100344,-0.3565075099468231
1757859322155399700,48.73839965820312,-0.1353501081466674,-1.7519965171813965,-0.4227312803268432
1757859322165382700,48.748382568359375,-0.0803124159574508,-1.7081485986709597,-0.5000196695327759
1757859322175366700,48.75836669921875,0.0304460562765598,-1.6328306198120115,-0.591314971446991
1757859322185349400,48.76834936523438,0.1962145119905471,-1.521783471107483,-0.6871240735054016
1757859322195332600,48.77833251953125,0.3882865011692047,-1.3854634761810305,-0.7717776894569397
1757859322205316600,48.78831665039063,0.5722890496253967,-1.2369872331619265,-0.836674153804779
1757859322215299600,48.79829956054687,0.7206407189369202,-1.1192786693572998,-0.8761272430419922
1757859322225283600,48.80828369140625,0.8323973417282104,-0.9858505725860596,-0.8863769769668579
1757859322235266600,48.8182666015625,0.8905373811721802,-0.8163518309593201,-0.8583072423934937
1757859322245249500,48.82824951171875,0.8923139572143555,-0.5682421326637268,-0.8015491366386414
1757859322255233500,48.838233642578125,0.8370858430862427,-0.2540586292743683,-0.7213685512542725
1757859322265216500,48.84821655273438,0.7404810190200806,0.068615548312664,-0.6066440939903259
1757859322275199500,48.858199462890624,0.6282066702842712,0.3145835101604461,-0.4760932922363281
1757859322285183500,48.86818359375,0.5294590592384338,0.3638738095760345,-0.3360461890697479
1757859322295166500,48.87816650390625,0.5142675638198853,0.2541923224925995,-0.2236232310533523
1757859322305150500,48.888150390625,0.6347812414169312,0.3140439391136169,-0.2177389860153198
1757859322315133700,48.8981337890625,0.8052733540534973,0.5792393684387207,-0.3177047371864319
1757859322325116700,48.90811669921875,0.887036919593811,0.9071645140647888,-0.468290239572525
1757859322335100400,48.91810034179687,0.7389129400253296,1.2062348127365112,-0.6103658676147461
1757859322345083400,48.92808349609375,0.3761416673660278,1.4849607944488523,-0.4211163520812988
1757859322355067400,48.9380673828125,-0.0672453492879867,1.3458172082901,0.2116478085517883
1757859322365050600,48.948050537109374,-0.2635831832885742,0.8177489042282104,0.7976231575012207
1757859322375033600,48.95803369140625,-0.0756803825497627,0.5870307683944702,0.8616966605186462
1757859322385017600,48.968017578125,0.2631533443927765,0.7347639799118042,0.5484511256217957
1757859322395000600,48.97800048828125,0.479984700679779,1.0383731126785278,0.2622462511062622
1757859322404984600,48.98798461914063,0.434963971376419,1.3235764503479004,0.2563036978244781
1757859322414967600,48.99796752929687,0.1384476274251938,1.571615219116211,0.4292690753936767
1757859322424950500,49.007950439453126,-0.2601056098937988,1.7968326807022097,0.6191942691802979
1757859322434934500,49.0179345703125,-0.5916614532470703,1.9262396097183228,0.7345152497291565
1757859322444917500,49.02791748046875,-0.7512079477310181,1.9476330280303955,0.773776113986969
1757859322454900500,49.037900390625,-0.6974195837974548,1.942354917526245,0.7917135953903198
1757859322464884500,49.04788452148438,-0.4585199058055877,1.9368187189102173,0.9390172958374025
1757859322474867500,49.057867431640624,-0.2094227373600006,1.942500591278076,1.2554620504379272
1757859322484851700,49.06785180664063,-0.1049471870064735,2.060778379440308,1.6211103200912476
1757859322494834400,49.07783447265625,-0.2047922909259796,2.179881811141968,1.9045252799987795
1757859322504817400,49.0878173828125,-0.4035338759422302,2.3055100440979004,2.038082361221313
1757859322514801400,49.09780151367188,-0.527656078338623,2.3118717670440674,2.021245241165161
1757859322524784600,49.10778466796875,-0.5950340628623962,2.324029922485352,1.9158610105514529
1757859322534768600,49.1177685546875,-0.5970436930656433,2.288794994354248,1.7788842916488647
1757859322544751400,49.12775146484375,-0.5702648162841797,2.168328762054444,1.6213159561157229
1757859322554734600,49.13773461914062,-0.5541085004806519,2.009729385375977,1.4555323123931885
1757859322564718600,49.14771850585937,-0.5462332367897034,1.9170072078704836,1.2954257726669312
1757859322574701600,49.15770166015625,-0.5169459581375122,1.8528282642364504,1.1697311401367188
1757859322584685600,49.167685546875,-0.4574711620807647,1.7792435884475708,1.1249126195907593
1757859322594668500,49.17766845703125,-0.3890135288238525,1.7015631198883057,1.1479606628417969
1757859322604651500,49.18765161132813,-0.3270548284053802,1.587369680404663,1.2124117612838743
1757859322614635500,49.19763549804688,-0.2815752327442169,1.4277299642562866,1.27923583984375
1757859322624618500,49.207618408203125,-0.2587197124958038,1.2431910037994385,1.2899140119552612
1757859322634601500,49.2176015625,-0.2700977921485901,1.0380914211273191,1.2006566524505615
1757859322644585700,49.22758569335937,-0.3007305264472961,0.8292015790939331,1.0132765769958496
1757859322654568400,49.237568359375,-0.3005443811416626,0.5907139182090759,0.7308377027511597
1757859322664552400,49.247552490234376,-0.2291056215763092,0.34182870388031,0.4090690016746521
1757859322674535400,49.25753540039062,-0.1030624657869339,0.0901687741279602,0.113306850194931
1757859322684518700,49.2675185546875,0.0136071555316448,-0.1553954482078552,-0.0605509616434574
1757859322694502700,49.27750268554688,0.0703042596578598,-0.3583389818668365,-0.1542913019657135
1757859322704485400,49.2874853515625,0.0464620403945446,-0.5678863525390625,-0.2827166616916656
1757859322714469400,49.297469482421874,-0.0337262712419033,-0.8067716360092163,-0.4938672482967376
1757859322724452600,49.30745263671875,-0.1198025643825531,-1.0304961204528809,-0.7829363346099854
1757859322734435600,49.317435546875,-0.1472871899604797,-1.271306037902832,-1.1317318677902222
1757859322744419600,49.327419677734376,-0.0639313086867332,-1.6077537536621094,-1.4794535636901855
1757859322754402600,49.33740258789062,0.0816045850515365,-1.9839156866073608,-1.7069884538650513
1757859322764386300,49.34738623046875,0.192059725522995,-2.3289170265197754,-1.6566781997680664
1757859322774369500,49.35736962890625,0.1824337244033813,-2.58866810798645,-1.3180935382843018
1757859322784352500,49.3673525390625,0.1148378998041153,-2.8456244468688965,-0.8790226578712463
1757859322794336500,49.37733642578125,0.076198361814022,-2.9680631160736084,-0.6756431460380554
1757859322804319700,49.38731982421875,0.0815417319536209,-2.9332520961761475,-0.8498762249946594
1757859322814302500,49.39730249023437,0.1194475665688514,-2.8154096603393555,-1.090439796447754
1757859322824286500,49.40728637695312,0.142092153429985,-2.775153875350952,-1.14974045753479
1757859322834269400,49.41726953125,0.1145276427268982,-2.7367732524871826,-1.0428760051727295
1757859322844253400,49.42725341796875,0.0841273963451385,-2.620722770690918,-0.8859596252441406
1757859322854236700,49.437236572265626,0.0912939608097076,-2.496979236602783,-0.775727391242981
1757859322864219400,49.44721948242187,0.111249029636383,-2.3457043170928955,-0.6759824752807617
1757859322874203400,49.45720336914062,0.1077682748436927,-2.2204535007476807,-0.5659302473068237
1757859322884186600,49.4671865234375,0.0925821289420127,-2.101181983947754,-0.4242767095565796
1757859322894170600,49.47717065429688,0.0282220505177974,-2.0166447162628174,-0.2917551398277282
1757859322904153600,49.48715356445312,-0.0498373322188854,-1.892390847206116,-0.1960193067789077
1757859322914136300,49.49713623046875,-0.1217139214277267,-1.7908272743225098,-0.1148642674088478
1757859322924120300,49.50712036132813,-0.2186228930950164,-1.6901309490203855,-0.1361027061939239
1757859322934103600,49.517103515625,-0.2327730655670166,-1.5194417238235474,-0.175119087100029
1757859322944087600,49.527087646484375,-0.1993077844381332,-1.3237391710281372,-0.209595039486885
1757859322954070500,49.53707055664062,-0.1526428014039993,-1.138973593711853,-0.2276813685894012
1757859322964053500,49.54705346679688,-0.0944476723670959,-0.9638714790344238,-0.2300087064504623
1757859322974037500,49.55703759765625,-0.0264209546148777,-0.8179504871368408,-0.2187022417783737
1757859322984020500,49.5670205078125,0.0541425980627536,-0.7605825662612915,-0.2096949070692062
1757859322994003500,49.57700341796875,0.1410005241632461,-0.7458134889602661,-0.216825783252716
1757859323003987500,49.58698754882813,0.2206460833549499,-0.6994078755378723,-0.2642289996147156
1757859323013970700,49.596970703125,0.3034679889678955,-0.5984442234039307,-0.3473867177963257
1757859323023954700,49.60695458984375,0.4174632728099823,-0.4456160962581634,-0.4517975449562073
1757859323033937400,49.6169375,0.5716738700866699,-0.2583447396755218,-0.5520439743995667
1757859323043920600,49.62692065429688,0.7524993419647217,-0.0669191107153892,-0.6279661655426025
1757859323053904600,49.636904541015625,0.9219543933868408,0.132245123386383,-0.647200882434845
1757859323063887600,49.6468876953125,1.032511830329895,0.3039377927780151,-0.5851404070854187
1757859323073871600,49.65687158203125,1.0248887538909912,0.4178201556205749,-0.4389232993125915
1757859323083854300,49.66685424804688,0.8806948661804199,0.41920205950737,-0.2407393753528595
1757859323093837600,49.67683764648437,0.696444034576416,0.3373790979385376,-0.0525822527706623
1757859323103821600,49.68682153320312,0.5769900679588318,0.2565740048885345,0.0689756050705909
1757859323113804500,49.696804443359376,0.547453761100769,0.3783595561981201,0.1114948391914367
1757859323123788500,49.70678857421875,0.5257977247238159,0.8046778440475464,0.14006869494915
1757859323133771500,49.716771484375,0.3477284014225006,1.4685453176498413,0.2701507806777954
1757859323143754500,49.72675439453125,-0.1451958119869232,2.171394824981689,0.6087077856063843
1757859323153738500,49.73673852539063,-0.8451336622238159,2.5904247760772705,1.0609642267227173
1757859323163721500,49.74672143554688,-1.4702728986740112,2.4862546920776367,1.3294873237609863
1757859323173704700,49.75670458984375,-1.6104023456573486,2.0243337154388428,1.1496762037277222
1757859323183688700,49.76668872070312,-1.000818371772766,1.3952900171279907,0.5260289311408997
1757859323193671400,49.77667138671875,-0.0937414020299911,1.219681739807129,-0.0237775016576051
1757859323203655400,49.786655517578126,0.6668017506599426,1.4798970222473145,0.0390632450580596
1757859323213638700,49.796638671875,0.9921135306358336,1.8310438394546509,0.5074690580368042
1757859323223621600,49.80662158203125,0.7027277946472168,2.093810796737671,0.76121586561203
1757859323233605600,49.81660571289063,0.193422719836235,2.378947734832764,0.7489820718765259
1757859323243588400,49.82658837890625,-0.2360884249210357,2.564523220062256,0.6552031636238098
1757859323253572400,49.836572265625,-0.4600512087345123,2.516794919967652,0.635402262210846
1757859323263555600,49.8465556640625,-0.4162409007549286,2.3474836349487305,0.7359064817428589
1757859323273538600,49.85653857421875,-0.2574437856674194,2.1609342098236084,0.895336389541626
1757859323283522600,49.8665224609375,-0.0859314203262329,1.9854872226715088,1.093952775001526
1757859323293505500,49.87650561523437,-0.0330197364091873,1.861197829246521,1.274791598320007
1757859323303489500,49.88648950195312,-0.0512264370918273,1.8868584632873533,1.372696042060852
1757859323313472500,49.896472412109375,-0.0865245088934898,1.987853765487671,1.383987545967102
1757859323323455500,49.90645556640625,-0.1134956702589988,2.0974338054656982,1.3174090385437012
1757859323333439500,49.916439453125,-0.1372247040271759,2.1269147396087646,1.1861886978149414
1757859323343422500,49.92642236328125,-0.1787713468074798,2.145249128341675,1.0485461950302124
