time,seconds_elapsed,z,y,x
1758278124513640000,124.59363989257812,-2.087364673614502,-1.1152263879776,0.5826588869094849
1758278124523725000,124.60372509765624,-1.973671317100525,-1.2909140586853027,0.5721399188041687
1758278124533810000,124.61380981445312,-1.910591959953308,-1.4529095888137815,0.505456268787384
1758278124543895000,124.62389501953125,-1.896018385887146,-1.5911189317703247,0.3890289664268493
1758278124553980000,124.63397998046877,-1.907938361167908,-1.711645007133484,0.2493874579668045
1758278124564065000,124.64406494140626,-1.9410712718963623,-1.8131799697875977,0.0849226117134094
1758278124574150000,124.65414990234376,-1.9629853963851929,-1.9165910482406616,-0.0874837785959243
1758278124584235000,124.66423510742187,-1.9538209438323972,-2.0631353855133057,-0.2667542099952698
1758278124594320000,124.67431982421876,-1.9134639501571653,-2.29128646850586,-0.4463471174240112
1758278124604404000,124.68440405273438,-1.8456590175628664,-2.609690427780152,-0.6386228203773499
1758278124614488800,124.69448876953123,-1.761451244354248,-3.042477607727051,-0.8439099192619324
1758278124624574000,124.70457397460936,-1.6882225275039673,-3.583454132080078,-1.068896770477295
1758278124634658800,124.71465893554688,-1.6504274606704712,-4.210700988769531,-1.326144456863403
1758278124644744000,124.72474389648436,-1.6904350519180298,-4.9031243324279785,-1.5836929082870483
1758278124654829000,124.7348291015625,-1.814037203788757,-5.6096296310424805,-1.7984622716903689
1758278124664914000,124.74491381835938,-1.994633913040161,-6.274485111236572,-1.904398798942566
1758278124674999000,124.7549990234375,-2.1322152614593506,-6.811224937438965,-1.8768625259399412
1758278124685084000,124.765083984375,-2.1563870906829834,-7.081554412841797,-1.7524497509002686
1758278124695169000,124.7751689453125,-2.0879344940185547,-7.034345626831055,-1.6045974493026731
1758278124705254000,124.78525390625,-1.9547815322875977,-6.672804832458496,-1.483150601387024
1758278124715339000,124.79533911132812,-1.8131455183029173,-5.973391532897949,-1.425904631614685
1758278124725423900,124.805423828125,-1.7109030485153198,-4.938387393951416,-1.4522571563720703
1758278124735508000,124.81550805664062,-1.603298902511597,-3.645939350128174,-1.556294083595276
1758278124745592800,124.8255927734375,-1.4306719303131104,-2.2768125534057617,-1.6793843507766724
1758278124755678000,124.83567797851562,-1.0850296020507812,-1.1513910293579102,-1.725156307220459
1758278124765763000,124.84576318359376,-0.6702476143836975,-0.3776141405105591,-1.6321678161621094
1758278124775848000,124.85584790039064,-0.3110622763633728,0.1414492726325988,-1.4648059606552124
1758278124785933000,124.86593310546876,-0.0506261587142944,0.5719167590141296,-1.2635247707366943
1758278124796018000,124.87601782226562,0.1287308186292648,0.9650885462760924,-1.062037229537964
1758278124806103000,124.88610302734376,0.2298603653907776,1.288649320602417,-0.8365060687065125
1758278124816188000,124.89618798828126,0.2731505632400512,1.5312830209732056,-0.5659246444702148
1758278124826273000,124.90627294921876,0.2750107944011688,1.6469459533691406,-0.2792662680149078
1758278124836358000,124.91635791015624,0.2891979813575744,1.58706533908844,-0.0218014363199472
1758278124846443000,124.92644311523438,0.3282545804977417,1.365679144859314,0.2103050351142883
1758278124856526800,124.93652685546876,0.3947936594486236,1.048962116241455,0.4207466840744018
1758278124866612000,124.94661206054688,0.4696391224861145,0.7463202476501465,0.6144818067550659
1758278124876696800,124.95669677734377,0.5433050990104675,0.5404248833656311,0.7922003865242004
1758278124886782000,124.96678198242188,0.6214880347251892,0.4475412964820862,0.9444746375083924
1758278124896867000,124.9768671875,0.7212473750114441,0.4673365652561188,1.093778133392334
1758278124906952000,124.98695190429687,0.8455259203910828,0.5842868685722351,1.2326241731643677
1758278124917037000,124.997037109375,1.0057169198989868,0.7695544958114624,1.371586561203003
1758278124927122000,125.00712182617188,1.2049405574798584,1.0108081102371216,1.5141823291778564
1758278124937207000,125.01720703125,1.440316915512085,1.3043371438980105,1.6643043756484983
1758278124947292000,125.0272919921875,1.6935094594955444,1.6384365558624268,1.8324213027954104
1758278124957377000,125.037376953125,1.9418742656707764,2.000462293624878,1.9986193180084229
1758278124967460900,125.0474609375,2.1593728065490723,2.3591413497924805,2.1405341625213623
1758278124977546000,125.0575458984375,2.326987743377685,2.6821985244750977,2.2394018173217773
1758278124987630800,125.067630859375,2.43277907371521,2.938586711883545,2.304898262023926
1758278124997716000,125.07771606445311,2.487410306930542,3.1201043128967285,2.3414113521575928
1758278125007800800,125.08780078125,2.52138900756836,3.217904806137085,2.349489450454712
1758278125017886000,125.09788598632812,2.54953670501709,3.272629976272583,2.325726270675659
1758278125027971000,125.10797119140624,2.5802667140960693,3.3526084423065186,2.2743284702301025
1758278125038056000,125.11805590820312,2.593646287918091,3.434682130813598,2.2057769298553467
1758278125048141300,125.12814135742188,2.588850259780884,3.503403902053833,2.11063003540039
1758278125058226200,125.13822607421876,2.570258378982544,3.533296823501587,2.00791072845459
1758278125068311300,125.14831127929688,2.551841259002685,3.552332162857056,1.8863966464996336
1758278125078396200,125.15839624023438,2.546072483062744,3.5483927726745605,1.7482526302337646
1758278125088480300,125.16848022460935,2.5337765216827397,3.5333406925201416,1.610611915588379
1758278125098565000,125.17856518554689,2.499471426010132,3.509463310241699,1.4635037183761597
1758278125108650200,125.18865014648438,2.447134494781494,3.516946792602539,1.3224443197250366
1758278125118735000,125.19873510742188,2.377736091613769,3.4930996894836426,1.1497998237609863
1758278125128820200,125.2088203125,2.3043460845947266,3.420644521713257,0.9960970878601074
1758278125138905300,125.2189052734375,2.244751214981079,3.290264129638672,0.8507814407348633
1758278125148990200,125.228990234375,2.207017421722412,3.1159729957580566,0.7202039957046509
1758278125159075300,125.23907543945312,2.191984176635742,2.899354696273804,0.5968500971794128
1758278125169160200,125.24916015625,2.212967872619629,2.640745162963867,0.4667099118232727
1758278125179245300,125.25924536132813,2.266345977783203,2.35134220123291,0.342241495847702
1758278125189330200,125.269330078125,2.3516645431518555,2.076201200485229,0.2624563872814178
1758278125199415300,125.27941528320312,2.476289749145508,1.9634701013565063,0.1950856000185012
1758278125209499100,125.2894990234375,2.6191155910491943,1.957671046257019,0.1176355555653572
1758278125219584300,125.29958422851564,2.7048699855804443,1.8959972858428955,-0.0169933643192052
1758278125229669000,125.30966918945312,2.681771278381348,1.7743337154388428,-0.1498382240533828
1758278125239754200,125.31975415039062,2.547288179397583,1.671871304512024,-0.2533907294273376
1758278125249839000,125.32983911132813,2.347968816757202,1.583799958229065,-0.2981821596622467
1758278125259924200,125.33992431640624,2.1320221424102783,1.5191490650177002,-0.3387945592403412
1758278125270009300,125.35000927734374,1.9005334377288816,1.5166393518447876,-0.4494382441043854
1758278125280094200,125.36009423828123,1.6158775091171265,1.544049620628357,-0.5982112288475037
1758278125290179300,125.37017944335938,1.3076307773590088,1.5257470607757568,-0.6975460648536682
1758278125300264200,125.38026416015624,1.003970742225647,1.489138960838318,-0.7360292673110962
1758278125310349300,125.39034936523436,0.7045317888259888,1.438826084136963,-0.7176372408866882
1758278125320433200,125.40043310546876,0.4051046073436737,1.3059781789779663,-0.6617081761360168
1758278125330518300,125.41051831054688,0.1045775413513183,1.0598642826080322,-0.5805962681770325
1758278125340603100,125.42060302734374,-0.1812869608402252,0.7109601497650146,-0.4771724045276642
1758278125350688300,125.43068823242189,-0.4678862392902374,0.2532176077365875,-0.3486765027046203
1758278125360773000,125.44077319335938,-0.7988529801368713,-0.2760507464408874,-0.2332063615322113
1758278125370858200,125.45085815429688,-1.2120139598846436,-0.8130633234977722,-0.1750410497188568
1758278125380943400,125.460943359375,-1.686066746711731,-1.264365553855896,-0.1932171285152435
1758278125391028200,125.4710283203125,-2.1352782249450684,-1.5514458417892456,-0.2639192640781402
1758278125401113300,125.48111328125,-2.4614217281341557,-1.6486873626708984,-0.3515852093696594
1758278125411198200,125.4911982421875,-2.5967087745666504,-1.5332050323486328,-0.4015072286128998
1758278125421283300,125.50128344726562,-2.5567660331726074,-1.243074893951416,-0.3819313943386078
1758278125431368200,125.5113681640625,-2.3891186714172363,-0.8550717830657959,-0.3179651796817779
1758278125441452300,125.52145239257813,-2.181256055831909,-0.4815381467342376,-0.236986443400383
1758278125451537200,125.531537109375,-1.9757877588272093,-0.1658869683742523,-0.1428104192018509
1758278125461622300,125.54162231445312,-1.80904221534729,0.030122747644782,-0.0514285713434219
1758278125471707100,125.55170703125,-1.6873021125793457,0.1946842670440673,0.0468018613755703
1758278125481792300,125.56179223632812,-1.6164500713348389,0.3623262643814087,0.1624981015920639
1758278125491877000,125.57187719726562,-1.5953294038772583,0.4882679581642151,0.2850698232650757
1758278125501962200,125.58196215820313,-1.6271603107452393,0.513613760471344,0.3959028720855713
1758278125512047400,125.59204736328124,-1.723130226135254,0.4605913162231445,0.4963602125644684
1758278125522132200,125.60213232421874,-1.9000903367996216,0.3218214511871338,0.5794524550437927
1758278125532217300,125.61221728515623,-2.1404197216033936,0.0882318541407585,0.6476567983627319
1758278125542302200,125.62230224609377,-2.3996245861053467,-0.1909704804420471,0.7118450999259949
1758278125552387300,125.63238720703124,-2.6089041233062744,-0.5092805624008179,0.7804949879646301
1758278125562471200,125.64247119140624,-2.710890054702759,-0.8362150192260742,0.8374885320663452
1758278125572556300,125.65255639648436,-2.687904119491577,-1.188750386238098,0.8825396299362183
1758278125582641200,125.66264111328124,-2.5628817081451416,-1.5591574907302856,0.9086902737617492
1758278125592726300,125.67272631835938,-2.3861629962921143,-1.9198269844055176,0.9056342840194702
1758278125602811100,125.68281103515623,-2.2063891887664795,-2.2656874656677246,0.8504130840301514
1758278125612896300,125.69289624023438,-2.0598702430725098,-2.628302574157715,0.7339309453964233
1758278125622981000,125.70298120117188,-1.9603453874588013,-2.9997262954711914,0.5628231167793274
1758278125633066200,125.71306616210936,-1.8881468772888184,-3.324735641479492,0.3545216023921966
1758278125643151400,125.7231513671875,-1.8309721946716309,-3.569021463394165,0.1370667815208435
1758278125653236200,125.733236328125,-1.782754898071289,-3.742062568664551,-0.0600329786539077
1758278125663321300,125.7433212890625,-1.732979416847229,-3.868163347244263,-0.2315791696310043
1758278125673405200,125.7534052734375,-1.684736967086792,-3.970050096511841,-0.3766750991344452
1758278125683490300,125.763490234375,-1.6363931894302368,-4.067375659942627,-0.5207561254501343
1758278125693575200,125.7735751953125,-1.5888330936431885,-4.14659595489502,-0.6582071781158447
1758278125703660300,125.78366040039064,-1.5524746179580688,-4.205140113830566,-0.8099488019943237
1758278125713745200,125.7937451171875,-1.523482084274292,-4.254761695861816,-0.9802739024162292
1758278125723830300,125.80383032226564,-1.5029901266098022,-4.316450595855713,-1.1475467681884766
1758278125733915100,125.8139150390625,-1.4797345399856567,-4.356170177459717,-1.299843430519104
1758278125744000300,125.82400024414062,-1.4443371295928955,-4.310810565948486,-1.4238835573196411
1758278125754085000,125.83408520507813,-1.3952324390411377,-4.173932075500488,-1.521019458770752
1758278125764170200,125.84417016601564,-1.371142029762268,-3.954035520553589,-1.597746968269348
1758278125774255400,125.85425537109376,-1.3815704584121704,-3.6539463996887207,-1.6458511352539062
1758278125784339200,125.86433911132812,-1.414681315422058,-3.3013064861297607,-1.660154938697815
1758278125794424300,125.87442431640623,-1.4506549835205078,-2.9170658588409424,-1.6259090900421145
1758278125804509200,125.88450927734377,-1.4696593284606934,-2.5084450244903564,-1.5538748502731323
1758278125814594300,125.89459423828124,-1.460353970527649,-2.0827481746673584,-1.4747626781463623
1758278125824679200,125.90467919921876,-1.4094260931015017,-1.6125177145004272,-1.3981084823608398
1758278125834764300,125.91476440429688,-1.3359692096710205,-1.09602153301239,-1.3308463096618652
1758278125844849200,125.92484912109374,-1.2446914911270142,-0.5433141589164734,-1.2476547956466677
1758278125854934300,125.93493432617188,-1.1359708309173584,-0.0175185389816761,-1.1459174156188965
1758278125865019100,125.94501904296877,-1.0167198181152344,0.420466274023056,-1.0093092918395996
1758278125875104300,125.95510424804688,-0.8630463480949402,0.7251065969467163,-0.8365556001663208
1758278125885189400,125.965189453125,-0.6932621002197266,0.9153044819831848,-0.6381474733352661
1758278125895273200,125.97527319335936,-0.5008053183555603,1.0013911724090576,-0.4153601825237274
1758278125905358000,125.98535815429688,-0.2847765982151031,1.0019904375076294,-0.1885331571102142
1758278125915443200,125.99544311523438,-0.0843138173222541,0.9654528498649596,0.0269048511981964
1758278125925528300,126.0055283203125,0.080389380455017,0.8881197571754456,0.2092232555150985
1758278125935613200,126.01561328125,0.2040561884641647,0.7521358132362366,0.3750601708889007
1758278125945698300,126.0256982421875,0.2843941748142242,0.5896188020706177,0.5238261818885803
1758278125955783200,126.035783203125,0.3331129848957062,0.5098845362663269,0.663116455078125
1758278125965868300,126.04586840820312,0.35670006275177,0.5477259159088135,0.7964436411857605
1758278125975953200,126.055953125,0.3948613107204437,0.6726460456848145,0.9114879369735718
1758278125986038300,126.06603833007811,0.4583745002746582,0.8685154318809509,1.003991723060608
1758278125996123100,126.076123046875,0.5566312670707703,1.1472724676132202,1.0899518728256226
1758278126006207200,126.08620727539062,0.6912775039672852,1.5105353593826294,1.17755925655365
1758278126016292000,126.0962919921875,0.8675097823143005,1.9545937776565552,1.269587516784668
1758278126026377200,126.10637719726564,1.0909987688064575,2.4672956466674805,1.3443591594696045
1758278126036462000,126.11646215820312,1.3426432609558103,3.0041162967681885,1.4029951095581057
1758278126046547200,126.12654711914062,1.618382215499878,3.5268330574035645,1.453324317932129
1758278126056632300,126.13663232421877,1.8915716409683228,3.993819952011109,1.476559281349182
1758278126066717400,126.14671752929688,2.1398675441741943,4.377623081207275,1.4820624589920044
1758278126076802300,126.15680224609376,2.343526601791382,4.648519039154053,1.4510376453399658
1758278126086887400,126.16688745117187,2.497217893600464,4.804716110229492,1.3866629600524902
1758278126096972500,126.17697265625,2.607763290405273,4.842094421386719,1.2863425016403198
1758278126107057400,126.18705737304688,2.678601026535034,4.767597198486328,1.15945565700531
1758278126117142500,126.197142578125,2.7142043113708496,4.59782075881958,1.007823467254639
1758278126127226400,126.20722631835936,2.7183761596679688,4.346704959869385,0.846020519733429
1758278126137311500,126.2173115234375,2.6981942653656006,3.980479240417481,0.6963625550270081
1758278126147396400,126.22739624023436,2.6640326976776123,3.5621938705444336,0.5664330720901489
1758278126157481500,126.2374814453125,2.6103806495666504,3.112732172012329,0.4515317678451538
1758278126167566300,126.24756640625,2.546553611755371,2.677668571472168,0.3497939705848694
1758278126177651500,126.2576513671875,2.4773435592651367,2.258545160293579,0.2509177029132843
1758278126187736300,126.267736328125,2.4120023250579834,1.8446686267852783,0.153518721461296
1758278126197821400,126.27782153320312,2.355386972427368,1.458760380744934,0.0603786557912826
1758278126207906300,126.28790625,2.3072526454925537,1.1137797832489014,-0.0148817440494894
1758278126217991400,126.29799145507812,2.2627882957458496,0.8058850765228271,-0.0804929807782173
1758278126228075300,126.3080751953125,2.2341458797454834,0.5635706782341003,-0.1297473460435867
1758278126238160400,126.31816040039062,2.225692749023437,0.4271747767925262,-0.1837059110403061
1758278126248245200,126.32824536132811,2.2289879322052,0.3644464015960693,-0.2322510778903961
1758278126258330400,126.33833032226562,2.249274253845215,0.2876339256763458,-0.2801283299922943
1758278126268415500,126.34841552734376,2.281123161315918,0.2092698663473129,-0.3110918402671814
1758278126278500400,126.35850024414064,2.3493640422821045,0.098098337650299,-0.3335862159729004
1758278126288585500,126.36858544921876,2.441019296646118,-0.014306235127151,-0.3099096715450287
1758278126298670300,126.37867041015625,2.557181596755981,-0.0637901648879051,-0.2741985321044922
1758278126308755500,126.38875537109377,2.654402017593384,-0.0216720066964626,-0.2654825448989868
1758278126318840300,126.39884033203126,2.6306753158569336,-0.0052192630246281,-0.309212177991867
1758278126328925400,126.40892553710935,2.433172702789306,0.0057630804367363,-0.3567945957183838
1758278126339009300,126.41900927734376,2.0860345363616943,0.1194390431046485,-0.3952115178108215
1758278126349094400,126.42909448242187,1.688461422920227,0.3586119413375854,-0.4836372435092926
1758278126359179300,126.43917919921876,1.2830531597137451,0.641224205493927,-0.5856149792671204
1758278126369264400,126.44926440429688,0.8946223855018616,0.8707095980644226,-0.6423850655555725
1758278126379349200,126.45934936523436,0.5210727453231812,0.9975679516792296,-0.6480320692062378
1758278126389434400,126.46943432617188,0.1500885635614395,1.0590333938598633,-0.6251765489578247
1758278126399519500,126.47951953125,-0.2287719249725341,1.0697492361068726,-0.6003164649009705
1758278126409604400,126.48960424804687,-0.5703372359275818,1.0144590139389038,-0.5385076999664307
1758278126419689500,126.499689453125,-0.8248973488807678,0.9220768809318542,-0.4782528579235077
1758278126429774300,126.5097744140625,-0.9476733207702636,0.8098470568656921,-0.428653359413147
1758278126439859500,126.519859375,-0.9471636414527892,0.6458373069763184,-0.3914577662944793
1758278126449943300,126.529943359375,-0.8987641334533691,0.3766482174396515,-0.3751038312911987
1758278126460028400,126.5400283203125,-0.8856094479560852,-0.0167824421077966,-0.4026404023170471
1758278126470113300,126.55011328125,-0.9577861428260804,-0.4553115963935852,-0.4738312065601349
1758278126480198400,126.56019848632812,-1.1236084699630735,-0.8320176005363464,-0.5638734698295593
1758278126490283300,126.570283203125,-1.359628677368164,-1.1274974346160889,-0.6371037364006042
1758278126500368400,126.58036840820311,-1.645655393600464,-1.3452473878860474,-0.6893155574798584
1758278126510453500,126.59045361328126,-1.9482008218765257,-1.511089324951172,-0.7206705808639526
1758278126520538400,126.60053833007812,-2.212071418762207,-1.607852339744568,-0.7348721623420715
1758278126530623500,126.61062353515624,-2.4012129306793213,-1.6165608167648315,-0.7114842534065247
1758278126540708400,126.62070825195312,-2.4929757118225098,-1.5314422845840454,-0.6531538367271423
1758278126550793500,126.63079345703125,-2.4832122325897217,-1.36051607131958,-0.5504130721092224
1758278126560877300,126.64087719726562,-2.3800840377807617,-1.1423027515411377,-0.3949084281921386
1758278126570962400,126.65096240234377,-2.1875152587890625,-0.9026960134506226,-0.2268456667661667
1758278126581047300,126.66104736328126,-1.9328418970108032,-0.6531943082809448,-0.0645821914076805
1758278126591132400,126.67113232421876,-1.6690174341201782,-0.3851127922534942,0.0878377109766006
1758278126601217300,126.68121728515624,-1.4482946395874023,-0.0999638810753822,0.2248560190200805
1758278126611302400,126.69130249023438,-1.3367308378219604,0.2014438956975937,0.2941807508468628
1758278126621387300,126.70138720703125,-1.3751243352890017,0.4857736229896545,0.2986934781074524
1758278126631472400,126.71147241210936,-1.5380256175994873,0.7044156789779663,0.3011457324028015
1758278126641557500,126.7215576171875,-1.7383430004119873,0.8371404409408569,0.3395746052265167
1758278126651642400,126.73164233398435,-1.9101752042770384,0.8557202816009521,0.4052723944187164
1758278126661727500,126.7417275390625,-2.0165631771087646,0.7633578181266785,0.4949543476104736
1758278126671811300,126.75181127929687,-2.0516796112060547,0.5493952035903931,0.5820106863975525
1758278126681896400,126.761896484375,-2.038240432739258,0.2348982691764831,0.6346166133880615
1758278126691981300,126.77198120117188,-2.0025312900543213,-0.1508430391550064,0.6413187384605408
1758278126702066400,126.78206640625,-1.960074543952942,-0.5781419277191162,0.5942572355270386
1758278126712151300,126.7921513671875,-1.927988052368164,-1.0025781393051147,0.5016679167747498
1758278126722236400,126.802236328125,-1.907476544380188,-1.4006751775741575,0.3729000687599182
1758278126732321300,126.8123212890625,-1.8804808855056765,-1.783055067062378,0.220076709985733
1758278126742406400,126.82240649414062,-1.843732476234436,-2.143471002578736,0.0613515079021453
1758278126752491300,126.8324912109375,-1.794611573219299,-2.4879050254821777,-0.1257568597793579
1758278126762576400,126.84257641601565,-1.757294535636902,-2.811197519302368,-0.3336450755596161
1758278126772661500,126.85266162109374,-1.725817322731018,-3.1310977935791016,-0.5353254675865173
1758278126782745300,126.86274536132812,-1.6713948249816897,-3.4493637084960938,-0.7089004516601562
1758278126792830200,126.87283032226564,-1.5864026546478271,-3.784502506256104,-0.8449677228927612
1758278126802915300,126.88291528320312,-1.4946895837783811,-4.099010944366455,-0.9563938975334167
1758278126813000400,126.89300048828125,-1.4111837148666382,-4.368497848510742,-1.0590976476669312
1758278126823085300,126.90308520507811,-1.3557958602905271,-4.549269199371338,-1.140936255455017
1758278126833170400,126.91317041015624,-1.3447943925857544,-4.601053714752197,-1.2324148416519165
1758278126843255300,126.92325537109376,-1.3597514629364014,-4.489871025085449,-1.3210501670837402
1758278126853340400,126.93334033203124,-1.380033016204834,-4.221895694732666,-1.389811396598816
1758278126863425300,126.94342529296875,-1.3895461559295654,-3.803750991821289,-1.4321998357772827
1758278126873510400,126.95351049804688,-1.3850754499435425,-3.285465955734253,-1.4242756366729736
1758278126883594200,126.96359423828125,-1.365898609161377,-2.6860976219177246,-1.352698564529419
1758278126893679400,126.97367944335936,-1.3148881196975708,-2.062808990478516,-1.2187256813049316
1758278126903764200,126.98376416015626,-1.2428903579711914,-1.4677228927612305,-1.0422145128250122
1758278126913849300,126.99384936523435,-1.1671161651611328,-0.9443012475967408,-0.8336207866668701
1758278126923934500,127.0039345703125,-1.0827608108520508,-0.4933694899082184,-0.6411371231079102
1758278126934019300,127.01401928710938,-1.0018380880355835,-0.1148552149534225,-0.4803503751754761
1758278126944104400,127.0241044921875,-0.8894425630569458,0.1851291060447693,-0.3630719482898712
1758278126954189300,127.03418920898436,-0.7114730477333069,0.4309335350990295,-0.2809736132621765
1758278126964274400,127.0442744140625,-0.4579723477363586,0.6400579810142517,-0.2109050452709198
1758278126974359300,127.054359375,-0.1541938334703445,0.7606134414672852,-0.1294464021921157
1758278126984444400,127.0644443359375,0.163513034582138,0.7672061324119568,-0.03806908801198
1758278126994528300,127.0745283203125,0.4473511278629303,0.6863186955451965,0.0839100778102874
1758278127004613400,127.08461328125,0.6738417744636536,0.5838866233825684,0.2339499145746231
1758278127014698200,127.0946982421875,0.8232174515724182,0.5037637948989868,0.3942333161830902
1758278127024783400,127.10478344726565,0.9116476774215698,0.4715307652950287,0.5506945848464966
1758278127034868200,127.1148681640625,0.96453195810318,0.4958505034446716,0.7040005326271057
1758278127044953300,127.12495336914064,0.9958406090736388,0.6073789000511169,0.8493632674217224
1758278127055037700,127.13503759765624,1.0256531238555908,0.7953298687934875,0.9818411469459534
1758278127065122800,127.14512280273438,1.0753023624420166,1.0327861309051514,1.0807522535324097
1758278127075207700,127.15520776367188,1.1831660270690918,1.3045488595962524,1.1620783805847168
1758278127085292800,127.16529272460936,1.370169758796692,1.6243975162506104,1.2262884378433228
1758278127095376600,127.17537670898436,1.6337414979934692,1.969543218612671,1.2845290899276731
1758278127105461800,127.18546166992188,1.9592479467391968,2.324041843414306,1.337512493133545
1758278127115546600,127.19554663085935,2.3034236431121826,2.6649961471557617,1.385262131690979
1758278127125631700,127.2056318359375,2.644993305206299,2.965306043624878,1.4348174333572388
1758278127135716900,127.215716796875,2.9559648036956787,3.199424743652344,1.467522382736206
1758278127145801700,127.2258017578125,3.206578493118286,3.3402466773986816,1.4777814149856567
1758278127155886800,127.23588696289065,3.361591100692749,3.3844830989837646,1.4905102252960205
1758278127165971700,127.2459716796875,3.395963430404663,3.3391828536987305,1.4960522651672363
1758278127176056800,127.25605688476564,3.3225128650665283,3.22693943977356,1.483138918876648
1758278127186141700,127.2661416015625,3.15610933303833,3.070820569992065,1.4554460048675537
1758278127196226800,127.27622680664062,2.9625115394592285,2.8754143714904785,1.4082156419754028
1758278127206310700,127.286310546875,2.7898969650268555,2.660113573074341,1.368537187576294
1758278127216395800,127.29639575195311,2.659257650375366,2.476330518722534,1.348631739616394
1758278127226480600,127.30648071289062,2.5476105213165283,2.359811305999756,1.3396453857421875
1758278127236565800,127.31656567382812,2.437500476837158,2.307923555374145,1.3197201490402222
1758278127246650600,127.32665063476564,2.3121442794799805,2.291072368621826,1.271464228630066
1758278127256735700,127.33673583984375,2.171194076538086,2.282788753509521,1.1921470165252686
1758278127266820900,127.34682080078124,2.0361788272857666,2.2602012157440186,1.088019847869873
1758278127276905700,127.35690576171876,1.9227663278579712,2.2250068187713623,0.9788389801979064
1758278127286990800,127.36699096679688,1.849587202072144,2.198139905929565,0.8556779026985168
1758278127297075700,127.37707568359374,1.824312686920166,2.1795730590820312,0.7237691283226013
1758278127307159800,127.38715991210935,1.8501107692718504,2.125810384750366,0.576823890209198
1758278127317244700,127.39724462890624,1.9322046041488647,2.084080457687378,0.4315647184848785
1758278127327329800,127.40732983398438,2.041095972061157,2.084758281707764,0.3118862509727478
1758278127337414700,127.41741455078125,2.155957698822021,2.076105117797852,0.2209347784519195
1758278127347499800,127.42749975585936,2.2669901847839355,2.029064655303955,0.1650174558162689
1758278127357584600,127.43758471679688,2.3830103874206543,1.9226096868515012,0.1421928256750106
1758278127367669800,127.44766967773438,2.517369508743286,1.8025579452514648,0.1172901391983032
1758278127377754600,127.45775463867189,2.6414802074432373,1.6140437126159668,0.0621696300804615
1758278127387839700,127.46783984375,2.734713315963745,1.390272617340088,-0.0668906196951866
1758278127397924900,127.4779248046875,2.694648265838623,1.0992811918258667,-0.1819991022348404
1758278127408008700,127.4880087890625,2.4747095108032227,0.8370416164398193,-0.2227185666561126
1758278127418093800,127.49809375,2.137594223022461,0.7167208194732666,-0.2463288158178329
1758278127428178700,127.5081787109375,1.7560359239578247,0.66050785779953,-0.3100848793983459
1758278127438263800,127.51826391601564,1.3775427341461182,0.5972165465354919,-0.3925749659538269
1758278127448348700,127.5283486328125,1.07255220413208,0.517341673374176,-0.417262464761734
1758278127458433800,127.53843383789062,0.8483685851097107,0.5417833924293518,-0.3862712681293487
1758278127468518700,127.5485185546875,0.6631697416305542,0.688444972038269,-0.3119501769542694
1758278127478603800,127.55860375976565,0.4777561724185943,0.8529835939407349,-0.2090168595314026
1758278127488688600,127.56868872070312,0.2891282141208648,0.9221027493476868,-0.0961177423596382
1758278127498773800,127.57877368164064,0.1042329296469688,0.8412244319915771,0.0103136235848069
1758278127508859000,127.58885888671875,-0.0871812403202056,0.598555326461792,0.1127848699688911
1758278127518942700,127.59894262695312,-0.3395003080368042,0.2246419042348861,0.1784254014492035
1758278127529027600,127.60902758789062,-0.7082301378250122,-0.1953037232160568,0.1777146011590957
1758278127539112700,127.61911279296876,-1.171212911605835,-0.5699316263198853,0.1281443834304809
1758278127549197800,127.62919775390624,-1.6705559492111206,-0.8601198196411133,0.0601088777184486
1758278127559282700,127.63928271484374,-2.1109302043914795,-1.032068133354187,0.0075588501058518
1758278127569367800,127.64936791992189,-2.413823366165161,-1.0454585552215576,-0.0351702384650707
1758278127579452700,127.65945263671875,-2.533101320266724,-0.9377229809761048,-0.0372150130569934
1758278127589537800,127.66953784179688,-2.4852664470672607,-0.7581101059913635,-0.0190048497170209
1758278127599622700,127.67962255859376,-2.3243184089660645,-0.5622055530548096,0.0087886974215507
1758278127609707800,127.68970776367188,-2.1372361183166504,-0.4174110889434814,0.0239684488624334
1758278127619792000,127.6997919921875,-1.9706417322158811,-0.3344144523143768,0.0502101741731166
1758278127629876700,127.70987670898438,-1.858538627624512,-0.336004376411438,0.0805230736732482
1758278127639961600,127.71996166992189,-1.8076967000961304,-0.3817087411880493,0.1088399291038513
1758278127650046700,127.73004663085938,-1.841102123260498,-0.4381730854511261,0.1228284537792205
1758278127660131600,127.74013159179688,-1.9685457944869995,-0.5022221207618713,0.1200566291809082
1758278127670216700,127.750216796875,-2.1868560314178467,-0.5886382460594177,0.1028805747628212
1758278127680301800,127.7603017578125,-2.4390206336975098,-0.734546959400177,0.0668384209275245
1758278127690386700,127.77038671875,-2.652885913848877,-0.9089112877845764,0.0465219616889953
1758278127700471800,127.78047192382812,-2.80819034576416,-1.0980987548828125,0.0578459873795509
1758278127710556700,127.790556640625,-2.8857641220092773,-1.3052514791488647,0.0881066918373107
1758278127720641800,127.80064184570313,-2.901963472366333,-1.502349615097046,0.1199351921677589
1758278127730726000,127.81072583007813,-2.8719305992126465,-1.6725090742111206,0.1305241882801056
1758278127740810800,127.82081079101565,-2.830517530441284,-1.8101452589035036,0.1332808285951614
1758278127750895600,127.8308955078125,-2.7990269660949707,-1.9142351150512693,0.1063847616314888
1758278127760980700,127.84098071289064,-2.7908949851989746,-1.9842473268508911,0.0589498691260814
1758278127771065600,127.85106567382812,-2.816004037857056,-2.037670612335205,-0.0248771198093891
1758278127781150700,127.86115063476562,-2.854804992675781,-2.066309690475464,-0.1584218591451645
1758278127791235800,127.87123583984376,-2.880437135696411,-2.063273906707764,-0.2961299419403076
1758278127801320700,127.88132080078124,-2.89119029045105,-2.0658822059631348,-0.4601878523826599
1758278127811405800,127.89140576171874,-2.8643667697906494,-2.1101505756378174,-0.6228108406066895
1758278127821490700,127.90149072265623,-2.8117196559906006,-2.2350494861602783,-0.7734845280647278
1758278127831575000,127.91157495117189,-2.7244460582733154,-2.467313051223755,-0.8791787028312683
1758278127841660000,127.92165991210938,-2.615023136138916,-2.7832517623901367,-0.9474800229072572
1758278127851744800,127.93174487304688,-2.4678843021392822,-3.1694254875183105,-0.9848819971084596
1758278127861829600,127.94182958984376,-2.3100926876068115,-3.5441689491271973,-0.9940086007118224
1758278127871914800,127.95191479492188,-2.1598987579345703,-3.828846454620361,-1.008306860923767
1758278127881999600,127.96199951171874,-2.028630018234253,-4.029264450073242,-1.0451953411102295
1758278127892084700,127.97208471679689,-1.9147968292236328,-4.121959209442139,-1.0921727418899536
1758278127902169600,127.98216967773438,-1.7827767133712769,-4.099243640899658,-1.1432745456695557
1758278127912254700,127.99225463867188,-1.6338056325912476,-3.9754579067230233,-1.204064965248108
1758278127922339800,128.00233984375,-1.493282914161682,-3.7433156967163086,-1.259880542755127
1758278127932424000,128.012423828125,-1.3743373155593872,-3.4353902339935303,-1.2954970598220823
1758278127942508800,128.0225087890625,-1.287552833557129,-3.108092784881592,-1.2884173393249512
1758278127952594000,128.03259399414063,-1.2115180492401123,-2.7740752696990967,-1.2014446258544922
1758278127962678800,128.0426787109375,-1.138986349105835,-2.4892523288726807,-1.032745361328125
1758278127972764000,128.05276391601564,-1.0877108573913574,-2.2331466674804688,-0.8035404086112976
1758278127982848800,128.06284887695313,-1.0454014539718628,-1.9508781433105469,-0.5575886964797974
1758278127992933600,128.07293359375,-0.9765798449516296,-1.6157594919204712,-0.3433317840099334
1758278128003018800,128.08301879882814,-0.8494074940681458,-1.21311354637146,-0.1908272057771682
1758278128013103600,128.093103515625,-0.6433126330375671,-0.8091256022453308,-0.0793185234069824
1758278128023188700,128.10318872070312,-0.3543029427528381,-0.4730064272880554,0.0268848780542612
1758278128033272800,128.11327294921875,-0.0198733061552047,-0.2253857254981994,0.1366129666566848
1758278128043358000,128.12335791015624,0.3110987544059753,-0.0441418960690498,0.2599506080150604
1758278128053443000,128.13344311523437,0.5925743579864502,0.0781376808881759,0.3780341148376465
1758278128063528000,128.14352783203125,0.7944768667221069,0.144875168800354,0.5010154247283936
1758278128073613000,128.15361303710938,0.9007362127304076,0.1313372552394867,0.6231335997581482
1758278128083698000,128.16369799804687,0.9373877048492432,0.0662088468670845,0.7529552578926086
1758278128093782800,128.17378271484375,0.9515301585197448,0.0115107148885726,0.9076439142227172
1758278128103868000,128.18386791992188,0.984787940979004,0.0286915656179189,1.0471155643463137
1758278128113952800,128.19395288085937,1.033504605293274,0.1713158190250396,1.1546939611434937
1758278128124038000,128.20403784179686,1.1123582124710083,0.4301961064338684,1.2280653715133667
1758278128134122000,128.2141220703125,1.2347546815872192,0.7868314981460571,1.2866580486297607
1758278128144207000,128.22420703125,1.4137071371078491,1.2297321557998655,1.3367356061935425
1758278128154292000,128.2342919921875,1.6593270301818848,1.7093491554260254,1.3861433267593384
1758278128164377000,128.24437719726564,1.9554766416549685,2.1811299324035645,1.4319984912872314
1758278128174462000,128.2544619140625,2.2771546840667725,2.6114072799682617,1.490597128868103
1758278128184547000,128.26454711914062,2.588613271713257,2.9744322299957275,1.5411583185195925
1758278128194632000,128.2746318359375,2.846130609512329,3.246861219406128,1.588882327079773
1758278128204716800,128.284716796875,3.022311210632324,3.415487289428711,1.602055907249451
1758278128214802000,128.29480200195312,3.098675012588501,3.4890947341918945,1.5856677293777466
1758278128224886800,128.30488671875,3.077032327651977,3.478609323501587,1.5521504878997805
1758278128234971100,128.31497119140624,2.981198787689209,3.404712200164795,1.4932641983032229
1758278128245056000,128.32505590820313,2.8394689559936523,3.287391424179077,1.417751669883728
1758278128255141000,128.33514111328125,2.6820099353790283,3.148993968963623,1.333193063735962
1758278128265226000,128.34522607421874,2.533254384994507,3.019353151321411,1.2527225017547607
1758278128275311000,128.35531103515626,2.404301643371582,2.922626495361328,1.1798349618911743
1758278128285396000,128.36539599609375,2.304534912109375,2.85364317893982,1.0889856815338137
1758278128295481000,128.37548120117188,2.222398519515991,2.8049204349517822,0.9883078336715698
1758278128305566000,128.38556591796876,2.157663106918335,2.775928258895874,0.8785297274589539
1758278128315650800,128.39565087890625,2.097653388977051,2.762617588043213,0.766520619392395
1758278128325736000,128.40573583984374,2.057488441467285,2.735492706298828,0.6415168642997742
1758278128335820000,128.41582006835938,2.034982681274414,2.6622958183288574,0.5244512557983398
1758278128345905000,128.42590478515626,2.032500743865967,2.523020029067993,0.406534194946289
1758278128355990000,128.43598999023436,2.065032958984375,2.4142050743103027,0.2823203802108764
1758278128366075100,128.4460751953125,2.1282873153686523,2.398463726043701,0.1782847791910171
1758278128376160000,128.45615991210937,2.217560052871704,2.3589792251586914,0.0798026844859123
1758278128386245000,128.4662451171875,2.331366539001465,2.2571518421173096,-0.0031435952987521
1758278128396330000,128.476330078125,2.464463710784912,2.143338441848755,-0.0597237832844257
1758278128406415000,128.4864150390625,2.624877691268921,2.0167653560638428,-0.0887857973575592
1758278128416500000,128.4965,2.790696382522583,1.8638721704483032,-0.1194499656558036
1758278128426584800,128.50658471679688,2.930908679962158,1.6958400011062622,-0.1620600074529647
1758278128436669000,128.5166689453125,3.003914833068848,1.5326987504959106,-0.2302265465259552
1758278128446754000,128.52675415039062,2.9264931678771973,1.3494945764541626,-0.3122811913490295
1758278128456839000,128.5368388671875,2.674971342086792,1.2018989324569702,-0.3832488656044006
1758278128466924000,128.54692407226565,2.3227686882019043,1.136757254600525,-0.4408458471298218
1758278128477009000,128.5570087890625,1.930923342704773,1.1132391691207886,-0.4642022848129272
1758278128487094000,128.56709399414063,1.5478049516677856,1.0638399124145508,-0.449985533952713
1758278128497179100,128.57717919921876,1.2028577327728271,0.9895909428596495,-0.4110783636569977
1758278128507264000,128.58726391601562,0.8883703351020813,0.896087110042572,-0.3529846966266632
1758278128517349000,128.59734912109374,0.5738499760627747,0.7733103632926941,-0.2931743562221527
1758278128527434000,128.60743408203126,0.2486321777105331,0.6018176674842834,-0.243445947766304
1758278128537519000,128.61751904296875,-0.0686435103416442,0.3843106627464294,-0.197475254535675
1758278128547603000,128.62760302734375,-0.3261738419532776,0.1615971475839615,-0.1427209377288818
1758278128557688000,128.63768798828124,-0.5075670480728149,-0.0898641124367713,-0.0866246372461319
1758278128567773000,128.64777294921876,-0.6262985467910767,-0.3617906868457794,-0.0421783477067947
1758278128577858000,128.6578581542969,-0.7233070731163025,-0.6293297410011292,-0.0216733366250991
1758278128587943000,128.66794287109374,-0.8525276780128479,-0.8783590197563171,-0.0330943018198013
1758278128598028000,128.67802807617187,-1.0485727787017822,-1.109530687332153,-0.0578710213303566
1758278128608113000,128.68811279296875,-1.3295903205871582,-1.3084392547607422,-0.0971915274858474
1758278128618198000,128.69819799804688,-1.701819896697998,-1.4284237623214722,-0.1502899080514907
1758278128628283100,128.708283203125,-2.086904764175415,-1.4353476762771606,-0.1954802870750427
1758278128638368000,128.7183679199219,-2.394520998001098,-1.3116520643234253,-0.2148403972387313
1758278128648452000,128.7284521484375,-2.554717302322388,-1.115450143814087,-0.1830968558788299
1758278128658537000,128.73853686523438,-2.56329083442688,-0.8862283825874329,-0.0943728387355804
1758278128668622000,128.7486220703125,-2.460126638412476,-0.6520571708679199,0.0155235659331083
1758278128678707000,128.75870703125,-2.300152540206909,-0.4263172149658203,0.11407171189785
1758278128688792000,128.7687919921875,-2.132817029953003,-0.2339714765548706,0.1932751834392547
1758278128698877000,128.778876953125,-1.9790202379226685,-0.0781089141964912,0.2642577588558197
1758278128708962000,128.78896215820313,-1.8594728708267207,0.0401064082980155,0.3242267966270447
1758278128719047000,128.799046875,-1.804823398590088,0.1212587803602218,0.3764612674713135
1758278128729132000,128.80913208007811,-1.8285082578659055,0.1787178218364715,0.4196976721286773
1758278128739216000,128.8192158203125,-1.94470489025116,0.1873528510332107,0.4489394426345825
1758278128749301000,128.82930102539063,-2.117103576660156,0.1535874307155609,0.4657684862613678
1758278128759385900,128.8393857421875,-2.3147897720336914,0.1016760244965553,0.4968739449977875
1758278128769471000,128.84947094726562,-2.4846067428588867,0.0247444938868284,0.537813663482666
1758278128779556000,128.85955615234374,-2.6122117042541504,-0.074275828897953,0.589442253112793
1758278128789641000,128.86964086914062,-2.686187267303467,-0.2205406278371811,0.6377328038215637
1758278128799726000,128.87972607421875,-2.708024740219116,-0.4103862047195434,0.6740093231201172
1758278128809811000,128.88981103515624,-2.6934447288513184,-0.6199042797088623,0.690607488155365
1758278128819896000,128.89989599609376,-2.6623613834381104,-0.8806751370429993,0.6736292839050293
1758278128829981000,128.90998095703125,-2.6213066577911377,-1.235063552856445,0.6029897332191467
1758278128840066000,128.92006616210938,-2.560547351837158,-1.604557991027832,0.4923809170722961
1758278128850150000,128.93014990234374,-2.4832537174224854,-1.965039014816284,0.3605480790138244
1758278128860235000,128.94023510742187,-2.385664701461792,-2.335697650909424,0.2052365094423294
1758278128870319900,128.95031982421875,-2.267326831817627,-2.723410129547119,0.0426960662007331
1758278128880405000,128.96040502929688,-2.1406071186065674,-3.1100168228149414,-0.1276948451995849
1758278128890489900,128.97048974609376,-2.004488706588745,-3.489955425262451,-0.297939270734787
1758278128900575000,128.9805749511719,-1.8712868690490725,-3.865256547927856,-0.4642747342586517
1758278128910660000,128.99066015625,-1.7511143684387207,-4.212140083312988,-0.6173516511917114
1758278128920745000,129.00074487304687,-1.6355994939804075,-4.532947063446045,-0.7702663540840149
1758278128930830000,129.010830078125,-1.5304619073867798,-4.840560436248779,-0.91775244474411
1758278128940915000,129.0209150390625,-1.4169228076934814,-5.122989654541016,-1.061432719230652
1758278128950999000,129.0309990234375,-1.322931170463562,-5.362499713897705,-1.1766237020492554
1758278128961084000,129.041083984375,-1.258242130279541,-5.535628318786621,-1.2701307535171509
1758278128971169000,129.0511689453125,-1.2372084856033323,-5.611495494842529,-1.329299807548523
1758278128981254000,129.06125390625,-1.242319941520691,-5.58403205871582,-1.3423117399215698
1758278128991339000,129.07133911132811,-1.2927165031433103,-5.433099746704102,-1.3090206384658811
1758278129001424000,129.081423828125,-1.3650604486465454,-5.131793022155762,-1.2110559940338137
1758278129011509000,129.09150903320312,-1.4395490884780884,-4.693819046020508,-1.075637936592102
1758278129021594000,129.1015939941406,-1.4926016330718994,-4.156734466552734,-0.9486632347106934
1758278129031679000,129.11167895507813,-1.5072687864303589,-3.537584066390991,-0.8251628875732422
1758278129041762800,129.1217626953125,-1.4899134635925293,-2.8764071464538574,-0.7225273251533508
1758278129051847700,129.13184765625,-1.408653974533081,-2.200486421585083,-0.6306583881378174
1758278129061932800,129.14193286132812,-1.2544572353363037,-1.5056442022323608,-0.554854691028595
1758278129072018000,129.15201782226563,-1.0376237630844116,-0.8309674859046936,-0.4919319152832031
1758278129082102800,129.16210278320312,-0.7765141129493713,-0.2541931271553039,-0.4321953654289245
1758278129092188000,129.17218798828125,-0.5035489201545715,0.1728466153144836,-0.3497412204742431
1758278129102272800,129.18227270507813,-0.2422419339418411,0.4452930390834808,-0.2386378794908523
1758278129112358000,129.19235791015626,-0.0398917570710182,0.6042435765266418,-0.1002320647239685
1758278129122442800,129.20244287109375,0.1003931835293769,0.665578305721283,0.0445344448089599
1758278129132527900,129.21252783203124,0.1905369311571121,0.6333196759223938,0.2057132124900818
1758278129142611700,129.22261181640624,0.2490987777709961,0.5237039923667908,0.3744345903396606
1758278129152696800,129.23269677734376,0.2870368361473083,0.3950381278991699,0.5348786115646362
1758278129162781700,129.24278173828125,0.3118127584457397,0.3410401344299316,0.7030510902404785
1758278129172866800,129.25286669921874,0.3377144038677215,0.3791800737380981,0.8641126751899719
1758278129182951700,129.26295166015626,0.3922897577285766,0.4835467040538788,1.007115602493286
1758278129193036800,129.2730368652344,0.4747353494167328,0.6605100035667419,1.1201220750808716
1758278129203122000,129.28312182617188,0.5767882466316223,0.906485676765442,1.219617486000061
1758278129213206800,129.29320678710937,0.7010148167610168,1.189114689826965,1.29612135887146
1758278129223292000,129.3032919921875,0.8622047901153564,1.4973872900009155,1.3477782011032104
1758278129233376800,129.31337670898438,1.0596656799316406,1.841402530670166,1.3918452262878418
1758278129243460900,129.3234609375,1.2832190990447998,2.225252151489258,1.4098726511001587
1758278129253545700,129.33354565429687,1.5109806060791016,2.632594585418701,1.4044201374053955
1758278129263630800,129.343630859375,1.7147431373596191,3.0433156490325928,1.3903104066848757
1758278129273715700,129.3537158203125,1.880553960800171,3.427889347076416,1.3708512783050537
1758278129283800800,129.36380078125,2.00020170211792,3.757647752761841,1.3430014848709106
1758278129293885700,129.3738857421875,2.0853779315948486,4.023275852203369,1.3176699876785278
1758278129303970800,129.383970703125,2.143187999725342,4.223646640777588,1.283861517906189
1758278129314056000,129.39405590820311,2.169885873794556,4.3979105949401855,1.235087275505066
1758278129324140800,129.40414086914063,2.1637532711029053,4.562560558319092,1.1700047254562378
1758278129334226000,129.41422583007812,2.1460494995117188,4.733388423919678,1.0744446516036987
1758278129344309800,129.42430981445312,2.126603364944458,4.860754013061523,0.9655503630638124
1758278129354395000,129.4343947753906,2.107124090194702,4.942087173461914,0.8424859642982483
1758278129364479700,129.44447973632813,2.0949594974517822,4.964077949523926,0.7194843888282776
1758278129374564900,129.45456494140626,2.07860803604126,4.919655799865723,0.5918678641319275
1758278129384649700,129.46464965820311,2.066115617752075,4.804076671600342,0.4567257463932037
1758278129394734800,129.47473486328124,2.053520679473877,4.634433746337891,0.31291264295578
1758278129404819700,129.48481982421876,2.038745164871216,4.41496467590332,0.1595443934202194
1758278129414904800,129.49490478515625,2.038682222366333,4.129471302032471,0.0126585373654961
1758278129424989700,129.50498974609374,2.054627656936645,3.8065648078918457,-0.1342976242303848
1758278129435074800,129.51507470703126,2.089149236679077,3.4834892749786377,-0.2758835256099701
1758278129445158700,129.52515869140626,2.1439125537872314,3.1433136463165283,-0.4082681834697723
1758278129455243800,129.5352438964844,2.2049789428710938,2.767395496368408,-0.5326188802719116
1758278129465328600,129.54532861328124,2.280581474304199,2.364041328430176,-0.6440159678459167
1758278129475413800,129.55541381835937,2.381654500961304,1.968436598777771,-0.7452736496925354
1758278129485499000,129.5654987792969,2.5144717693328857,1.629501223564148,-0.8293938636779785
