time,seconds_elapsed,z,y,x
1757974786313462000,2.49597509765625,1.3171068272925912,9.647439681252836,-1.167273847091198
1757974786323446000,2.505959228515625,1.2779783474750817,9.6523724614799,-1.1699874168988316
1757974786333430000,2.515943115234375,1.2380280298806727,9.657152096971869,-1.1734911141708493
1757974786343413000,2.52592626953125,1.1991058862902224,9.66183002565503,-1.1753958518136292
1757974786353397000,2.53591015625,1.1620384306557476,9.666447748583554,-1.174670460148528
1757974786363381000,2.545894287109375,1.1268646067481487,9.67098948366642,-1.1715480903442947
1757974786373365000,2.5558781738281247,1.093167577394843,9.675305008777976,-1.16783184630014
1757974786383349000,2.5658620605468747,1.0606514283891766,9.679275665974616,-1.1649087253950536
1757974786393333000,2.57584619140625,1.028927818000689,9.682994394236802,-1.162450956979394
1757974786403317000,2.585830078125,0.9977167602442204,9.68641150920391,-1.1611959884822367
1757974786413301000,2.595814208984375,0.9697280255351216,9.690378659269212,-1.151768234923482
1757974786423285000,2.605798095703125,0.942909138322994,9.694485510066151,-1.1394025282166895
1757974786433269000,2.6157822265624997,0.9150809279378505,9.698605804866553,-1.1269678479269147
1757974786443252000,2.62576513671875,0.8867036323025822,9.702811439862849,-1.1133773486655203
1757974786453236000,2.6357492675781247,0.8593071643982082,9.70694693223238,-1.0987155669108033
1757974786463220000,2.6457331542968747,0.8334034923348576,9.710812375488876,-1.084425321882218
1757974786473204000,2.655717041015625,0.8088425401173531,9.714321844914554,-1.0714965013999491
1757974786483188000,2.665701171875,0.7848417790658772,9.71770622665584,-1.0585823670301586
1757974786493172000,2.67568505859375,0.7612307479843496,9.721218618690967,-1.0434621739834546
1757974786503156000,2.6856691894531246,0.7377307760618627,9.724806414049864,-1.0267791885994375
1757974786513140000,2.6956530761718747,0.7130180673487484,9.72848539482355,-1.0092415591474622
1757974786523124000,2.7056372070312498,0.6865208863716572,9.732261406230926,-0.9910332638923078
1757974786533108000,2.71562109375,0.6580106120064855,9.736013452240824,-0.9733707659516484
1757974786543091000,2.7256042480468747,0.6264496448338032,9.739504801487922,-0.9591526363112032
1757974786553075200,2.73558837890625,0.5918883268013596,9.742546068879962,-0.9501851937405764
1757974786563059200,2.745572265625,0.5559504231860861,9.745087570056318,-0.945831382445246
1757974786573043000,2.75555615234375,0.5200655649323016,9.74728537236154,-0.9435907639116048
1757974786583027000,2.7655400390625,0.4847716948416083,9.749439920046925,-0.9401217726267874
1757974786593011000,2.7755241699218747,0.4497621215850114,9.7517423517704,-0.9336171399731188
1757974786602995000,2.7855080566406247,0.4154503213342279,9.75414882839024,-0.9243206846438348
1757974786612979000,2.7954921875,0.3825272354954853,9.756492176645994,-0.9137466105941684
1757974786622963000,2.80547607421875,0.3537165899442508,9.758500009337068,-0.9038470017399638
1757974786632946000,2.8154589843749998,0.3317884339157492,9.760143684890863,-0.8943681025158613
1757974786642930000,2.825443115234375,0.3180695225017145,9.761435478267073,-0.8852037491336464
1757974786652914000,2.835427001953125,0.3106707905525341,9.76250456880331,-0.8759908804345875
1757974786662898200,2.8454113769531246,0.3074722867721691,9.76350936193168,-0.8658597278468311
1757974786672882200,2.8553952636718747,0.3065902797732502,9.76463222848177,-0.8534341807115823
1757974786682866200,2.86537939453125,0.3081868282496929,9.7658264067024,-0.8390805150579661
1757974786692850000,2.875363037109375,0.3133098338192329,9.766796128517388,-0.8257820575457065
1757974786702834000,2.88534716796875,0.3204613130090758,9.76750164643824,-0.8146062182106077
1757974786712818000,2.8953310546875,0.3281799976276233,9.76811714798808,-0.8040887697190046
1757974786722802000,2.9053151855468746,0.3355273281831294,9.768820912343264,-0.7924234663665294
1757974786732785000,2.915298095703125,0.3431258204881102,9.76957611462474,-0.7797687135852873
1757974786742769000,2.925281982421875,0.352117228456214,9.770436530846355,-0.7648294300634414
1757974786752753000,2.9352661132812496,0.3618232144344598,9.77143606327772,-0.7473375394493341
1757974786762737200,2.9452502441406248,0.3721396239286288,9.772343825772404,-0.7301973118171096
1757974786772721200,2.955234375,0.3821830617003142,9.773089091181754,-0.7148688097819685
1757974786782705200,2.96521826171875,0.3901618220271542,9.773803961452842,-0.7006316831801086
1757974786792689200,2.975202392578125,0.3944285760935396,9.774783035618066,-0.68440360195674
1757974786802673000,2.98518603515625,0.3948295581098646,9.776106977698204,-0.6649812547367066
1757974786812657000,2.9951701660156247,0.3935944633569568,9.777805013787743,-0.6403283133868127
1757974786822641000,3.0051540527343747,0.3929753085453063,9.779835058310628,-0.6089105540771037
1757974786832623900,3.0151369628906246,0.3934928296133875,9.781986098864676,-0.5729653804708272
1757974786842607900,3.0251210937499997,0.3957412295946851,9.783962367373704,-0.5365208790402859
1757974786852591900,3.0351049804687498,0.4005828974721953,9.78553473125696,-0.5032182923646643
1757974786862576000,3.04508935546875,0.4081557804118841,9.78661960388422,-0.475257139782235
1757974786872560000,3.0550732421875,0.4178817862648517,9.787219907864928,-0.4539678661791607
1757974786882544000,3.0650573730468746,0.4292988504773005,9.787395848953723,-0.4392791233522817
1757974786892528000,3.0750412597656247,0.4416761380240321,9.787337396764755,-0.4281647684134542
1757974786902512000,3.085025390625,0.4543105421369895,9.787186005595323,-0.4182972717305645
1757974786912496000,3.09500927734375,0.4665220081301405,9.78696973249614,-0.409828645527549
1757974786922479900,3.1049931640625,0.4787190072065219,9.786633632409572,-0.4037690532276407
1757974786932462800,3.11497607421875,0.4917905971603468,9.786136788803338,-0.4000542339555919
1757974786942446800,3.1249599609375,0.5058876211717724,9.785483877852558,-0.398452095988579
1757974786952430800,3.134944091796875,0.5198661333700642,9.784814600288868,-0.3968642057426274
1757974786962415000,3.1449282226562496,0.5334220727747306,9.78421137369871,-0.3937450873414054
1757974786972399000,3.1549123535156247,0.5474388711567968,9.78359645667076,-0.3898081862838938
1757974786982383000,3.1648962402343748,0.5623630301747471,9.782900291100145,-0.3860219822760671
1757974786992367000,3.17488037109375,0.5779889442538843,9.782143919774889,-0.3820847158923744
1757974787002351000,3.1848642578125,0.5941575138423592,9.781309807038308,-0.3785957047328352
1757974787012335000,3.194848388671875,0.6097200072964652,9.780385677930711,-0.3776937874570488
1757974787022317800,3.2048310546875,0.6238646698419005,9.779289699387547,-0.3829699012290686
1757974787032301800,3.21481494140625,0.6366003058396279,9.77791139677167,-0.3969570716578513
1757974787042285800,3.224799072265625,0.6483931810945273,9.776424373084309,-0.4141035463677719
1757974787052269800,3.2347829589843746,0.6592714257225394,9.775067697778344,-0.4287026016172021
1757974787062254000,3.244767333984375,0.6686026601042598,9.77395476810038,-0.4395084020635112
1757974787072238000,3.254751220703125,0.67539553511478,9.7732112562567,-0.4456153041038662
1757974787082221800,3.264735107421875,0.6791996766380966,9.77287281808257,-0.4472524037864059
1757974787092205800,3.274718994140625,0.6804733498357236,9.772942376187444,-0.4437820607947185
1757974787102189800,3.2847031249999996,0.6795517780113964,9.77326444774866,-0.4380587147118523
1757974787112173800,3.2946870117187497,0.6763562699057162,9.77346961493194,-0.4384341604281216
1757974787122156800,3.304669921875,0.6739256817579269,9.77386124459803,-0.4333834529098123
1757974787132140800,3.3146540527343746,0.6701593880269676,9.774524676942823,-0.4241733241571113
1757974787142124800,3.3246379394531247,0.6630337739307433,9.775454066747429,-0.4138438725182786
1757974787152108800,3.3346220703125,0.6524290855471044,9.77678911474347,-0.3988767146088183
1757974787162092800,3.34460595703125,0.6411046315215527,9.778401226115228,-0.3771532508395612
1757974787172077000,3.35459033203125,0.6316860841825604,9.779970667389035,-0.3514598970586434
1757974787182061000,3.3645742187499996,0.624447803492099,9.781250770327448,-0.3280164776289835
1757974787192045000,3.3745583496093747,0.6189323280062526,9.782112940114736,-0.312390453951992
1757974787202028800,3.3845419921874997,0.6150544636595994,9.782563021969796,-0.3058677376523613
1757974787212012800,3.39452587890625,0.6131628046941012,9.782615044417977,-0.3080160382600501
1757974787221996800,3.404510009765625,0.6131365742743015,9.78244144141674,-0.3135006436835974
1757974787231979800,3.4144929199218748,0.613883593249321,9.78219944935441,-0.3195259683877229
1757974787241963800,3.42447705078125,0.6134478321805596,9.781979669123888,-0.3270558524359017
1757974787251947800,3.4344609375,0.6136554835818707,9.781652921387552,-0.3362903119122609
1757974787261931800,3.444445068359375,0.6170123197291046,9.781159000390767,-0.3444346015317365
1757974787271916000,3.4544291992187497,0.6222644681036472,9.780741067239642,-0.3468434893043711
1757974787281900000,3.464413330078125,0.6293945391792803,9.780328394785522,-0.3455685739977285
1757974787291884000,3.474397216796875,0.6361519775502383,9.77984967135787,-0.3467494543453678
1757974787301868000,3.484381103515625,0.6381503848258405,9.779446351253986,-0.3543868904212489
1757974787311851800,3.494364990234375,0.6355895213618874,9.779057644197344,-0.3693548885809257
1757974787321835800,3.504348876953125,0.627152459340915,9.778896316155793,-0.387608192021586
1757974787331818800,3.51433203125,0.614688333760947,9.779147660568356,-0.4010100003104657
1757974787341802800,3.52431591796875,0.6021942879667506,9.77975848594308,-0.4050271635299548
1757974787351786800,3.5343000488281247,0.5934086317038163,9.780641113996506,-0.3966314929652959
1757974787361770800,3.5442839355468747,0.5893913588864729,9.781641815471648,-0.3774750666724518
1757974787371755000,3.554268310546875,0.5892866198703647,9.782556007707118,-0.3531522705923766
1757974787381739000,3.564252197265625,0.5932825211061165,9.783163325950502,-0.3287884118495509
1757974787391723000,3.574236083984375,0.6013903511727229,9.783229376924035,-0.3116755471482872
1757974787401707000,3.5842202148437496,0.6128798595668747,9.782644270512462,-0.3076309113999828
1757974787411691000,3.5942041015624997,0.6287284764859825,9.7812647988528,-0.3193102798104286
1757974787421675000,3.604188232421875,0.6524949173249304,9.778847800838946,-0.3446545644253492
1757974787431657700,3.6141708984374996,0.6841448779553174,9.775344761154056,-0.3807682264663279
1757974787441641700,3.6241550292968747,0.7198495938692242,9.77093512801826,-0.4254568246290087
1757974787451625700,3.6341389160156248,0.7548935808520764,9.766257199335096,-0.4698398274412378
1757974787461609700,3.644122802734375,0.7876176004547625,9.76177508548498,-0.5077443549543619
1757974787471594000,3.654107177734375,0.8179754754479974,9.757582894492147,-0.539345142680779
1757974787481578000,3.664091064453125,0.8445218293290585,9.753527481621504,-0.5708437486743554
1757974787491562000,3.6740751953124997,0.8632342016488314,9.749275669395924,-0.613844795608893
1757974787501546000,3.6840590820312498,0.8731337374377995,9.7446748976022,-0.6703214467208832
1757974787511530000,3.694043212890625,0.8774373529158532,9.739704707974196,-0.7339147249050438
1757974787521514000,3.704027099609375,0.8802263260472566,9.73420961768925,-0.8004775204192847
1757974787531496700,3.7140097656249997,0.8841817856747657,9.72840940697789,-0.8640943986747414
1757974787541480700,3.723993896484375,0.8898859156005084,9.723256261998417,-0.9147541071362792
1757974787551464700,3.733977783203125,0.8956242400567979,9.719863112428785,-0.9447308007922024
1757974787561448700,3.7439619140625,0.8994512509990483,9.718354461431504,-0.956534562767297
1757974787571432700,3.7539458007812496,0.9009444852314888,9.718166829904913,-0.9570262918069958
1757974787581417000,3.7639301757812498,0.8999373540155589,9.718526310867071,-0.9543336186569183
1757974787591401000,3.7739140625,0.8955765284575521,9.71914122789502,-0.9521689879689365
1757974787601385000,3.783898193359375,0.8875733278091996,9.719975925153491,-0.951150239380449
1757974787611369000,3.793882080078125,0.8781894133921712,9.720792502233383,-0.9515035828627646
1757974787621353000,3.8038662109374997,0.8690814663723111,9.721574007999896,-0.951877676872164
1757974787631336000,3.81384912109375,0.8603850227627903,9.72261270339787,-0.9491706829357892
1757974787641319700,3.823832763671875,0.8530592099193484,9.723978731054068,-0.9417533924166112
1757974787651303700,3.8338168945312496,0.8470465985663235,9.725283968433738,-0.9336747884444891
1757974787661287700,3.8438007812499997,0.8423999418042599,9.726219787979126,-0.9281081672932951
1757974787671271700,3.853784912109375,0.8390459552012384,9.726992525917291,-0.9230342980951072
1757974787681256000,3.86376904296875,0.8358039776053279,9.728068046194316,-0.9146000856183468
1757974787691240000,3.873753173828125,0.8302585453726351,9.729630473205448,-0.9029710956882684
1757974787701224000,3.8837370605468746,0.8209053183548152,9.731384038874506,-0.8925542580269277
1757974787711208000,3.8937211914062497,0.8079728446107357,9.733013685902952,-0.8865681693546473
1757974787721192000,3.903705078125,0.7933372932758181,9.734219554561376,-0.8865467612404375
1757974787731175000,3.9136879882812496,0.7786096066780388,9.734810506191849,-0.8930872689250856
1757974787741159000,3.9236721191406247,0.7634004201736301,9.735027948334812,-0.9037743748951704
1757974787751142700,3.9336557617187498,0.7467319017063826,9.735223763167856,-0.9155264066830276
1757974787761126700,3.943639892578125,0.727518447996676,9.735637604665756,-0.9265305427130311
1757974787771110700,3.953623779296875,0.7064654308348893,9.73633669284582,-0.9354271120045332
1757974787781095000,3.9636081542968746,0.684253525961563,9.73736720493734,-0.9412021152094006
1757974787791079000,3.973592041015625,0.6612228520512581,9.738760120600462,-0.9432481610190124
1757974787801063000,3.9835761718750002,0.6375063878338784,9.74025357402861,-0.9441543160784988
1757974787811047000,3.9935600585937494,0.6127244863420724,9.74141326545775,-0.9485772470872847
1757974787821031000,4.003544189453125,0.5856253939490765,9.741592713677882,-0.9637360185787082
1757974787831014000,4.013527099609376,0.5583707822008058,9.741516141310331,-0.9805407306462526
1757974787840998000,4.023510986328125,0.5345180147852748,9.741630707600711,-0.9926144686691464
1757974787850982000,4.0334951171875,0.5124527518410236,9.74193056733012,-1.0012869468811898
1757974787860966000,4.04347900390625,0.4900219800526276,9.742578802105784,-1.0061821715768426
1757974787870949600,4.053462890625,0.4670669286618009,9.743700499612093,-1.0062490993332118
1757974787880934000,4.063447021484375,0.4442135110145434,9.745246560010314,-1.0016215125977992
1757974787890918000,4.07343115234375,0.4221059798311442,9.746943427056074,-0.994640786864981
1757974787900902000,4.0834150390625,0.4014086442392319,9.748409992477296,-0.988824940193072
1757974787910886000,4.0933991699218755,0.3825341036276891,9.74959657191336,-0.9845984085392206
1757974787920870000,4.1033830566406255,0.3658385875556618,9.750824652403592,-0.9787600577745588
1757974787930854000,4.113367187500001,0.3503331945836543,9.752444362559912,-0.9682461894795298
1757974787940836900,4.1233500976562505,0.3355386532947421,9.754420631068944,-0.953460489084199
1757974787950820900,4.1333339843750005,0.3222710658447816,9.75655705857575,-0.9360207670487464
1757974787960804900,4.143318115234376,0.3110076578240841,9.758675950425864,-0.9175564512059092
1757974787970788900,4.153302001953126,0.3021444428129121,9.760458157667516,-0.9014248891595752
1757974787980772900,4.1632861328125,0.2954508634584024,9.761602067005631,-0.891199263221398
1757974787990756900,4.17327001953125,0.2901421625910326,9.762557760295271,-0.8824242744829505
1757974788000740900,4.183254150390625,0.2854859525493346,9.76399393057823,-0.8679301774453371
1757974788010724900,4.193238037109375,0.2809981578771025,9.766242586287856,-0.8437713032227009
1757974788020708900,4.20322216796875,0.2729336006966419,9.769542796877026,-0.8074376417554915
1757974788030692900,4.2132060546875,0.2587866731288842,9.773745509263872,-0.7598145245108753
1757974788040675800,4.22318896484375,0.2408967961731366,9.778232299289106,-0.7060632067095488
1757974788050659800,4.233173095703125,0.2247234225453808,9.782223999273777,-0.654201648177579
1757974788060643000,4.24315625,0.2140331747701391,9.78518518716693,-0.6121497551940381
1757974788070627300,4.253140625,0.2095923610447906,9.786901927956938,-0.58567372660283
1757974788080611300,4.26312451171875,0.2105422456481493,9.787505154547096,-0.5751732292460278
1757974788090595300,4.2731083984375005,0.2151428713114,9.787356685987117,-0.5759614935468882
1757974788100579300,4.283092529296876,0.2230344830777496,9.78684406028986,-0.5816571844378486
1757974788110563300,4.293076416015626,0.234349493421521,9.786528418469429,-0.5825244687916711
1757974788120547300,4.303060546875,0.2483426369333639,9.78665233711004,-0.5745762132009491
1757974788130531300,4.31304443359375,0.2633760650120675,9.786942259967326,-0.5628250947285444
1757974788140514000,4.323027343750001,0.2778929218707606,9.787174315157532,-0.55172359927129
1757974788150498000,4.333011230468751,0.2907466312902048,9.787257317265867,-0.5435485491873696
1757974788160482000,4.3429951171875,0.3017251031559891,9.787245042306184,-0.5377713905580341
1757974788170466300,4.3529794921875,0.3125257707694545,9.78731109327972,-0.5303494969289749
1757974788180450300,4.36296337890625,0.3240740236135199,9.787547824645042,-0.5188944022610783
1757974788190434300,4.372947509765625,0.3372585724225267,9.78785177602768,-0.5045816166071221
1757974788200418300,4.382931396484375,0.3539659615954384,9.787973356580734,-0.4905742436405271
1757974788210402300,4.39291552734375,0.3760596834491938,9.787603354224562,-0.4814243571750819
1757974788220386300,4.4028994140625,0.4046983699670061,9.786596223008631,-0.4786980740163475
1757974788230370300,4.4128835449218755,0.4391927237104624,9.784973005720971,-0.481458003716357
1757974788240353300,4.422866455078125,0.47774932192415,9.782774034371972,-0.4893878468675539
1757974788250337000,4.43285009765625,0.5185334599941969,9.78012731925547,-0.500627874012664
1757974788260321000,4.4428342285156255,0.5601962805949151,9.77705039602816,-0.5156114350676536
1757974788270305300,4.452818359375001,0.6026562794553115,9.773536250427364,-0.5340207693202421
1757974788280289300,4.462802490234376,0.6453083668217062,9.769663792908192,-0.5546363814454526
1757974788290273300,4.472786376953125,0.6851856191799044,9.765763278338312,-0.5751530632408336
1757974788300257300,4.4827705078125,0.7195255495466292,9.762221660208702,-0.5930489680785686
1757974788310241300,4.49275439453125,0.7467276639226823,9.75929671267271,-0.6073810794875025
1757974788320225300,4.502738525390625,0.7669630080260336,9.757036366525291,-0.6183904762145132
1757974788330209300,4.512722412109375,0.780863450019434,9.75536054226756,-0.6273404561936855
1757974788340192300,4.522705322265625,0.790800322144106,9.754065826281904,-0.6349850526627153
1757974788350176300,4.532689453125,0.8003587163452058,9.752987967917322,-0.6395560869053005
1757974788360160000,4.542673095703125,0.8115151203274726,9.752126382651925,-0.6386406525608151
1757974788370144300,4.552657470703125,0.8235832323271781,9.75155881189704,-0.6318083223227411
1757974788380128300,4.562641357421875,0.8358744855582714,9.75118471788764,-0.6213509334553032
1757974788390112300,4.5726254882812505,0.847528171538189,9.750853878498075,-0.6106813266092911
1757974788400096300,4.5826093750000005,0.8564784437783062,9.750575061556695,-0.6025828123603015
1757974788410080300,4.592593505859376,0.8620634773690253,9.75045640361309,-0.5965314398994669
1757974788420064300,4.602577392578126,0.865855563128367,9.750535314068198,-0.5897101790446788
1757974788430048300,4.6125615234375,0.8686910057500005,9.75090473190248,-0.5793312987735495
1757974788440031200,4.622544433593751,0.870391818318516,9.751675131753087,-0.5635979057319462
1757974788450015200,4.6325283203125,0.8707127939011902,9.752802089956402,-0.5432173810042441
1757974788459999200,4.642512451171875,0.8687513576351106,9.754266317290067,-0.5195566290294751
1757974788469983200,4.652496337890625,0.8639115894537419,9.75593921893835,-0.4956526063507422
1757974788479967200,4.66248046875,0.8556691732220352,9.757681094169616,-0.4752458877358585
1757974788489951200,4.67246435546875,0.843426508373022,9.759417124181985,-0.4612896604346111
1757974788499935200,4.682448486328125,0.8288790006477386,9.761112822183966,-0.4516579818015918
1757974788509919200,4.692432373046875,0.8132789151296019,9.762748898953198,-0.4446452534953132
1757974788519903200,4.70241650390625,0.7966586927834898,9.76435165797472,-0.4395078906068578
1757974788529887200,4.7124003906250005,0.7796892916735261,9.765884858891368,-0.4358631774289533
1757974788539870200,4.72238330078125,0.7630963226605206,9.767326874393223,-0.4328764167031273
1757974788549854200,4.7323674316406255,0.7479275412317365,9.7686771199584,-0.4288746337158605
1757974788559838200,4.7423513183593755,0.7340753222942352,9.769949039590358,-0.4238083267696201
1757974788569822200,4.752335449218751,0.7192169950541109,9.77122972705066,-0.4197198518795892
1757974788579806200,4.762319335937501,0.7006951038051397,9.772602768969536,-0.4190934636095538
1757974788589790500,4.7723037109375,0.6796059193514287,9.773942493140696,-0.4225715880488976
1757974788599774200,4.782287353515625,0.6600211481112986,9.774995801585913,-0.4291774160547181
1757974788609758200,4.792271484375,0.6449950630888343,9.775710671857,-0.4357047719968482
1757974788619742200,4.80225537109375,0.634460225071013,9.776163676321506,-0.4409631309164687
1757974788629726200,4.812239501953125,0.6261762347199022,9.776531925112009,-0.4446274986429139
1757974788639710200,4.822223388671875,0.6175814979191869,9.776965640354156,-0.4471257451994344
1757974788649693200,4.832206298828125,0.6091289460681378,9.777381819939611,-0.4495909297365695
1757974788659677200,4.8421904296875,0.6033886488504707,9.777545486068725,-0.4538005102556198
1757974788669661200,4.85217431640625,0.6018243952084332,9.777378897330165,-0.4594232089756056
1757974788679645200,4.862158447265625,0.6049824573805556,9.776870947808026,-0.466037293353118
1757974788689629400,4.8721425781250005,0.6140178140882402,9.775834005975724,-0.4758747602239251
1757974788699613400,4.882126708984376,0.6278638955458998,9.774132462754846,-0.4924427774587646
1757974788709597400,4.892110595703126,0.645577539151907,9.77164356854856,-0.5182848920606077
1757974788719581200,4.902094482421875,0.6668454411733895,9.768289581945538,-0.553379878578335
1757974788729565200,4.912078369140625,0.6905822175264358,9.764077517208456,-0.5968839796641842
1757974788739549200,4.922062255859375,0.7127017679411918,9.759285606756803,-0.6471285679861902
1757974788749532200,4.93204541015625,0.7283101098310202,9.754462716645,-0.70028418491669
1757974788759516200,4.942029296875,0.7347100400011987,9.75011971900463,-0.7521518078632652
1757974788769500200,4.952013427734375,0.7334254800833762,9.746403328830004,-0.8000438051771372
1757974788779484200,4.961997314453125,0.7257140289232135,9.743454415896537,-0.8419144233096391
1757974788789468400,4.971981689453125,0.7117910097718239,9.741527247226236,-0.8754291548985987
1757974788799452400,4.981965576171875,0.6944826590310782,9.740517777922747,-0.9002107641294598
1757974788809436400,4.99194970703125,0.676923913725838,9.740119718515873,-0.917712737746164
1757974788819420400,5.0019335937500005,0.6608209932520985,9.740124394690987,-0.9293390973277388
1757974788829404200,5.0119172363281255,0.6466339894022792,9.740224932456016,-0.9382334746621548
1757974788839388200,5.021901367187501,0.6354645798079669,9.740126732778547,-0.9468518845994024
1757974788849371100,5.03188427734375,0.6292215206999331,9.739764329206944,-0.9546990179032088
1757974788859355100,5.0418684082031255,0.6290321356076747,9.739181560882926,-0.9607450200691818
1757974788869339100,5.051852294921876,0.6344128787979483,9.738625096043943,-0.9628475453063844
1757974788879323100,5.061836425781251,0.6432597637288272,9.738096688255666,-0.962321329475194
1757974788889307100,5.0718203125,0.6546783988438546,9.737371881112455,-0.9619499388795344
1757974788899291400,5.0818046875,0.6675688600771129,9.736513802978395,-0.9617905105341226
1757974788909275400,5.09178857421875,0.6797962542917579,9.73564929510355,-0.9619806993439792
1757974788919259400,5.1017724609375,0.688962068978697,9.734929748657343,-0.9627438657362012
1757974788929243400,5.111756591796875,0.6935353682436048,9.734514153593778,-0.9636682140395044
1757974788939227400,5.121740478515625,0.692264179264009,9.73441536939442,-0.9655665219414978
1757974788949210000,5.131723388671875,0.6855328982476144,9.73453227377236,-0.9691753600884228
1757974788959194000,5.141707275390625,0.6744781280089169,9.73480933714807,-0.9741332016915082
1757974788969178000,5.15169140625,0.660088148932904,9.73527695465982,-0.9793023479577152
1757974788979162000,5.16167529296875,0.6426739266648889,9.736123342356086,-0.98248485045135
1757974788989146000,5.1716591796875,0.6219461959347129,9.737406367903947,-0.983098890696466
1757974788999130400,5.181643554687501,0.5974459974611178,9.739012049534916,-0.9823913269490004
1757974789009114400,5.191627441406251,0.5687514891028403,9.740898886194824,-0.980721420975402
1757974789019098400,5.201611572265625,0.5365369899248704,9.743029468482732,-0.9776943282391876
1757974789029082400,5.211595458984375,0.5016154968105256,9.74536521795392,-0.9729393887970595
1757974789039066400,5.22157958984375,0.4653770758787169,9.747860541900993,-0.965929729230702
1757974789049049000,5.231562255859375,0.4296920510459691,9.750337161147591,-0.9574335574336348
1757974789059034600,5.2415478515625,0.3951437386255711,9.752830147007106,-0.9468582412749528
1757974789069018400,5.251531494140625,0.3602228665657341,9.7555510964036,-0.9326482218757272
1757974789079002400,5.261515625,0.3238198661893606,9.758507608121633,-0.9149105398070068
1757974789088986400,5.27149951171875,0.2868542634941637,9.76158862300217,-0.8941483953505754
1757974789098970400,5.2814836425781255,0.2508597343208268,9.764656778401136,-0.8711686479099094
1757974789108954400,5.291467529296876,0.2174025781380012,9.767543147492407,-0.847474103263393
1757974789118938400,5.301451660156251,0.1870843045027926,9.770109198588132,-0.824822564863786
1757974789128922400,5.311435546875,0.1606528639719821,9.772096573013068,-0.8066465644430368
1757974789138906400,5.32141943359375,0.1395171369628049,9.773367908123134,-0.7951094905801117
1757974789148889600,5.33140283203125,0.1244365544072818,9.774149413889646,-0.7879876758761704
1757974789158873600,5.34138671875,0.1143379432491026,9.774723998907207,-0.7823517158158123
1757974789168857600,5.351370849609375,0.1064761786317452,9.775208567553758,-0.7774089987166225
1757974789178841600,5.361354736328125,0.0981588705329224,9.77559552104473,-0.77360690301992
1757974789188825300,5.371338623046875,0.0873270953951403,9.775796596574782,-0.772352007587999
1757974789198809300,5.381322509765625,0.0734107434465549,9.775740482473372,-0.7745134234055876
1757974789208793300,5.391306640625,0.0565802941495552,9.775489138060808,-0.7791112725898623
1757974789218777300,5.40129052734375,0.0379955873470404,9.775108029788733,-0.7850023764550685
1757974789228761300,5.4112744140625,0.0195836729782982,9.774597742179036,-0.7919776953604072
1757974789238745300,5.4212585449218755,0.0026839030384435,9.774130124667286,-0.7979546508781612
1757974789248728600,5.43124169921875,-0.0137905153455212,9.773821497109532,-0.8016136117771268
1757974789258712600,5.4412258300781255,-0.0319069310661405,9.773511115986109,-0.8049073926255107
1757974789268696600,5.451209716796876,-0.0509598467521602,9.77309552092254,-0.8089536723416298
1757974789278680600,5.461193847656251,-0.0688532080063596,9.772701553168892,-0.812392779944837
1757974789288664600,5.471177734375,-0.0831562577175907,9.772345579338074,-0.8153294179186225
1757974789298648600,5.481161865234375,-0.0921549996087793,9.771928230708838,-0.8193372653204947
1757974789308632300,5.4911455078125,-0.0945824916171841,9.77143489423394,-0.8249293862391263
1757974789318616300,5.50112939453125,-0.0900575432723388,9.770965523156525,-0.8309647939458489
1757974789328600300,5.511113525390625,-0.0790123445795848,9.77076503214836,-0.8344403611019253
1757974789338584300,5.521097412109375,-0.062960519538843,9.771036834827065,-0.8326319234404712
1757974789348567600,5.531080810546875,-0.0433716155462898,9.771925892621278,-0.8234048070203512
1757974789358551600,5.541064697265625,-0.0215589505400625,9.773193720600007,-0.8090676541101187
1757974789368535600,5.551048828125,0.0006680740565239,9.774462133100627,-0.7938874014392495
1757974789378519600,5.56103271484375,0.0222794651006464,9.7756142257452,-0.7792564532142132
1757974789388503600,5.5710168457031255,0.0431575070047285,9.776657597318293,-0.7651536205165088
1757974789398487600,5.5810007324218756,0.063163517597923,9.777639594092964,-0.7511039062455296
1757974789408471600,5.590984619140626,0.082217497296445,9.778684134709836,-0.7354892076801508
1757974789418455300,5.600968505859376,0.1013976606579031,9.77981284647882,-0.717903209041804
1757974789428439300,5.610952392578125,0.1216630528396461,9.780924022591114,-0.6993669970065355
1757974789438423300,5.6209365234375,0.1435676361963152,9.781835876739024,-0.6822436474438757
1757974789448406500,5.630919677734375,0.1677415070586837,9.782427997413278,-0.6680838238619268
1757974789458390500,5.64090380859375,0.1948994352331385,9.782623227724432,-0.6577838175132871
1757974789468374500,5.6508876953125,0.2246678381669335,9.782302909728884,-0.6530470713149756
1757974789478358500,5.660871826171875,0.2558779095427133,9.781375858011842,-0.6554452184978872
1757974789488342500,5.670855712890625,0.28701033083871,9.779857854664323,-0.6651326459061354
1757974789498326500,5.680839599609375,0.3169003325918689,9.777951728782057,-0.6794177033029496
1757974789508310500,5.69082373046875,0.3449771109106019,9.775981890013814,-0.6939666723329574
1757974789518294500,5.7008076171875,0.3695589963182806,9.774088039091229,-0.707825247946009
1757974789528278500,5.7107917480468755,0.3900495938243344,9.77233388890028,-0.7209351971488446
1757974789538261500,5.720774658203125,0.4070865072125568,9.770868492522837,-0.7313065882332622
1757974789548245500,5.7307587890625005,0.4207305632920936,9.76986954461336,-0.7369116416987032
1757974789558229500,5.7407426757812505,0.4313303197722882,9.769230077666045,-0.73925338251926
1757974789568213500,5.750726806640626,0.438992963354662,9.768812144514918,-0.7402403477299958
1757974789578197500,5.760710693359376,0.4443757889041677,9.768560800102351,-0.7403619282830506
1757974789588181500,5.770694580078125,0.4495291530793532,9.768403563714028,-0.7393435450207442
1757974789598165500,5.7806787109375,0.4567006156112998,9.76824808089137,-0.7369844877392053
1757974789608149500,5.79066259765625,0.4676456418652087,9.768093182590604,-0.7321550948213785
1757974789618133500,5.800646728515625,0.4817427754744887,9.767916072458029,-0.7253375968262553
1757974789628117500,5.810630615234375,0.4956118359489366,9.767527365401389,-0.72122336644046
1757974789638101500,5.82061474609375,0.5048145485801622,9.766592130377887,-0.7274819884438067
1757974789648084500,5.83059765625,0.5119034839278087,9.765969030043482,-0.7308765262529253
1757974789658068500,5.84058154296875,0.5192192503012717,9.765941557514669,-0.7260719755154103
1757974789668052500,5.850565673828125,0.5242459558894857,9.766257783856988,-0.7181681435883045
1757974789678036500,5.860549560546875,0.5246934073960409,9.766975576737522,-0.7079918366845697
1757974789688020500,5.8705336914062505,0.5216212334090844,9.768234636887907,-0.6927443639963865
1757974789698004500,5.8805175781250005,0.5174032869204879,9.769829797124862,-0.6731413995124399
1757974789707988500,5.890501708984376,0.513226110833697,9.77128876376152,-0.6548973753567785
1757974789717972500,5.900485595703126,0.5104092267820611,9.772287127149104,-0.642082390512526
1757974789727956500,5.9104697265625,0.5093336334398016,9.772860543122889,-0.6341409299887716
1757974789737939700,5.920452880859376,0.509422846093215,9.773221777650711,-0.6285122033867985
1757974789747923500,5.9304365234375,0.509640507431887,9.773473706585168,-0.6243884745202958
1757974789757907500,5.940420654296875,0.50842024492193,9.773690564206245,-0.6220053057108074
1757974789767891500,5.950404541015625,0.504922283270955,9.77378817936182,-0.6233041864149272
1757974789777875500,5.960388671875,0.500173883167468,9.77373381882608,-0.62796859802939
1757974789787859500,5.97037255859375,0.4958907990207895,9.773518714770674,-0.6346870926294476
1757974789797843500,5.980356689453125,0.4932718486940488,9.773183199205992,-0.6418455130167305
1757974789807827500,5.990340576171875,0.4927105250168591,9.772824302765729,-0.6477019839599728
1757974789817811500,6.00032470703125,0.4932571625815704,9.772487618157268,-0.6523462295692414
1757974789827795500,6.0103085937500005,0.4927661276616156,9.772249717748164,-0.6562735590808093
1757974789837778700,6.0202919921875,0.4900108741367235,9.772136905023457,-0.6600283815696835
1757974789847762700,6.0302758789062505,0.4858886796401813,9.772006556642054,-0.6649884881950915
1757974789857746400,6.0402595214843755,0.48200383756347,9.771610250800848,-0.6735853438876569
1757974789867730400,6.050243652343751,0.4796430997814982,9.77080594868064,-0.6867900587018578
1757974789877714400,6.060227539062501,0.478806722022593,9.769750886669756,-0.7022043393243104
1757974789887698400,6.070211669921875,0.4781463584177196,9.768613407072424,-0.7182901625327766
1757974789897682400,6.080195556640625,0.478027992735058,9.767471251299977,-0.7337459442093968
1757974789907666400,6.0901796875,0.4799037234790623,9.766354814490676,-0.7472619169298559
1757974789917650400,6.10016357421875,0.4849277256535366,9.765143685135245,-0.7597375868171453
1757974789927634400,6.110147705078125,0.4942604578725993,9.76358476525545,-0.7736332065049558
1757974789937617700,6.120130859375,0.5096869769221172,9.761417942610382,-0.7907687579620629
1757974789947601700,6.13011474609375,0.5305504628611728,9.758480135592816,-0.8130038975805044
1757974789957585700,6.140098876953125,0.5559173246340826,9.754772513246536,-0.8400884499914943
1757974789967569700,6.150082763671875,0.5859060740539804,9.7501781711936,-0.8724312882568687
1757974789977553400,6.160066650390625,0.6201878079600632,9.744663207164406,-0.9095648679301144
1757974789987537400,6.1700505371093755,0.6542509672120214,9.738498839315772,-0.9507835249599068
1757974789997521400,6.180034667968751,0.6819474409762769,9.73232804172635,-0.9935408627990632
1757974790007505400,6.190018554687501,0.6986992538128047,9.726821845525505,-1.0349646870121358
1757974790017489400,6.200002685546875,0.7041601495672017,9.72227777235508,-1.0732548163093625
1757974790027473400,6.209986572265625,0.7014464336290955,9.71864029263556,-1.1074277195461093
1757974790037456600,6.219969726562501,0.6946677332744002,9.715773797288536,-1.1364677899390458
1757974790047440600,6.229953857421875,0.687087799539417,9.713517542794346,-1.1601276285983622
1757974790057424600,6.239937744140625,0.6802436327330768,9.711712539198992,-1.179110707618296
1757974790067408000,6.249921142578125,0.6739636756807565,9.710441788610815,-1.19310460004881
1757974790077391600,6.25990478515625,0.6668456603690981,9.709688924416898,-1.2031815382312985
1757974790087375600,6.269888916015625,0.6586698796328156,9.709050626513362,-1.212801234165579
1757974790097359600,6.279872802734375,0.6507589603777975,9.70810428557396,-1.224587022092566
1757974790107343600,6.289856689453125,0.6453898345600814,9.706658762940764,-1.2388159653879702
1757974790117327600,6.2998408203125,0.6449623298630118,9.704737439489364,-1.253975686727464
1757974790127310800,6.309823974609375,0.6496895775806159,9.702723761579394,-1.2670619627937674
1757974790137294800,6.31980810546875,0.6566669423125684,9.701083593156934,-1.275996087616682
1757974790147278800,6.3297919921875,0.6632720396660268,9.699590139728784,-1.2839084681764243
1757974790157262800,6.339776123046875,0.6697174164131283,9.698065122118592,-1.2920518810130657
1757974790167246800,6.3497600097656255,0.6758442287303507,9.69659388052225,-1.2998833052910863
1757974790177230800,6.359744140625001,0.6799347859796137,9.695615390878917,-1.3050444874465466
1757974790187214600,6.369727783203126,0.6783082807563245,9.695492056760193,-1.3067897236786783
1757974790197198600,6.379711669921876,0.6685862934913486,9.695966104012728,-1.3082957443274557
1757974790207182600,6.38969580078125,0.6520704813677817,9.696703186115622,-1.31115990158692
1757974790217166600,6.3996796875,0.631537980948761,9.697473585966229,-1.3155126899689435
1757974790227149800,6.4096630859375,0.6093955611150711,9.698117729088665,-1.321187666865438
1757974790237133800,6.41964697265625,0.5867530828047544,9.69873790681362,-1.3268756493739784
1757974790247117800,6.429631103515625,0.5642170240109786,9.699399585592746,-1.3318050686001777
1757974790257101800,6.439614990234375,0.5416907559588551,9.6999689099133,-1.3369935771539807
1757974790267085800,6.44959912109375,0.5185491324873641,9.700498486745357,-1.3423157950900495
1757974790277069800,6.4595830078125,0.4947932861076667,9.701196990403531,-1.346236037273705
1757974790287053800,6.46956689453125,0.4707237706689163,9.702219903710484,-1.347488667683303
1757974790297037800,6.479551025390625,0.4468912788564339,9.703507020911571,-1.346344466084242
