time,seconds_elapsed,z,y,x
1757862691406963200,0.018963134765625,0.23631840060800313,0.07438917829096317,0.6600764584951102
1757862691416948000,0.028947998046875,0.2128670901328325,0.0000017535656690597534,0.7162010812990367
1757862691426933200,0.038933349609375,0.14265256717801092,-0.08131050198674201,0.4720876429006457
1757862691436918300,0.048918212890625,-0.0034460488006472587,-0.010388123023509978,0.04479717310369014
1757862691446904000,0.058904052734375,-0.07924918554276228,-0.05513152011334896,-0.2090169905759394
1757862691456889000,0.06888916015625,-0.022471651788055897,-0.11149462784826755,-0.22395240164026617
1757862691466874000,0.0788740234375,0.008328267884254455,-0.0788537564843893,-0.014391221185028552
1757862691476859100,0.088859130859375,0.03828179986029863,-0.012678864309191703,0.32021570421755313
1757862691486844400,0.098844482421875,-0.04167202682048082,-0.007318214058876037,0.5494020609885454
1757862691496829200,0.1088291015625,-0.23647388343065975,-0.08112111689448356,0.33886253702044483
1757862691506814200,0.118814208984375,-0.05879881044924259,-0.2630921335041523,0.00672989277690649
1757862691516799200,0.12879931640625,0.17518179486095906,-0.20634382584393024,-0.08460720544457435
1757862691526784300,0.1387841796875,0.2470961074709892,0.0008668459624052047,-0.028842501994222402
1757862691536770000,0.14877001953125,0.22124504237771034,0.06949848363995552,0.04115750142708421
1757862691546755000,0.158755126953125,0.15237316620349883,0.0015337854385375975,0.06007920564860105
1757862691556740400,0.168740234375,-0.09572481178641319,-0.06390577819943427,-0.09333514017090201
1757862691566725400,0.178725341796875,-0.14748773224949835,-0.08136077086925506,-0.25185499243587256
1757862691576710100,0.188710205078125,0.034518355673551555,-0.013234744626283644,-0.29258403931781646
1757862691586695200,0.198695068359375,0.19140578443109987,0.0364466933876276,-0.345060661008209
1757862691596680200,0.20868017578125,0.15730974582284687,0.03513268817961216,-0.1891558135472238
1757862691606665200,0.218665283203125,-0.004879588735103607,0.09984101493358612,0.13135419744178653
1757862691616650000,0.22864990234375,-0.09034019613862038,0.055465282112359994,0.3252719646938145
1757862691626635000,0.238635009765625,-0.10653788222372532,-0.1259194590419531,0.3325387408263981
1757862691636621300,0.248621337890625,0.0002291325807571411,-0.17006138310730456,0.3744225107014179
1757862691646606000,0.258606201171875,0.10614917516708373,-0.09849778363108634,0.381182067964226
1757862691656591000,0.268591064453125,0.07899111912846565,-0.09140694858729839,0.29059768780618905
1757862691666576100,0.278576171875,0.08154489526450634,-0.06848901433646679,0.21508228196427226
1757862691676561200,0.28856103515625,0.07882832978218793,0.05417816491127014,0.23504341223612427
1757862691686546200,0.298546142578125,-0.001149170035123825,0.13274316758215426,0.22855141986832023
1757862691696531200,0.30853125,-0.05751403133571147,0.14769757560789584,0.14257570254951715
1757862691706516200,0.31851611328125,-0.1541658948391676,0.017052841609716415,-0.06019128772094846
1757862691716501200,0.328501220703125,-0.16174071400761603,-0.25345512110888957,-0.21663769471272826
1757862691726486300,0.338486328125,-0.09441957440674305,-0.37019875552654263,-0.20741890772953628
1757862691736472000,0.34847216796875,0.07167378185242414,-0.3232581406533718,-0.06518880374729633
1757862691746457000,0.35845703125,0.2113236600831151,-0.16122224309146405,0.2949497455358505
1757862691756442400,0.3684423828125,0.1431120013833046,-0.03154547734260559,0.47300256578847766
1757862691766427400,0.378427490234375,0.048696226368844506,0.024289807125926016,0.41643560604453084
1757862691776412200,0.388412109375,0.007693184851109981,0.050714872714877124,0.17655556743219494
1757862691786397200,0.398397216796875,0.04853051441311836,0.07393325121700764,-0.06745806385353208
1757862691796382200,0.40838232421875,-0.009482114094495772,0.032682372418045995,-0.11736088953316211
1757862691806367200,0.4183671875,-0.046432373090088366,-0.035548867765069006,-0.06388824254274368
1757862691816352300,0.428352294921875,-0.07080021388828754,-0.0874888983607292,0.11762757764533162
1757862691826337000,0.4383369140625,-0.04105769431442022,-0.06865618759691715,0.2626695241779089
1757862691836323300,0.4483232421875,0.051777241249382495,-0.11107961730659008,0.2484199034206569
1757862691846308400,0.458308349609375,0.0799865599066019,-0.16236732147336005,0.3170663002759218
1757862691856293000,0.468293212890625,-0.10996610310673713,-0.2096609875679016,0.20958178485184906
1757862691866278100,0.478278076171875,-0.15740794550031423,-0.0253144739985466,-0.012183335877209902
1757862691876263200,0.48826318359375,0.04479015884101391,0.09610708910226821,-0.07528744230493903
1757862691886248200,0.498248291015625,0.1457908652037382,0.1042728599011898,-0.08472820147573948
1757862691896233000,0.50823291015625,0.22342793937474487,0.1037321771532297,-0.03777794199138879
1757862691906218200,0.51821826171875,0.125227677385509,-0.005785597664117813,-0.031926293353736396
1757862691916203300,0.528203369140625,0.11934124969542026,-0.14075287103652953,-0.0020632161401212216
1757862691926188300,0.538188232421875,0.08206570426821708,-0.17581775467693805,-0.07860986472591758
1757862691936174000,0.548174072265625,-0.11254033750891684,-0.06907412074804306,-0.17688392260372637
1757862691946159000,0.5581591796875,-0.26284078909158703,0.07499415844678878,-0.12573270429819822
1757862691956144000,0.56814404296875,-0.18062018652260303,0.05265782347619533,-0.03845218799114227
1757862691966129400,0.57812939453125,-0.09332973334342241,0.03183013950288296,0.13111863512024283
1757862691976114200,0.5881142578125,-0.06037351242005825,0.013986439776420593,0.2789773926392197
1757862691986099200,0.59809912109375,-0.16443302183151245,-0.058282677620649335,0.363774129306525
1757862691996084200,0.608084228515625,-0.2239128002822399,-0.07887070761919021,0.3513444174528122
1757862692006069200,0.6180693359375,-0.2392752045869827,-0.08382628419995307,0.28248934628292915
1757862692016054300,0.62805419921875,-0.15793138485252856,-0.08662965118288993,0.11079627032056451
1757862692026039000,0.6380390625,-0.037787586602568625,-0.007916179952025412,-0.05552855660691857
1757862692036025300,0.648025390625,-0.09786971486061811,0.07662672808468342,-0.19030819845274088
1757862692046010400,0.65801025390625,-0.22395897751152513,0.08845511304438114,-0.19941066557988524
1757862692055995100,0.6679951171875,-0.21889935603439806,0.04328559949696064,-0.11928235911503433
1757862692065980200,0.677980224609375,-0.0246346750408411,0.053204351443052286,0.11146379431858658
1757862692075965200,0.687965087890625,0.0504676199555397,0.09228314689993858,0.3519615264378488
1757862692085950200,0.6979501953125,-0.023066110549867153,0.029334815555810925,0.4145901243083179
1757862692095935200,0.707935302734375,-0.04356880035251379,-0.1060766944527626,0.381318261564523
1757862692105920000,0.717919921875,-0.036221944721043106,-0.08550444654524327,0.3642619128234684
1757862692115905500,0.727905517578125,0.003391396003961563,-0.001709142005443573,0.32232334402129054
1757862692125890600,0.737890625,0.08920067071467637,-0.010287585258483885,0.1599387791521847
1757862692135876400,0.74787646484375,-0.07887246118485927,-0.09942483534812926,-0.12657266225367783
1757862692145861400,0.757861328125,-0.1530345527216792,-0.20638065072298048,-0.4885943949349224
1757862692155846400,0.767846435546875,-0.1388400231525302,-0.21288637935519217,-0.5233130954861641
1757862692165831400,0.77783154296875,-0.05524141022861004,-0.18938450773656368,-0.2112494258031249
1757862692175816400,0.78781640625,0.05599339763969183,-0.07595803504288196,0.12476152117848395
1757862692185801500,0.797801513671875,0.06061608900427818,0.05885434002876282,0.3950532107979059
1757862692195786500,0.807786376953125,-0.009060089290142058,0.14800561864376066,0.5348097642734646
1757862692205771500,0.817771484375,-0.04612754492461681,0.11766250282824038,0.5306916614301502
1757862692215756500,0.827756591796875,-0.21961305726170538,0.04744447274208068,0.3457189787864685
1757862692225741300,0.8377412109375,-0.2881424036085605,0.03002688947319984,0.013107757245749235
1757862692235727600,0.8477275390625,-0.15365326914191246,-0.02736965296268463,-0.26526421684622764
1757862692245712600,0.857712646484375,0.020150223103165624,-0.0514174680262804,-0.29308570522964
1757862692255697400,0.867697509765625,0.11116115811020136,0.021428572475910186,-0.15006050534695387
1757862692265682400,0.877682373046875,0.061708560416102405,0.061517421758174894,0.09074468528628349
1757862692275667500,0.88766748046875,0.06713438485711813,0.04645779979228973,0.31249022453203795
1757862692285652500,0.897652587890625,0.12392565487623214,0.07608838342428206,0.4503400676034391
1757862692295637200,0.90763720703125,-0.0461997333779931,0.004234276568889618,0.341482656390965
1757862692305622300,0.917622314453125,-0.05861965449005365,-0.24338614703714845,0.08622428525239229
1757862692315607600,0.927607666015625,0.02258826390504837,-0.21181085907816885,-0.028714053308963775
1757862692325592600,0.937592529296875,0.12040624857842921,-0.05510287854075432,0.020655396146327255
1757862692335577600,0.94757763671875,0.11612754834592341,-0.04500526289641857,0.09044438716545701
1757862692345563400,0.9575634765625,0.007808627924323082,-0.12250935833752155,0.14670403452590108
1757862692355548400,0.96754833984375,-0.047266193565726276,-0.07071428917050361,0.23489494367614386
1757862692365533400,0.977533447265625,-0.015291677156090736,0.03625321664214134,0.2912121664427221
1757862692375518500,0.9875185546875,0.06669014822095633,0.01540916605591774,0.30901553415879607
1757862692385503500,0.99750341796875,0.002181435692310333,-0.037786417558789254,0.19864304220825432
1757862692395488500,1.007488525390625,-0.170856917399168,-0.02259878529906273,-0.1114477199666202
1757862692405473500,1.0174736328125,-0.12225830618590115,-0.04128419654667377,-0.35262758913114667
1757862692415458600,1.02745849609375,0.014070610928535461,-0.10695815346240997,-0.29417671533674
1757862692425443300,1.037443359375,0.09927402870059013,-0.10660977841615676,-0.013688041351735592
1757862692435428400,1.047428466796875,0.11935001752376556,-0.07195815175175667,0.2669942555092275
1757862692445414700,1.05741455078125,0.1127998652279377,0.0013332944303750991,0.49060631927922366
1757862692455399400,1.0673994140625,0.06606178718954324,0.03023965544104576,0.5075632992990314
1757862692465384400,1.077384521484375,-0.1539209801673889,-0.0033937340915203094,0.19662118099182843
1757862692475369500,1.087369384765625,-0.23432225835472345,-0.08943944790661335,-0.17658084800392387
1757862692485354500,1.0973544921875,-0.09428279628455638,-0.011740706676244736,-0.29314225772246716
1757862692495339500,1.107339599609375,-0.0756517455726862,0.016361352214217185,-0.165244192083925
1757862692505324300,1.11732421875,-0.03378039678782224,-0.08289046465456486,-0.0246934194907546
1757862692515309300,1.127309326171875,0.017326105593144892,-0.13514964420199393,0.17445654932633042
1757862692525294600,1.137294677734375,0.06673837127685546,-0.05649170255064964,0.3701775666080415
1757862692535279600,1.147279541015625,0.17263269490003585,0.0030611411362886426,0.542409864013642
1757862692545265400,1.157265380859375,0.1503746858626604,0.033897593426704405,0.512570752197504
1757862692555250400,1.16725048828125,-0.07971358818411826,-0.011385317367315292,0.34548648520484565
1757862692565235500,1.1772353515625,-0.21133827313035725,-0.10125438886284828,0.043053544306755065
1757862692575220200,1.18722021484375,-0.12214549346119165,-0.1120586914718151,-0.19233327453956006
1757862692585205500,1.19720556640625,-0.022929916949570178,-0.17810966500639913,-0.22062968695834279
1757862692595190500,1.2071904296875,0.07983224612772465,-0.1456079098522663,-0.13537234704196452
1757862692605175600,1.217175537109375,0.10554244144558905,-0.07290098555982112,-0.05091024915650487
1757862692615160600,1.22716064453125,0.01888473321199417,-0.06551087530851364,-0.053244829583913085
1757862692625145300,1.237145263671875,-0.018297873234748838,-0.01792670183479786,-0.024857962402701377
1757862692635130400,1.24713037109375,-0.04852086980193853,0.12972118941247462,0.07834390726611018
1757862692645115400,1.257115478515625,-0.06833470055758953,0.15892682563066482,0.20116919968500732
1757862692655101400,1.267101318359375,-0.030993980939686295,0.0663747986614704,0.2772643051110208
1757862692665086500,1.27708642578125,-0.04819236849993467,0.0055097033321857445,0.2903375755652785
1757862692675071500,1.287071533203125,-0.05386486117839813,-0.002768295669555664,0.21098156864717602
1757862692685056500,1.297056396484375,0.012090250766277313,-0.03934066126346588,0.11886048044115305
1757862692695041500,1.30704150390625,0.0688327132076025,-0.01812660832107067,0.12769815915226937
1757862692705026300,1.3170263671875,0.09246610225141048,0.008700023806095122,0.16811214873567223
1757862692715011300,1.32701123046875,0.010411211638152599,-0.035631285351514816,0.07740604189410805
1757862692724996400,1.336996337890625,-0.10724690727591514,-0.15029869801700113,-0.1337207804426551
1757862692734981600,1.346981689453125,-0.07248685180097818,-0.15568740531802178,-0.21398922603055834
1757862692744966400,1.35696630859375,-0.07212094109803438,-0.045882045730948444,-0.04097776094600558
1757862692754951400,1.366951416015625,-0.06140723938196897,0.023581366595625874,0.1613617976926267
1757862692764937500,1.3769375,-0.04056494236141443,0.053937926414608955,0.3343802770398557
1757862692774922500,1.386922607421875,-0.020640929229557514,0.12191489957571029,0.3653542381048202
1757862692784907300,1.3969072265625,-0.05110737916380167,0.13727555031478403,0.19282778005823492
1757862692794892500,1.406892578125,-0.18556378040462732,-0.0029342998862266537,-0.15721096162348985
1757862692804877600,1.416877685546875,-0.17179039885699748,-0.1727870086789131,-0.3818840787537396
1757862692814862600,1.426862548828125,-0.059138709928095334,-0.07111702475249766,-0.25271847739741204
1757862692824847400,1.436847412109375,-0.006133095927536488,0.02993336597084999,0.028482436510175464
1757862692834832400,1.446832275390625,-0.008215747420489788,0.0037830256700515743,0.2780542864449322
1757862692844817400,1.4568173828125,-0.03182692463248968,0.015723054310679434,0.46197044577300544
1757862692854802400,1.466802490234375,-0.06599222908467053,0.043051206219196315,0.4756858135230839
1757862692864787500,1.476787353515625,-0.09161708420664072,0.0220814834266901,0.2933228749863803
1757862692874773500,1.4867734375,0.002270283019542694,-0.017993921852111815,0.06117825293168425
1757862692884758500,1.496758544921875,0.023608839124441144,-0.031124037060141562,-0.03684548344686627
1757862692894743600,1.50674365234375,0.03309475261121988,0.025257190853357314,0.04033770947679877
1757862692904728300,1.516728271484375,0.03594342004060745,0.08496610188484191,0.08553279585689305
1757862692914713300,1.52671337890625,-0.0017331074029207228,0.06534428656995296,0.0546254702873528
1757862692924698400,1.536698486328125,-0.042160102598369116,0.0025648820519447325,-0.06339695189446211
1757862692934683600,1.54668359375,-0.05057751007080078,-0.1029834046125412,-0.15185805628821253
1757862692944668400,1.55666845703125,-0.04033580978065729,-0.11965104629695415,-0.1367472886569798
1757862692954653400,1.5666533203125,-0.05265110147446394,-0.16590543247163295,-0.11280074201077223
1757862692964638500,1.576638427734375,-0.037707799364626406,-0.17253215713500974,-0.07481690218374133
1757862692974623500,1.58662353515625,-0.06813070241808891,-0.08629413561820984,0.053259296500682826
1757862692984609300,1.596609375,-0.05538315678685903,0.04115326364338398,0.17557123256996274
1757862692994594300,1.60659423828125,0.0024897709891200065,0.11943594224154948,0.22419994666054843
1757862693004579600,1.61657958984375,0.0467316482976079,0.14276947155594824,0.23308833264559506
1757862693014564600,1.626564697265625,0.03458089951574802,0.09300035525858402,0.2427079555146396
1757862693024549400,1.63654931640625,-0.11849077034592628,0.005873860469460487,0.321854265204817
1757862693034534400,1.646534423828125,-0.3492100357726216,-0.14072773659527302,0.2468009239166975
1757862693044519400,1.65651953125,-0.2623345931351185,-0.22014146504998205,0.018804361452162265
1757862693054504400,1.66650439453125,-0.06925473801195621,-0.06961947967112064,-0.10495748116448521
1757862693064489500,1.676489501953125,-0.019951485660672185,0.03069675155878067,-0.09387684583216906
1757862693074474200,1.68647412109375,-0.007897475251555442,0.013483166429400444,0.011782938382774591
1757862693084459500,1.69645947265625,0.03085749507844448,0.03428162430822849,0.15486717497631908
1757862693094445600,1.706445556640625,-0.018436989444494248,0.020562311035394666,0.2518190443396568
1757862693104430300,1.716430419921875,-0.05508008218705654,-0.10332418087422847,0.24689050189629197
1757862693114415900,1.726415771484375,-0.0678349343419075,-0.16850246322751045,0.3084022245660424
1757862693124401000,1.73640087890625,-0.07881283995211123,-0.16398527806401253,0.3433789915315807
1757862693134386000,1.746385986328125,-0.10533668974041938,-0.13797054684162138,0.19976737006306647
1757862693144370700,1.75637060546875,-0.14264116900116205,-0.13153437631428241,-0.06850698838457464
1757862693154355700,1.766355712890625,-0.0874962048843503,-0.10837328095734118,-0.1603342082105577
1757862693164340700,1.7763408203125,-0.06433423274457455,0.01163198560476303,-0.06741232501566409
1757862693174325800,1.78632568359375,0.050254269465804094,0.10184709405899048,0.0766185447782278
1757862693184311000,1.79631103515625,0.17655922069400548,0.15830547886192797,0.24721505767554044
1757862693194295800,1.8062958984375,0.21168314104527233,0.1314993050009012,0.3647061494596302
1757862693204280800,1.81628076171875,0.10800240181833505,0.08437631929814815,0.3622901743590832
1757862693214267000,1.826266845703125,-0.1324012222766876,-0.009607786300778388,0.11707505832910536
1757862693224251600,1.836251708984375,-0.19493308177441357,-0.11037117677628994,-0.18953283016607164
1757862693234236700,1.846236572265625,-0.07689473137110471,-0.03498597318530083,-0.2453366965830326
1757862693244222000,1.856221923828125,0.012782616944611072,0.07926876702606678,-0.12484773815721273
1757862693254207000,1.86620703125,0.08696282866001129,0.13964987823069094,0.08349939033314585
1757862693264191700,1.876191650390625,0.10260726477652787,0.1834352439433336,0.2962136279918253
1757862693274176800,1.8861767578125,0.03072247052192688,0.10225450581610203,0.459261479075253
1757862693284161800,1.896161865234375,-0.07080898171663284,-0.07324351538717747,0.2787888843297958
1757862693294146800,1.906146728515625,-0.05775485435426235,-0.30780688902139663,-0.000653641603142023
1757862693304131800,1.9161318359375,0.04673398638516664,-0.3403209191352129,-0.06503039831519127
1757862693314116600,1.92611669921875,0.0483525274977088,-0.12213877145946025,-0.011306553042680025
1757862693324103000,1.93610302734375,-0.000023380875587463377,-0.04359890322983265,-0.06544701629206538
1757862693334088000,1.946087890625,-0.10376257229149341,-0.08147942881286144,-0.20906477524042127
1757862693344072700,1.95607275390625,-0.11237637911885977,-0.07910393185317516,-0.20374825639277697
1757862693354057700,1.9660576171875,-0.05189736049771308,-0.01689268261194229,0.020102292308211325
1757862693364042800,1.976042724609375,0.010256313337385654,0.027639702075719832,0.2727884748712182
1757862693374027800,1.98602783203125,0.04516922128647566,0.03162731040716171,0.43076647534444923
1757862693384013000,1.996012939453125,0.01042816277295351,0.03982113825678825,0.4582927801735699
1757862693393997800,2.005997802734375,-0.0680462390050292,0.05186930344700813,0.3108360275842249
1757862693403982800,2.01598291015625,-0.15151801067888737,0.019177578678727148,-0.00460822444781661
1757862693413968000,2.0259677734375,-0.11079144801497459,-0.042163901990652085,-0.2995550473742187
1757862693423953000,2.035952880859375,-0.05966010345369577,-0.051388826453685754,-0.3728896020457148
1757862693433938700,2.045938720703125,-0.06736117935031652,-0.0573299069404602,-0.19856471627503633
1757862693443923700,2.055923828125,-0.07275456282645464,-0.10830255380868911,0.07938464849069714
1757862693453909000,2.065908935546875,-0.0980398107305169,-0.20263035827875137,0.17572978413254023
1757862693463894000,2.07589404296875,-0.12376257326900958,-0.2460948214739561,0.10923238200470804
1757862693473878800,2.085878662109375,-0.018492811284959314,-0.2073468654066324,0.07062354214712976
1757862693483863800,2.09586376953125,0.09571224456578492,-0.09054945497512817,0.13185747078880666
1757862693493848800,2.105848876953125,0.04770838437527418,0.04475684109330177,0.22547142790108918
1757862693503833900,2.115833740234375,0.05361263998299837,0.10355740510821342,0.33886589802131056
1757862693513818600,2.125818603515625,0.029423662883043288,0.10526537806987762,0.448020100223273
1757862693523803600,2.1358037109375,0.051990591739118096,0.10873510000705719,0.5237484181635081
1757862693533789000,2.145788818359375,-0.009866144976019859,0.07239712769091129,0.4206394874751568
1757862693543774000,2.15577392578125,-0.05994096622169017,-0.04987900641262531,0.13640578174293042
1757862693553759700,2.165759765625,0.0024427169770002365,-0.0935153190433979,-0.09048267334923148
1757862693563744800,2.175744873046875,0.011834230178594588,-0.05275310054421425,-0.1562386094599962
1757862693573729800,2.185729736328125,0.019484452670812606,-0.03028349458277225,-0.09687003629878163
1757862693583714800,2.19571484375,-0.011851473574340342,0.011935352465510368,0.06109057464823126
1757862693593699800,2.205699951171875,-0.050310091306269164,-0.025442484292387962,0.11800649396032094
1757862693603684900,2.215684814453125,-0.12287936069369315,-0.08965981265902519,-0.12763956083282826
1757862693613670000,2.225669921875,-0.16323533647954463,-0.09727730192542075,-0.4460549376301467
1757862693623655000,2.235655029296875,-0.07373217568695545,-0.03127192109823227,-0.4148569585509598
1757862693633640000,2.245639892578125,0.07036503734141587,0.03539864563941955,-0.16460107187479733
1757862693643624700,2.255624755859375,0.09797960497587918,0.022025369325280188,0.12637027154937386
1757862693653609700,2.265609619140625,0.078522332572937,0.021077859342098236,0.383210212790966
1757862693663596000,2.275595947265625,0.03769727797061205,0.02050736597776413,0.503469454114139
1757862693673580800,2.285580810546875,-0.024821137523651123,-0.0346691623210907,0.3892008315078914
1757862693683565800,2.29556591796875,-0.018560031302273274,-0.06347673913240433,0.19810864307060835
1757862693693550800,2.30555078125,0.015274433760344982,-0.027596447455883025,0.09914470323249697
1757862693703535900,2.315535888671875,0.031503684027493,0.021485855621099472,0.07230696518942713
1757862693713520600,2.325520751953125,-0.004508417335152626,0.0444026208281517,0.10548369699567556
1757862693723505700,2.335505615234375,-0.028920097275078296,0.000043839141726493834,0.14260916642770172
1757862693733490700,2.34549072265625,-0.050344578097760675,-0.0703098000228405,0.1670722842939198
1757862693743476000,2.35547607421875,-0.14332418282926082,-0.13424772692620754,0.10937398243248463
1757862693753461000,2.3654609375,-0.15987959631085394,-0.2452496028214693,-0.12466945898085832
1757862693763445800,2.37544580078125,-0.04062690168172121,-0.22866028707027433,-0.24402692915871738
1757862693773430800,2.3854306640625,-0.003547755609452724,-0.013134206861257552,-0.1217125088714063
1757862693783416800,2.395416748046875,0.02064063696861267,0.092569562625885,0.07982362442985176
1757862693793401600,2.405401611328125,0.058628714579343794,0.12737667211294174,0.15491715159788727
1757862693803387000,2.415386962890625,0.06812836433053017,0.1846995647907257,0.06263152047991752
1757862693813372000,2.425371826171875,0.022448270912468433,0.024670915398001668,-0.09200506061092019
1757862693823357000,2.43535693359375,0.06026566813141107,-0.0851408739298582,-0.10214344665706157
1757862693833342000,2.445342041015625,0.09681026893556118,-0.022864158236980438,0.03788739371523261
1757862693843326700,2.45532666015625,0.09816022223979234,-0.026068507236242294,0.21021569884121416
1757862693853311700,2.465311767578125,-0.02848901238143444,-0.08764905735850334,0.2343051610894501
1757862693863296800,2.475296875,-0.24448387914597985,-0.16548165410161017,-0.03019683921262622
1757862693873281800,2.48528173828125,-0.21973025390058754,-0.13594751658141613,-0.24765958657264708
1757862693883266800,2.495266845703125,-0.046535248942673205,0.027832009777426718,-0.16532310253903268
1757862693893252900,2.5052529296875,0.01059153664112091,0.09528583584725857,0.03848579799979925
1757862693903238000,2.51523779296875,-0.004854746554791927,0.07232756958603859,0.265672943777591
1757862693913223000,2.525222900390625,-0.04929740713238716,0.038701194316148754,0.46939796542525286
1757862693923207700,2.535207763671875,0.010489245310425757,-0.020624854877591133,0.6317274391062557
1757862693933192700,2.545192626953125,0.11528174517154693,-0.008055880683660506,0.5866457499727606
1757862693943177700,2.555177734375,0.15282967779934406,0.026619126856327054,0.3121222680024803
1757862693953163000,2.5651630859375,-0.10216565848886966,-0.10292495242357254,-0.19190131286308168
1757862693963147800,2.575147705078125,-0.1967553287655115,-0.34545009871721266,-0.7195460078127682
1757862693973132800,2.5851328125,-0.18372779714912174,-0.14921967060863972,-0.694116967523843
1757862693983117800,2.595117919921875,-0.16314298202097416,0.07038754143416881,-0.2710122589789331
1757862693993102800,2.605102783203125,-0.011717325800657272,0.09427402845621108,0.17637874956056473
1757862694003088000,2.615087890625,0.01049041435420513,0.10226970338523388,0.5143444838717579
1757862694013074000,2.625073974609375,-0.031072599133849143,0.12938275123834608,0.624116817972064
1757862694023059000,2.635058837890625,-0.04496376184225082,0.07546995926499367,0.47452641435489057
1757862694033044000,2.6450439453125,0.0011696283012628554,0.04357318426668644,0.25292729784250256
1757862694043028700,2.65502880859375,0.028114333850145338,0.042675358644127845,0.14594050280749796
1757862694053013800,2.665013671875,0.029044308176636693,0.02045592805147171,0.05990779460445046
1757862694062998800,2.674998779296875,-0.11060147840082644,-0.08062953398525714,-0.05679258519336581
1757862694072983800,2.68498388671875,-0.2164510860994458,-0.22473756066858766,-0.21960253586769102
1757862694082968800,2.69496875,-0.12474836943596601,-0.291776376196742,-0.2922228047899902
1757862694092953900,2.704953857421875,-0.015260405234992504,-0.16261925040781497,-0.15103125007525087
1757862694102939000,2.71493896484375,0.05565320589989423,-0.038628129079937935,0.07981748695001005
1757862694112923600,2.724923583984375,0.09057312811166048,-0.012841945916414261,0.302613996553421
1757862694122908700,2.73490869140625,0.00044511341899633407,0.006860533419251442,0.46717765902727837
1757862694132894500,2.74489453125,-0.06128507430702448,0.02561199564039707,0.4041913337603211
1757862694142879500,2.75487939453125,-0.09025164107233286,-0.07078092466592788,0.08722308703139424
1757862694152864500,2.764864501953125,-0.0016284779846668243,-0.13662439292967318,-0.19357465290278195
1757862694162849800,2.774849853515625,0.07742167785465717,-0.04682254145145416,-0.18461963142231105
1757862694172834600,2.78483447265625,0.12354746921360492,0.05130348625779152,-0.0427459396623075
1757862694182819600,2.794819580078125,0.13483195655494928,0.10559797102510929,0.07992313928157091
1757862694192804600,2.8048046875,0.11996814942210912,0.17620704625546932,0.19233561262711882
1757862694202789600,2.81478955078125,0.268741829828918,0.1762912174075842,0.21549948446303605
1757862694212774400,2.8247744140625,0.3535591708928346,0.015832944425940514,0.07062661088705062
1757862694222759400,2.834759521484375,0.27829350202828645,-0.1730529661387205,-0.1245370647728443
1757862694232744400,2.844744384765625,0.25180764616280793,-0.16969956405758857,-0.11265957997441291
1757862694242730500,2.85473046875,0.2988923456817865,-0.051509237962961196,0.04088146096467971
1757862694252715500,2.864715576171875,0.3730947692289948,0.13540566478967667,0.08248422194123267
1757862694262700500,2.874700439453125,0.3434995491713285,0.3988683851718902,-0.007072422604262828
1757862694272685600,2.884685546875,0.30686405521333215,0.5472007515519857,-0.17103797305449842
1757862694282670600,2.894670654296875,0.17778116370439528,0.4564484674811363,-0.42218510948196053
1757862694292655400,2.9046552734375,-0.0600181231111288,0.2508575058311224,-0.4796756138116121
1757862694302640600,2.914640625,-0.13871815033853052,0.04435118290185928,-0.38268092821985483
1757862694312625700,2.924625732421875,-0.09721329677850007,-0.04361176271140575,-0.11212664214149116
1757862694322610700,2.934610595703125,-0.1287868311718106,0.011153262177109718,0.2754699690401554
1757862694332595700,2.944595703125,-0.14811667780280113,-0.0007335749715566634,0.5816726377353072
1757862694342580500,2.95458056640625,-0.14034253666996954,0.0954933411180973,0.7720641305573284
1757862694352566500,2.96456640625,-0.21365239529162644,0.08677811974287032,0.6781034058339893
1757862694362551600,2.974551513671875,-0.24176585235893724,-0.06729366707205772,0.17605930834785102
1757862694372536600,2.98453662109375,-0.2876695253998041,-0.36417350388765335,-0.34640856848582624
1757862694382521600,2.994521484375,-0.29590251621603963,-0.49407823317348953,-0.5562096951767802
1757862694392506600,3.004506591796875,-0.18491729919463396,-0.49386897433698174,-0.36648733378797765
1757862694402491600,3.01449169921875,-0.03277998757362365,-0.4926332950621843,0.07023118182867764
1757862694412476400,3.024476318359375,-0.09813421101570129,-0.4552928677052259,0.46082273704260585
1757862694422461400,3.03446142578125,-0.263827462041378,-0.584949759709835,0.6244133167006075
1757862694432446500,3.044446533203125,-0.3409650622576475,-0.8232996661454439,0.48799233738854525
1757862694442431500,3.054431396484375,-0.37597149370908733,-0.9741519063919782,0.4608006713412702
1757862694452416800,3.064416748046875,-0.22908903387635945,-1.035734794601798,0.5081844999372959
1757862694462401500,3.074401611328125,-0.057551148475706575,-1.1844020920246838,0.6998980351433157
1757862694472387600,3.0843876953125,0.08216448846757411,-1.3558248266130686,0.95926106512174
1757862694482372600,3.09437255859375,-0.03769114049077034,-1.4112602981090545,1.0046719862096012
1757862694492357400,3.104357421875,-0.2624675718650222,-1.597511768516898,0.7414331377111375
1757862694502342400,3.11434228515625,-0.2989589811772108,-1.9530717578381298,0.46268239343464374
1757862694512327700,3.12432763671875,-0.12762743200361729,-2.0250912843883038,0.20812223369330166
1757862694522312700,3.134312744140625,0.11842939554750918,-1.9940841517060994,0.05493154056183994
1757862694532297700,3.144297607421875,0.21843729148060081,-1.9103449612677097,-0.06812383428588509
1757862694542282500,3.154282470703125,0.1601931923046708,-1.879987816926837,-0.24968188618049025
1757862694552267500,3.164267578125,-0.057926703789830204,-1.9661913516521452,-0.08411182314306496
1757862694562252500,3.17425244140625,-0.32755744528248903,-2.2029034277528523,0.254099556492269
1757862694572237600,3.184237548828125,-0.41007907662466164,-2.5804776804834604,0.5273324871953576
1757862694582223600,3.1942236328125,-0.26672932096272706,-3.066486004447937,0.6001698329344392
1757862694592208600,3.204208740234375,-0.10644377419948577,-3.6462498859524723,0.5619823602940887
1757862694602193700,3.214193603515625,-0.21320494378507135,-4.138551757103205,0.4387913763679564
1757862694612178700,3.2241787109375,-0.33534342298358677,-4.542460474529862,0.13700060583092272
1757862694622163500,3.23416357421875,-0.5008242003023624,-4.77972959999144,-0.20758461968526243
1757862694632148500,3.2441484375,-0.6131687229782342,-4.680554940012097,-0.01414060742482543
1757862694642133500,3.254133544921875,-0.4621897876121103,-4.324921300932765,0.7133425500627607
1757862694652118800,3.264118896484375,-0.29823373564258215,-4.370198951029777,1.3688653638415038
1757862694662103600,3.274103515625,-0.22945538297072052,-4.7822582416862245,1.4582865454390643
1757862694672088600,3.284088623046875,-0.8923742252849042,-4.8037587103545665,1.392053493335843
1757862694682073600,3.294073486328125,-1.8356332730241118,-4.500238704872131,1.2347978157877921
1757862694692058600,3.30405859375,-2.3979607204288245,-3.956224182140827,1.0786030454695223
1757862694702044400,3.31404443359375,-2.4942951885461806,-3.3166952755033967,0.9285760770659893
1757862694712029400,3.324029541015625,-1.7342717705249786,-2.9112627095103263,0.5453417162144556
1757862694722014700,3.3340146484375,-1.2338994056433439,-2.5021283663898704,0.13455296608363276
1757862694731999700,3.343999755859375,-1.724324961528182,-2.1363561951339243,-0.6329990664772689
1757862694741984500,3.353984619140625,-1.4300560378633438,-2.2740251286804676,-0.8595132083643228
1757862694751969500,3.363969482421875,-1.292361531484127,-1.856219987848401,-0.8451206720050424
1757862694761954600,3.37395458984375,-1.2721756525456904,-1.2538462151288985,-0.9821962427683174
1757862694771939600,3.383939697265625,-1.4932593668818472,-1.551979851397872,-1.2159694158729164
1757862694781924600,3.393924560546875,-2.052426450559497,-2.148572702628374,-1.4417739481858909
1757862694791909400,3.403909423828125,-2.517896428886056,-2.5156840135335923,-1.172462428710237
1757862694801894700,3.413894775390625,-2.676348622742295,-2.448773792821169,-0.3981612598158419
1757862694811880700,3.423880615234375,-2.7933307420909403,-1.8204934254288672,0.4984837015908211
1757862694821865500,3.433865478515625,-2.644185305762291,-1.1128595353364943,1.178463641886413
1757862694831850500,3.4438505859375,-2.5871178491503,-0.8310439966619014,1.2987234677314758
1757862694841835500,3.45383544921875,-2.4290473480880257,-0.7421937468200922,0.748514474274218
1757862694851820500,3.463820556640625,-2.1237983268558978,-0.6463374176084995,0.45306927337162195
1757862694861805600,3.4738056640625,-1.9725228927612304,-0.2982838583946228,0.4917507400739938
1757862694871790600,3.48379052734375,-1.8351625867724417,-0.08019055804610252,1.1545905258025972
1757862694881775600,3.493775634765625,-1.5917910527825354,0.13210077802538872,2.151177770560235
1757862694891760600,3.5037607421875,-1.2746423349201679,0.628012656366825,2.8689956394061444
1757862694901745700,3.51374560546875,-0.7522061683990061,0.8470224870383739,3.202079008503258
1757862694911730400,3.52373046875,-0.9957122885540127,1.0444657980680465,2.724499197927117
1757862694921715500,3.533715576171875,-0.6954477777361869,1.149002277341485,1.5263699015840888
1757862694931701800,3.54370166015625,-0.8024597072124481,0.776164990004897,0.5720880131144076
1757862694941686500,3.5536865234375,-1.4152208723030983,0.7066092232197523,0.05619125829935073
1757862694951671600,3.563671630859375,-1.4600725520730018,0.6357008727818727,0.32435565356649454
1757862694961656600,3.573656494140625,-1.3637493360020219,0.8358049274533986,1.1490407096557318
1757862694971641600,3.5836416015625,-1.0837143971338867,1.6105886922329664,1.6997957926884293
1757862694981626600,3.593626708984375,-0.5280979916751385,2.506830844992399,1.7965446868255734
1757862694991611400,3.603611328125,-0.2474389295592904,3.073195731219649,1.5408441248774527
1757862695001596400,3.613596435546875,-0.17879969309717417,2.9653455973535774,1.1595884802203624
1757862695011581700,3.623581787109375,-0.07925035458654164,2.282787696328759,0.6765530345868319
1757862695021566700,3.633566650390625,-0.4964323950842023,1.4324965628832578,0.2670130332749337
1757862695031551500,3.643551513671875,-0.4942170571222901,0.7070897002130746,0.45764776026830073
1757862695041537500,3.65353759765625,-0.6852183524057268,0.9997299997627734,0.7104777352161705
1757862695051522600,3.6635224609375,-0.9885504341006278,1.9977689776986836,0.7986581229723989
1757862695061507600,3.673507568359375,-0.9550842178285122,2.845008906880021,0.723473994911462
1757862695071492600,3.68349267578125,-0.8750444664299487,3.051511138156056,0.3977164386577904
1757862695081477600,3.6934775390625,-0.7919383131980896,2.9370903937280177,0.4865029756136238
1757862695091462700,3.703462646484375,-0.8836299239456653,2.8311662594884632,0.936451121290028
1757862695101447700,3.71344775390625,-1.1425199295848607,2.5226696346372366,1.3874755178958176
1757862695111432400,3.723432373046875,-1.4273489708617328,2.510375970253348,1.8511279254063964
1757862695121417500,3.73341748046875,-1.7072086992934346,2.7090333332478997,2.073505040553957
1757862695131402500,3.743402587890625,-1.8390660239517687,2.807145332431793,1.8337363533616065
1757862695141387800,3.7533876953125,-2.174436627203226,2.8074387624204156,1.2930766940161584
1757862695151373600,3.76337353515625,-2.31114372998029,2.752929173597693,0.862337179743871
1757862695161358600,3.773358642578125,-2.557020524789393,2.7119056738138196,1.0313695120643824
1757862695171343600,3.783343505859375,-2.8441420609176156,2.0102081880331037,1.3531108914792538
1757862695181328600,3.79332861328125,-2.8750714521884917,0.9939332961827516,1.7188102897599338
1757862695191313400,3.8033134765625,-3.0104046362638472,0.4230091392159462,2.1167527922585605
1757862695201298700,3.813298583984375,-3.0476281592428682,0.03726385498940944,2.204841702339053
1757862695211283700,3.82328369140625,-2.717179230302572,-0.11467325788438319,1.793674976608157
1757862695221268700,3.833268798828125,-1.8340053795613347,0.7237982584297656,1.5675431851021944
1757862695231253500,3.84325341796875,-0.5441947016038,3.2688527433544396,1.8533549538061023
1757862695241238500,3.853238525390625,0.8201274658501148,6.473131015467644,2.105988529399037
1757862695251223600,3.8632236328125,1.3058802076183258,9.655999419805408,2.5862051182195542
1757862695261208600,3.87320849609375,1.4610112942278384,12.754407918214797,3.1694819762811064
1757862695271194600,3.883194580078125,0.5354513501126319,12.465338462889195,2.324007887728512
1757862695281179600,3.8931796875,-1.394808345001936,8.997880378988384,0.3309528233418241
1757862695291164700,3.90316455078125,-3.560993861210346,5.43899196562469,-2.3510766580484805
1757862695301149700,3.913149658203125,-3.972255279487371,2.6317145312458274,-5.059218157023191
1757862695311134500,3.923134521484375,1.424638835120201,0.2572147659033537,-5.939250348737835
1757862695321119500,3.933119384765625,6.173307526415586,-1.5352122564703226,-4.0507334806576365
1757862695331104500,3.9431044921875,5.758749404680729,-3.522117894849181,-1.9151587912902235
1757862695341089800,3.95308984375,3.1276585582911967,-4.749457795846462,0.2649210111654363
1757862695351074800,3.96307470703125,0.9490601352334022,-5.068421454176306,1.891563396169245
1757862695361059600,3.9730595703125,-0.24448906677775084,-5.008776840552687,2.550352883593738
1757862695371044600,3.983044677734375,-0.45327093342356384,-4.710272032883763,3.165301475726068
1757862695381030700,3.99303076171875,-0.22492643430419265,-4.181485474422574,3.78323902054131
1757862695391015400,4.003015380859375,0.32871056084036826,-3.1545319521695374,3.894408654218912
1757862695401000400,4.01300048828125,0.9751005854189395,-1.9032745844900607,3.217826612733304
1757862695410985700,4.02298583984375,1.1477835492014885,-0.7968278388053178,2.25735602569133
1757862695420970800,4.032970703125,1.2920739467144011,0.3894809636235237,0.9437891360279173
1757862695430955800,4.042955810546875,1.453757377576828,1.4253274019062518,-0.5798313207175583
1757862695440940500,4.0529404296875,1.066826098436117,1.8835808729827404,-1.9798224021196364
1757862695450925600,4.062925537109375,0.36346272526979445,1.6818804890304804,-3.421047630381584
1757862695460910600,4.07291064453125,-0.18521277500987052,1.2750421478927134,-4.383735601212084
1757862695470895600,4.0828955078125,-0.5630442173719405,0.7154775893300771,-4.9014080604627726
1757862695480880400,4.09288037109375,-0.3587947334587574,-0.10562661259770392,-4.808569910028576
1757862695490866700,4.10286669921875,0.19015081593394279,-0.7105781268507242,-3.5195278783559796
1757862695500851700,4.112851806640625,0.7472691503882408,-1.2384691977769136,-2.237239120335877
1757862695510836500,4.12283642578125,0.8861562275528907,-1.7078583953738211,-1.4629066064551473
1757862695520821500,4.132821533203125,0.7289011345267296,-2.0614169817447663,-1.1048450826417655
1757862695530806500,4.142806640625,0.5147720616340636,-2.068966666471958,-0.6119011872604488
1757862695540791600,4.15279150390625,0.4041179762631654,-1.5380553709417581,0.04545760977379978
1757862695550776800,4.16277685546875,0.4864882164359092,-0.7488099500894546,0.8458121614005416
1757862695560761600,4.17276171875,0.6928337958455085,-0.014699556481838225,1.3934770963981746
1757862695570746600,4.18274658203125,0.8428238663047551,0.5565536863088607,1.600411143220216
1757862695580731600,4.192731689453125,0.6472890192449092,0.6283750599384308,1.066812142976001
1757862695590716700,4.202716552734375,0.19260814595818518,0.4460182588815689,-0.5759745722241699
1757862695600702500,4.212702392578125,0.0067834495950490235,0.28900924957096574,-2.263905447334796
1757862695610687500,4.2226875,0.2746592371791601,0.23031623758375644,-3.0296383290439843
1757862695620672800,4.2326728515625,0.5885189234334975,0.4011684788078069,-2.7035587012290954
1757862695630657800,4.24265771484375,0.6322925256431102,0.5079840089291334,-1.7136029303751885
1757862695640642600,4.252642578125,0.6099591863472015,0.5531827485710382,-0.5731393487982451
1757862695650627600,4.262627685546875,0.5606248812705278,0.4822019174188375,0.47502808026671406
1757862695660612600,4.272612548828125,0.4847265405256301,0.12252923208177088,0.8427461248934268
1757862695670597600,4.28259765625,0.3859684985231608,-0.28141514118015765,0.44393473060578104
1757862695680582400,4.29258251953125,0.1832522885918617,-0.6610574323564767,-0.5239470094755292
1757862695690567400,4.3025673828125,0.08066752790808678,-0.8814210157245397,-1.2424072678782045
1757862695700552700,4.312552734375,0.0035636838309466836,-0.8186340124219655,-1.31545394551903
1757862695710538800,4.322538818359375,0.22949666482917963,-0.5357277559012175,-1.0706940259106457
1757862695720523500,4.3325234375,0.6561842733621597,-0.06476853250861167,-0.5681000394567847
1757862695730508500,4.342508544921875,0.9154220695257186,0.5444248570978641,-0.026236703409999607
1757862695740493600,4.35249365234375,1.0017528838925063,1.3175117548316717,0.41494434457346796
1757862695750478600,4.362478515625,1.0563590649574994,1.8905700012177227,0.2949981147222221
1757862695760463600,4.372463623046875,1.4650532630950213,2.162491337865591,-0.24066958155483006
1757862695770448600,4.38244873046875,1.669339718017727,1.8763789787799119,-1.038060607200861
1757862695780433700,4.39243359375,1.5736270350605248,1.1021990251123905,-1.649698759610951
1757862695790418700,4.402418701171875,1.4479659346938132,0.32159926753044127,-1.8460007916510104
1757862695800403700,4.41240380859375,1.5894126332134006,-0.20970774931907651,-1.6106379382021725
1757862695810388500,4.422388427734375,1.8054548462510107,-0.5575140557736158,-1.1277551989123225
1757862695820373500,4.43237353515625,1.8895149392068384,-0.8563479492664337,-0.7431229904942214
1757862695830359800,4.44235986328125,1.750380609282851,-1.1902017182141542,-0.5165665438354015
1757862695840344600,4.452344482421875,1.525809929613769,-1.4589350724756718,-0.6427822093449532
1757862695850329600,4.46232958984375,1.1414403176546095,-1.5365829603016377,-1.1185239908389746
1757862695860314600,4.472314697265625,0.7046819084189831,-1.4974696780532597,-1.5375414300702512
1757862695870299600,4.482299560546875,0.3416821244858205,-1.4352046527981757,-1.6394443459697068
1757862695880284700,4.49228466796875,0.0009140461049973964,-1.1979302666395901,-1.5445267589129508
1757862695890269400,4.50226953125,-0.23354060645774005,-0.9264286167085171,-1.2301288010634481
1757862695900254700,4.512254638671875,-0.2091986307531595,-1.0877578273057937,-0.966628817410767
1757862695910239700,4.52223974609375,-0.3131628630965948,-1.2909119171977042,-0.9700365800276398
1757862695920224800,4.532224853515625,-0.38527415958344935,-1.2521961098343133,-0.8791162459135055
1757862695930209500,4.54220947265625,-0.4107651591926813,-1.0633996311187743,-0.7550488444790243
1757862695940195600,4.552195556640625,-0.39904344947785136,-0.8296785535275936,-0.549690960932523
1757862695950180600,4.5621806640625,-0.42413259028792377,-0.5344295327842236,-0.2473173490062356
1757862695960165400,4.572165283203125,-0.44291123277693983,-0.303279766985774,0.07264306527599691
1757862695970150700,4.582150634765625,-0.4190294219300151,-0.12506605708301066,0.4511623437717557
1757862695980135700,4.5921357421875,-0.3443918218359351,0.14916531007289885,0.7625510368026792
1757862695990120700,4.60212060546875,-0.3402136593684554,0.3439548917233944,0.6113105278909206
1757862696000105700,4.612105712890625,-0.2850172573253512,0.29219021769464015,0.47456616184338923
1757862696010090500,4.622090576171875,-0.2525634329661727,0.1801239274382591,0.4960248371966183
1757862696020075500,4.632075439453125,-0.13543781349360942,0.19444471373558042,0.5500353904560208
1757862696030060500,4.642060546875,0.0782698191165924,0.2781523399919271,0.7894231155067681
1757862696040045600,4.652045654296875,0.307890183390677,0.361660059762001,1.2152730311065911
1757862696050031600,4.662031494140625,0.554222028490901,0.4744248536765575,1.704030069257319
1757862696060016600,4.6720166015625,0.6764005474388599,0.4533505014657974,1.8965033367894588
1757862696070001700,4.682001708984375,0.566652178736031,0.14688684374690056,1.3379651986651122
1757862696079986700,4.691986572265625,0.4746995789647102,0.052363224443793294,0.5848951069131493
1757862696089971500,4.701971435546875,0.5723381154179573,0.026197102051973342,-0.0797347771026194
1757862696099956500,4.71195654296875,0.6983756478816271,0.004237783700227737,-0.4557436802126467
1757862696109941800,4.721941650390625,0.7367778592512011,0.04111994589567184,-0.680073536863178
1757862696119928000,4.731927978515625,0.7241682607859372,0.14609247849881649,-0.7387744398958981
1757862696129913000,4.7419130859375,0.6790165751561522,0.14101415232121944,-0.7646943324416875
1757862696139898400,4.7518984375,0.5475213618084788,0.01260579907298088,-0.8291689965702593
1757862696149883400,4.76188330078125,0.4707429502934217,-0.1577209569722414,-0.8920312570661306
1757862696159869200,4.771869140625,0.42991935699582096,-0.271212896117568,-0.853449012954533
1757862696169854200,4.781854248046875,0.39021833798736333,-0.2637842074215412,-0.6157711605615913
1757862696179839200,4.791839111328125,0.35455373488813635,-0.23835399808883664,-0.37455505103990433
1757862696189824000,4.801823974609375,0.3222124309927225,-0.16685644958615303,-0.2023166161544621
1757862696199809300,4.811809326171875,0.2318368712797761,-0.02124620164632797,-0.08428995618894695
1757862696209794300,4.821794189453125,0.10898176824450492,0.1304103407204151,-0.07426730547696352
1757862696219779300,4.831779296875,0.028937048409879207,0.14387538697123528,-0.08592077226117253
1757862696229764000,4.84176416015625,0.11782295408695935,0.13657353952527046,-0.09454802309200167
1757862696239749000,4.8517490234375,0.2032923293188214,0.20844752012491224,0.007020692417025565
1757862696249734100,4.861734130859375,0.23519027336090803,0.24929390977621077,0.19930033707320688
1757862696259719200,4.87171923828125,0.23819062422066925,0.24138474408686159,0.3530653960265219
1757862696269705200,4.881705322265625,0.09855915842950344,0.16285481272935867,0.5092709799997508
1757862696279690200,4.891690185546875,0.0034440029740333555,0.06599895108640194,0.6061565061286092
1757862696289675300,4.90167529296875,-0.06677256580740212,-0.04340893361568451,0.5837745784506201
1757862696299660300,4.911660400390625,-0.12214344763457774,-0.09474866023063659,0.4356801124796271
1757862696309645000,4.92164501953125,-0.17086217809617518,0.01170563536286354,0.15760346807241438
1757862696319630000,4.931630126953125,-0.14965017098039388,0.026429741764068603,-0.13593874875307083
1757862696329615000,4.941614990234375,-0.09256810132116079,0.043776597884297365,-0.28965397721529007
1757862696339600100,4.95160009765625,-0.04247895928919315,-0.00031038112342357635,-0.21797142753452062
1757862696349585400,4.96158544921875,-0.03659340838193893,-0.11090952143669128,-0.007966887225955724
1757862696359570200,4.971570068359375,-0.1272226505950093,-0.1650023461520672,0.35024259369075295
1757862696369555200,4.98155517578125,-0.1991781719982624,-0.2397849076747894,0.662154433812946
1757862696379541200,4.991541259765625,-0.196828978523612,-0.2990226940631866,0.7732287904225289
1757862696389526000,5.001526123046875,-0.2270581125706434,-0.2706125921368599,0.7270578447476029
1757862696399511000,5.011510986328125,-0.14083938027620316,-0.12748130153119563,0.5628856658093631
1757862696409496300,5.021496337890625,0.049455812564492226,0.10084522354006767,0.2986632131010294
1757862696419481300,5.0314814453125,0.11991437340825796,0.16171324147880076,0.06584931348264217
1757862696429466400,5.04146630859375,0.02719312735199928,0.008414192602038384,-0.02478445877507329
1757862696439451100,5.051451171875,0.013966858293116093,-0.15310323404371737,0.07161284544542432
1757862696449436200,5.061436279296875,0.08230769633054733,-0.20942834785580633,0.14316285478770732
1757862696459421200,5.071421142578125,0.11144318992197513,0.14653846870064735,-0.018825111979246138
1757862696469406200,5.08140625,-0.2522542208865285,0.5672837546378374,-0.48131081379801033
1757862696479391000,5.091390869140625,-0.3447060023516416,-0.1097843167990446,-0.27394728951752184
1757862696489377300,5.101377197265625,-0.15757307293415068,-0.7933359050363302,0.21238442118242382
1757862696499362300,5.1113623046875,0.2696905088558793,-0.1365846454411745,0.41709655417129393
1757862696509347300,5.121347412109375,0.6321238910779357,0.6725859575867652,0.07187792612239718
1757862696519332000,5.13133203125,-0.1841393005594611,0.08580547531843184,0.10485241335481404
1757862696529317000,5.141317138671875,-0.6874065100997686,-0.20742460681796074,0.35754078787490723
1757862696539302100,5.15130224609375,-0.25718933920115233,-0.17405834378898144,0.24765403361469507
1757862696549287200,5.161287109375,-0.12746113552600144,-0.12608721682429314,0.024340222138911485
1757862696559272200,5.171272216796875,-0.05475567253828048,0.1299140816360712,-0.3328742563910782
1757862696569257200,5.18125732421875,0.22990678000003098,0.07813830169141292,-0.46529053010642524
1757862696579242200,5.1912421875,0.8820669124126433,0.07847673986554145,-0.0031273382402956483
1757862696589227300,5.201227294921875,-0.2997173983290791,0.24318156437575816,0.31164968205466864
1757862696599212300,5.21121240234375,-1.1851993798822165,0.0415530766159296,-0.07958060945421457
1757862696609198000,5.221197998046875,0.03275339182764291,-0.37098610651195046,-0.15121888160184024
1757862696619183400,5.231183349609375,0.6142641169995069,-0.18738427383005618,0.6529113891713321
1757862696629168400,5.24116845703125,0.23224165268838404,0.2624590962976217,0.8483758013434708
1757862696639153200,5.251153076171875,-0.18126286834031344,0.3281938434898853,0.314294497475028
1757862696649138200,5.26113818359375,-0.37529520188272,0.11946283024847507,-0.14607421218976377
1757862696659123200,5.271123291015625,-0.2918047255083918,-0.06760872437059878,-0.2033887754306197
1757862696669108200,5.281108154296875,0.12264029124081134,0.05311491959393024,-0.10895429571568965
1757862696679093200,5.29109326171875,0.2035311065107584,0.197248665240407,0.1363585816003382
1757862696689078000,5.301078125,-0.1229641163676977,0.17448095311522482,0.36332784684374925
1757862696699063300,5.311063232421875,-0.29272973139882086,0.04362754480242729,0.4346763422645628
1757862696709048300,5.32104833984375,-0.12488280947059392,-0.3725789286613464,0.26542233001738785
1757862696719034000,5.3310341796875,0.21621055534183978,-0.4806862521588802,0.005132394452393055
1757862696729019100,5.34101904296875,0.8755392642095684,-0.0976718542009592,-0.5858274193271994
1757862696739004200,5.351004150390625,0.8268935989841818,0.22870354169011115,-0.957532341632992
1757862696748989200,5.3609892578125,0.14242927981615067,0.5029267255395651,-0.6252325241290032
1757862696758974000,5.370973876953125,-0.5010924958497286,0.7280763741403817,-0.0897246945887804
1757862696768959200,5.380959228515625,-0.36110593301057814,0.5874860001891851,0.08934826249182223
1757862696778944300,5.3909443359375,-0.815119574560225,0.4387491446614265,0.030670740334689615
1757862696788929300,5.40092919921875,-1.0327765293180942,0.31728783407211303,-0.4080043161772191
1757862696798914300,5.410914306640625,-0.24008359836041926,0.1437824479907751,-0.883221197014302
1757862696808899000,5.420899169921875,-0.28652561606168747,-0.07444295430481433,-0.915819690541178
1757862696818884000,5.430884033203125,-0.5494540834367275,-0.18780863672196865,-0.6506760313346982
1757862696828870400,5.440870361328125,-0.354000484919548,-0.14391338089406489,-0.11114786023721099
1757862696838855200,5.450855224609375,-0.023521453101933,-0.06549392417371272,0.5509367232099175
1757862696848840200,5.460840087890625,0.21919278602302072,-0.2674778012424707,0.9632439972780644
1757862696858825200,5.4708251953125,0.33190438844561576,-0.42390579579472537,1.0713147881574927
1757862696868810200,5.480810302734375,0.22479075216054914,-0.4486310717284679,1.0116095303878188
1757862696878795300,5.490795166015625,0.19112521392405032,-0.5898743566304445,0.8090146818138658
1757862696888780000,5.500780029296875,0.2520569447487593,-0.6424158602505922,0.6198427939146757
1757862696898765000,5.51076513671875,0.29786475619971753,-0.6196282743811607,0.42440906914174553
1757862696908750300,5.520750244140625,0.40455899802893397,-0.42933191249668595,0.3441325863778591
1757862696918735400,5.5307353515625,0.3660346215844154,-0.2887240028887987,0.4080886334598064
1757862696928720100,5.54072021484375,0.16611761391758917,-0.2820966937035322,0.46029155277535316
1757862696938706200,5.5507060546875,0.022059856116771696,-0.16362053640484808,0.37596886336058377
1757862696948691200,5.560691162109375,0.05899111815094948,-0.1489402691453695,-0.11036007086038589
1757862696958676200,5.57067626953125,0.15783523100167512,-0.27421207793354985,-0.7022158105663955
1757862696968661200,5.5806611328125,0.03904372414350509,-0.26673604296445846,-0.9478189030006527
1757862696978646300,5.590646240234375,-0.015088555799424648,-0.26706805139780043,-0.7698479158125817
1757862696988631300,5.60063134765625,0.038602410116791726,-0.18169103062450884,-0.17979074996113775
1757862696998616300,5.6106162109375,-0.0024988310784101486,0.046913726866245266,0.5455149904221296
1757862697008601000,5.62060107421875,0.020144962406158446,0.2599485747814178,1.1137789882689715
1757862697018586000,5.630586181640625,0.15813713655769823,0.2535837159246206,1.1959968143589794
1757862697028571100,5.640571044921875,0.2039005243450403,0.08064414703249931,0.7168680207751691
1757862697038556200,5.65055615234375,0.0687538027524948,0.08144260393381118,0.08575184543505311
1757862697048541200,5.660541259765625,-0.17338555909395217,0.08123392961919307,-0.458272029646486
1757862697058527200,5.67052734375,-0.1916226420521736,0.06631693099439144,-0.7866783468432724
1757862697068512300,5.68051220703125,-0.0854980168044567,0.15766133573949337,-0.6512830573171376
1757862697078497300,5.690497314453125,0.03356295464485883,0.22565818264484405,-0.1613240960307419
1757862697088482000,5.70048193359375,0.1069090536236763,0.22229776630103587,0.35115722431764007
1757862697098467000,5.710467041015625,0.14650164382159708,0.042615152889490124,0.4399230107463896
1757862697108452000,5.7204521484375,0.15434914245158432,-0.04914192430973053,0.22593568441197276
1757862697118435000,5.73043505859375,0.07197919453978538,0.04020341557264328,0.12866218187883496
1757862697128420000,5.740420166015625,-0.06708440823554992,0.07724690580964089,0.009232961639016867
1757862697138405000,5.750405029296875,-0.14845277788937092,-0.023505963271856306,-0.17694719709828494
1757862697148390400,5.760390380859375,-0.2628317290022969,-0.17239771710038185,-0.17970672493949533
1757862697158376200,5.770376220703125,-0.33281565807163715,-0.12791209416389465,0.05233706708922982
1757862697168361200,5.780361328125,-0.2599368843436241,-0.0403635745704174,0.25038944992795586
1757862697178346200,5.79034619140625,-0.07351005736887455,-0.03177811705470085,0.25963001035153865
1757862697188331000,5.8003310546875,-0.009898293679952621,0.013277414724230765,0.146995126426965
1757862697198316000,5.81031591796875,-0.009411386945843696,0.061686933106184005,0.0303087751545012
1757862697208301300,5.82030126953125,0.021262568259239195,-0.02393850947022438,-0.0679820877276361
1757862697218286300,5.830286376953125,0.04528232627213001,-0.1931476596623659,-0.12283566768243909
1757862697228271400,5.840271240234375,0.002384264788031578,-0.20716624814271925,0.03376505308821797
1757862697238256000,5.850256103515625,-0.012447978162765503,-0.1105816046565771,0.2885202970102429
1757862697248241200,5.8602412109375,0.02712649185657501,-0.16337036103606223,0.4901024614103138
1757862697258226200,5.87022607421875,0.03391805169284343,-0.15270926629006862,0.6131307290554047
1757862697268211200,5.880211181640625,-0.022148118922114372,0.048125440743565555,0.5422518969729543
1757862697278197200,5.890197265625,-0.03471943120360374,0.011080781462788581,0.20874577241912484
1757862697288182300,5.900182373046875,0.034245676212012764,-0.07991466371417046,-0.07349369075596332
1757862697298167300,5.910167236328125,0.1938280431419611,-0.03232172241210937,-0.14186010162606835
1757862697308152300,5.92015234375,0.1640405153825879,-0.014345920738577841,-0.10138561402708292
1757862697318137000,5.93013720703125,0.03698620709180832,-0.09832242706418037,0.08291545296534895
1757862697328122000,5.9401220703125,-0.05300532173961401,-0.1802764876514673,0.26408026775866744
1757862697338107100,5.950107177734375,-0.035596798560023304,-0.18677987819612024,0.38322804070860145
1757862697348092200,5.960092041015625,0.016865794605016707,-0.11984569208621978,0.3077015289507806
1757862697358077200,5.9700771484375,0.09943418769836425,-0.0341068522632122,-0.013595833023637533
1757862697368062200,5.980062255859375,-0.006249123522639274,0.03645253860652446,-0.17481413059234618
1757862697378047200,5.990047119140625,-0.1036585273951292,0.018839725026488303,-0.2004709882877767
1757862697388033000,6.000032958984375,0.0013490765213966369,-0.07668751836121082,-0.13569456473365427
1757862697398018000,6.01001806640625,0.04902501993179321,-0.1019546460866928,0.01746434502005577
1757862697408003000,6.020003173828125,0.03189560595452785,-0.1100549504339695,0.10678381980881094
1757862697417988400,6.02998828125,-0.09007657676637172,-0.1795662935554981,0.04763780335709453
1757862697427973400,6.039973388671875,-0.15591010815799236,-0.1430196469247341,-0.040500791084021326
1757862697437958100,6.049958251953125,-0.1721118858963251,-0.0884568666100502,-0.3641929392404854
1757862697447943200,6.059943115234375,-0.10519932709634304,0.09827917244434356,-0.3359183002620935
1757862697457928200,6.06992822265625,0.025195231533050536,0.08053191882967949,-0.1605240316942334
1757862697467913200,6.079913330078125,0.028200258567929265,-0.019068857607245443,0.09267536108791828
1757862697477898200,6.089898193359375,0.02178396178483963,-0.00267827929854393,0.40324923060461876
1757862697487883000,6.099883056640625,0.010645897176861763,-0.05428571693897247,0.49568581450060006
1757862697497869300,6.109869384765625,-0.03365209423303604,-0.049016836625337595,0.26927418313995
1757862697507854300,6.119854248046875,-0.0690717826604843,0.0718652127712965,-0.05651186855584383
1757862697517839000,6.129839111328125,-0.03570084345638752,0.11950842295587062,-0.35340485711395736
1757862697527824100,6.13982421875,-0.010777122341096401,0.09161971455514431,-0.48283451623395085
1757862697537809200,6.14980908203125,-0.003101473146677017,0.0109013332426548,-0.41472909438759087
1757862697547794200,6.159794189453125,-0.0217938986569643,0.026374796706438063,-0.13313392046540976
1757862697557779200,6.169779296875,-0.017440964144468305,0.01892564974427223,0.2520110597804189
1757862697567764200,6.17976416015625,0.05991758534610271,-0.09475450544953345,0.5466045392245054
1757862697577749200,6.189749267578125,0.029217326655983922,-0.05962357083559036,0.6417252476379275
1757862697587734300,6.199734375,-0.01435994926393032,-0.00761047500371933,0.4604828375637531
1757862697597719300,6.20971923828125,-0.1048047748208046,0.05793956327140331,0.21708996852487325
1757862697607705000,6.219705078125,-0.09799830967634916,-0.0440367101252079,0.06385901644825935
1757862697617690000,6.229690185546875,-0.04328296914845705,-0.13171908523142337,0.011215952149778604
1757862697627675400,6.23967529296875,0.009436813648045063,-0.0649158320248127,0.030525194384157656
1757862697637660200,6.24966015625,-0.020650866101682184,-0.030358897906541824,-0.1060153196543455
1757862697647645200,6.259645263671875,-0.07298281862437725,-0.04854688102602958,-0.323968334749341
1757862697657630200,6.269630126953125,-0.14124328490197657,-0.053468555337190624,-0.3823616331376135
1757862697667615200,6.279615234375,-0.15903028600513935,-0.027913258320093153,-0.16202990621253846
1757862697677600300,6.289600341796875,-0.08433452598303556,-0.042808045113086696,0.10070859154835343
1757862697687585000,6.2995849609375,-0.0021069091513752935,-0.018041268125176427,0.5139411637678742
1757862697697570000,6.309570068359375,0.06946399684846401,0.0029050737917423247,0.8695252646170556
1757862697707555300,6.319555419921875,0.18801848008036612,-0.054397945141792296,0.9348860639303922
1757862697717541000,6.329541015625,0.21252835969775913,-0.051155017697811125,0.766240538970381
1757862697727526100,6.339526123046875,0.074139587444067,-0.08819266271591186,0.5255905388988554
1757862697737511200,6.34951123046875,-0.18026742756217717,-0.1405547181159258,0.6234232827499508
1757862697747496200,6.35949609375,-0.30044805069118735,-0.37752749097943306,0.22277795103341339
1757862697757481200,6.369481201171875,-0.38728842201530933,-0.42706805921792984,-0.22227409316450356
1757862697767466200,6.37946630859375,-0.34557635544538495,-0.19190847325623034,-0.43024712764546275
1757862697777451300,6.389451171875,-0.2148988882213831,-0.019707155510783194,-0.4679426520504057
1757862697787436300,6.399436279296875,0.029153906030952928,0.030305706414580344,-0.43832273594290017
1757862697797421300,6.40942138671875,0.20611703135073184,0.09818389537632465,-0.35189766742140055
1757862697807406000,6.419406005859375,0.1671662461876869,0.11484452279806136,-0.15470555467382072
1757862697817391000,6.42939111328125,-0.018939093747735024,0.016477087548375128,-0.0034480946272611615
1757862697827377200,6.439377197265625,-0.10144435847699641,-0.04073357692658901,0.05795037692636251
1757862697837362200,6.449362060546875,-0.05264905564785003,-0.04780862987935543,0.06044219374209642
1757862697847347200,6.45934716796875,-0.010948971776664257,0.033466800794005394,-0.02022270381748676
1757862697857332200,6.469332275390625,0.010914484985172748,0.06931143663525581,-0.12599077071249484
1757862697867317200,6.479317138671875,0.002413490882515907,0.07268997315764426,-0.17236805261448024
1757862697877302300,6.48930224609375,0.01234393326640129,0.06247077696025371,-0.13738222555965185
1757862697887287000,6.499287109375,0.02377542786300182,0.08004442757368087,0.041796091591566796
1757862697897272000,6.50927197265625,0.07878244481384754,0.05743278279304504,0.237752817325294
1757862697907257000,6.519257080078125,0.19722762245237827,0.017567805394530296,0.3039551820293069
1757862697917242400,6.529242431640625,0.16784019992649554,0.03684358375072479,0.17471987643763423
1757862697927227100,6.53922705078125,0.11159867274463176,0.014569792622327804,-0.005068535435944795
1757862697937213200,6.549213134765625,-0.0076475921437144274,-0.017557284000515937,-0.1616040820159018
1757862697947198200,6.5591982421875,-0.1537695889979601,-0.08122516179084778,-0.16371420603767037
1757862697957183200,6.569183349609375,-0.17424889792501924,-0.13830781597197056,-0.030981559849530455
1757862697967168000,6.57916796875,-0.11267711563110351,-0.1465799697548151,0.16845920860767363
1757862697977153300,6.5891533203125,0.04556991104185581,-0.1666138730019331,0.3459587788917124
1757862697987138300,6.59913818359375,0.076291797041893,-0.12824234903156756,0.35429566847383975
1757862697997123300,6.609123291015625,0.06680997520834207,-0.14983341859281063,0.24114772046059368
1757862698007108000,6.619108154296875,0.08156944518387317,-0.09945523048639297,0.154826258444041
1757862698017093000,6.629093017578125,0.05667933407723903,-0.008039514070749283,0.0988984733864665
1757862698027078100,6.639078125,-0.055150809335708616,0.03200374250411987,0.04492386822327971
1757862698037063200,6.649063232421875,-0.09405950892269611,-0.04682604858279228,0.027656945471465588
1757862698047048200,6.659048095703125,-0.14818565138578413,-0.1042073934495449,0.08641162451803684
1757862698057034200,6.6690341796875,-0.12419891885966061,-0.13800854076445102,0.16538783833831547
1757862698067019300,6.679019287109375,-0.09325169967114925,-0.09079086251556873,0.3436281439870596
1757862698077004300,6.68900439453125,-0.046959904095530504,-0.045586277654767034,0.4290520726419985
1757862698086989000,6.698989013671875,0.06840484318435192,-0.04360474844872951,0.30447219164073464
1757862698096974000,6.70897412109375,0.04751636893451214,-0.004921674311161041,0.1298107673920691
1757862698106959000,6.718958984375,-0.015488076511025428,0.030624855366349218,-0.01795622019022703
1757862698116944100,6.728944091796875,-0.08562076640129089,0.03918400939702987,-0.12115619016289711
1757862698126929400,6.738929443359375,-0.18573299949169159,-0.045507951721549034,-0.1441908826611936
1757862698136914400,6.74891455078125,-0.11488543933033943,-0.18616145403683185,-0.06606938597410916
1757862698146899500,6.7588994140625,-0.096805008238554,-0.17454525052309036,0.10002879259064792
1757862698156884700,6.768884765625,-0.04986322432160377,-0.09165595491230487,0.09505202709138393
1757862698166870500,6.77887060546875,0.03235504015982151,0.004224924218654632,-0.010374532889574765
1757862698176855600,6.78885546875,0.06132160692512989,0.03612754443585872,-0.047573505949228996
1757862698186840600,6.798840576171875,0.05030307704359293,0.0374707757383585,0.04354512721598148
1757862698196825600,6.80882568359375,-0.008415946167707442,0.011047463715076446,0.2061816210195422
1757862698206810400,6.818810302734375,0.014636428117752074,-0.08459668405055999,0.30471286852881313
1757862698216795600,6.828795654296875,0.059065644691884515,-0.1793617108941078,0.3506619881466031
1757862698226780700,6.83878076171875,-0.0001578209102153778,-0.16655775890052318,0.30103987910449503
1757862698236765700,6.848765625,-0.08993862960040569,-0.11868658517897128,0.10387553114667535
1757862698246750700,6.858750732421875,-0.11942191371619701,0.003675473642349243,-0.041214346180856225
1757862698256735500,6.868735595703125,-0.1484966170310974,0.189618901014328,-0.11122048708200453
1757862698266720500,6.878720458984375,-0.09729776019155978,0.23540450063347815,-0.20082827729284763
1757862698276706600,6.88870654296875,0.04792553425729274,0.08674889364838599,-0.06990107309147715
1757862698286691600,6.898691650390625,0.11931377716660499,-0.07214461423456668,0.24186098329648373
1757862698296676600,6.908676513671875,0.05732727659195661,-0.14340543137192727,0.4556124550484121
1757862698306661600,6.91866162109375,-0.03796002056002617,-0.18646598994135855,0.4071661117874086
1757862698316646700,6.928646728515625,-0.11462708065509795,-0.23611469472944735,0.12794585030302405
1757862698326631400,6.93863134765625,-0.14034838188886642,-0.21920564550459384,-0.18160612882003188
1757862698336616400,6.948616455078125,-0.10800912382006644,-0.16283786159455776,-0.3232480576507747
1757862698346601500,6.9586015625,-0.0758867233723402,-0.006482347756624221,-0.23593188550844787
1757862698356586500,6.96858642578125,-0.016875146955251694,0.08241992453336715,-0.01885097707286477
1757862698366571800,6.97857177734375,-0.004261749097704887,0.0577004938185215,0.1881101038865745
1757862698376556500,6.988556640625,-0.01012275008559227,0.020057868644595144,0.33766002936288714
1757862698386542600,6.99854248046875,0.02077536926418543,-0.038543373405933376,0.40547757417857644
1757862698396527600,7.008527587890625,0.019459318229556082,-0.024158874222636222,0.35438071640878915
1757862698406512400,7.018512451171875,0.0033832126975059506,-0.030112229669094083,0.14333192774429918
1757862698416497400,7.028497314453125,-0.06706921066641808,-0.07306932786405086,-0.09820318459868431
1757862698426482700,7.038482666015625,-0.11573884128928184,-0.0420627797037363,-0.18239727919772267
1757862698436467700,7.0484677734375,-0.04816781858056783,0.051875148665904994,-0.10678192011266946
1757862698446452700,7.05845263671875,0.007786708353459835,0.07505144159197807,0.016734423310309648
1757862698456437500,7.0684375,0.04120207122117281,0.0014507833302021026,0.10937573599815369
1757862698466422500,7.078422607421875,0.06462415560185909,-0.08661036196053028,0.17773820134550333
1757862698476407600,7.088407470703125,0.0636778146624565,-0.09637421560585498,0.17565087367743254
1757862698486392600,7.098392578125,0.024023265144228933,-0.1045031615257263,0.03910845994278788
1757862698496378600,7.108378662109375,-0.03315057445168495,-0.1749444789737463,-0.04875336338356137
1757862698506363600,7.11836376953125,-0.08030015590041875,-0.1306762981802225,0.01892901074513793
1757862698516348700,7.1283486328125,-0.08721271176785231,-0.045136195799708366,0.10516790904477238
1757862698526333700,7.138333740234375,-0.0478361024081707,0.037982816913723946,0.12716741327643394
1757862698536318500,7.148318359375,0.054207975527644156,0.06665010847151279,0.1156298279568553
1757862698546303500,7.158303466796875,0.11140578052103518,0.03678513156175613,0.11335457650125026
1757862698556288500,7.16828857421875,0.09450783721208572,-0.04617079954445362,0.08496770932003855
1757862698566273500,7.1782734375,0.06348696826547384,-0.102429862383008,0.040584962236136196
1757862698576258600,7.188258544921875,-0.056304071024060244,-0.07307575760483741,0.09004866584613919
1757862698586243600,7.19824365234375,-0.07040799970030784,-0.0735556500762701,0.1245538697771728
1757862698596229600,7.208229736328125,-0.06687076548486948,-0.08507599200010299,0.19204159811660645
1757862698606214400,7.21821435546875,-0.0960509750008583,-0.06293605638444423,0.21259104967042802
1757862698616199400,7.228199462890625,-0.013598901763558387,-0.10784428864717482,0.20766236109659075
1757862698626184400,7.238184326171875,0.06199117674976587,-0.04757657468914985,0.13671893934533
1757862698636169700,7.248169677734375,0.09151830000728368,0.03150280724465847,0.047868689503520724
1757862698646154800,7.25815478515625,0.08602350198328494,0.03129121032059193,-0.08850129027366638
1757862698656139500,7.268139404296875,-0.00618307254910469,0.01572539239823818,-0.17524784583449363
1757862698666124500,7.27812451171875,-0.16432780789136886,-0.03703881406188011,-0.16005860613957046
1757862698676109600,7.288109619140625,-0.16291034230887888,-0.1005342578947544,-0.1659868271447718
1757862698686094600,7.298094482421875,-0.11387392420023679,-0.04368015177249908,-0.03397811131700873
1757862698696079600,7.30807958984375,-0.02414893735051155,0.012464344775676726,0.12289105113148689
1757862698706065700,7.318065673828125,0.12383271589577197,-0.038325346741080284,0.2257658808030188
1757862698716050700,7.32805078125,0.13322832075059413,-0.026236265018582342,0.24623086894378066
1757862698726035700,7.33803564453125,0.07360007373988628,-0.028383213919401167,0.13361673554629086
1757862698736020500,7.3480205078125,-0.025272388422489165,-0.06323182446062564,0.06547390429899096
1757862698746005500,7.358005615234375,-0.145569331407547,-0.08608312321603298,0.028807284550368784
1757862698755990500,7.367990478515625,-0.16080401767939329,-0.060194064199924464,0.0640118689224124
1757862698765975600,7.3779755859375,-0.08752280063033104,-0.06981529450416564,0.1257237903393805
1757862698775960600,7.387960693359375,-0.015031564915180205,-0.04940612820386886,0.24374679704308508
1757862698785945600,7.397945556640625,0.03580371930897236,-0.04724164364635944,0.2888413456581533
1757862698795930600,7.4079306640625,0.00918809958398342,-0.059790744096040724,0.20840251193940637
1757862698805915600,7.41791552734375,-0.08567249658852816,-0.02028115600645542,0.0610955430842936
1757862698815901400,7.4279013671875,-0.09821896668970584,-0.012095511463284492,-0.1688255577020347
1757862698825886500,7.437886474609375,0.016231588354706762,-0.02764846990406513,-0.3204483439296484
1757862698835871500,7.44787158203125,0.05133154330849647,-0.019746902999281883,-0.258395646250993
1757862698845856800,7.457856689453125,0.059519525939226145,-0.09936521411538124,-0.058784051271528005
1757862698855841500,7.467841552734375,0.05691022022366524,-0.1521966405928135,0.12032704586237668
1757862698865826600,7.47782666015625,0.0691878102555871,-0.08436638242602348,0.3436101699389517
1757862698875811600,7.4878115234375,-0.006325403629243374,-0.018989947152137754,0.44037221581861374
1757862698885796600,7.497796630859375,-0.06811871971935034,0.02241524542570114,0.2990678483791649
1757862698895781600,7.50778173828125,-0.06665390786379576,0.05390753127634525,0.11346943505257368
1757862698905766400,7.517766357421875,-0.05859335100501775,0.09608955344557761,-0.014897709402441978
1757862698915751400,7.52775146484375,-0.10672902088165283,0.08866670996844768,-0.1320649760596454
1757862698925737700,7.53773779296875,-0.11739216145426035,0.013597148197889328,-0.13205869244933127
1757862698935722500,7.547722412109375,-0.020732406905293464,-0.11673662015497684,0.0741220517873764
1757862698945707500,7.55770751953125,0.0212362647742033,-0.15942659184634683,0.40462972517758605
1757862698955692500,7.567692626953125,-0.01872749682366848,-0.15648001700043676,0.5165693203143775
1757862698965677600,7.577677490234375,0.0420890831887722,-0.19637246692776678,0.4637867014147341
1757862698975662600,7.58766259765625,-0.03703706049621105,-0.10123919129371642,0.440626336710155
1757862698985647600,7.597647705078125,-0.08173252679109573,0.0318500132471323,0.2023760912567377
1757862698995632600,7.607632568359375,-0.008050035464763641,-0.009682605102658271,0.06248465935513377
1757862699005617700,7.61761767578125,-0.30241584363281726,-0.1779945141941309,-0.1348313720330596
1757862699015602700,7.627602783203125,-0.2911462615996599,-0.1205769289702177,-0.08588774677440524
1757862699025587500,7.63758740234375,0.023497195443511008,-0.08236614851951599,-0.13983473327830434
1757862699035573500,7.647573486328125,0.25005846440792084,-0.03343056043684482,-0.2910144519135356
1757862699045558500,7.65755859375,0.09387947618067265,0.10150924040675163,-0.38328736968040467
1757862699055543600,7.66754345703125,-0.09375848014950752,0.17345979337394238,-0.3086971158593893
1757862699065528600,7.677528564453125,-0.0671525050356984,0.21313889281153678,-0.02208396764472127
1757862699075513600,7.687513671875,-0.018577859219908715,0.1426835468381643,0.18920286755934357
1757862699085498600,7.69749853515625,0.024254151290655133,0.07750234187543392,0.22799816989973187
1757862699095483600,7.707483642578125,0.045559097386896605,0.06667758100032806,0.10484174583032727
