time,seconds_elapsed,z,y,x
1757614587409935000,22.44893505859375,-0.2381346225738525,-0.8635397553443909,1.1544231176376345
1757614587419891200,22.45889111328125,-0.3689390420913696,-1.6121104955673218,1.258705496788025
1757614587429846000,22.468845947265624,-0.6236568093299866,-2.389636516571045,1.211721658706665
1757614587439801000,22.478801025390624,-0.9507190585136414,-3.1079015731811523,1.0420801639556885
1757614587449757200,22.488757080078123,-1.2936537265777588,-3.723786354064941,0.8090908527374268
1757614587459712000,22.4987119140625,-1.595651626586914,-4.117411613464356,0.5485061407089233
1757614587469667000,22.5086669921875,-1.8097343444824217,-4.127538204193115,0.3404554426670074
1757614587479623200,22.518623046875,-1.926090121269226,-3.7093405723571777,0.1608552187681198
1757614587489578000,22.528577880859373,-1.9650667905807493,-3.0169620513916016,-0.0071061011403799
1757614587499533000,22.538532958984376,-1.971559166908264,-2.200711727142334,-0.0969050154089927
1757614587509489200,22.5484892578125,-1.9129019975662231,-1.4059268236160278,-0.1773071736097335
1757614587519444000,22.55844384765625,-1.7076970338821411,-0.5715180039405823,-0.3943488299846649
1757614587529399000,22.56839892578125,-1.2012343406677246,0.853478729724884,-0.6957353353500366
1757614587539355100,22.57835522460937,-0.5075204372406006,2.749433279037476,-0.8732351660728455
1757614587549310000,22.58831005859375,-0.444943904876709,4.301418304443359,-0.7988301515579224
1757614587559266000,22.59826611328125,-1.1996012926101685,5.212264060974121,-0.504367470741272
1757614587569221000,22.60822119140625,-1.986916661262512,5.944400787353516,-0.3002867400646209
1757614587579176000,22.618176025390625,-2.366471767425537,6.2072038650512695,-0.4344154000282287
1757614587589132000,22.628132080078124,-2.161129951477051,5.782646656036377,-0.6070780158042908
1757614587599087000,22.638087158203124,-1.5231313705444336,4.711379528045654,-0.6959565281867981
1757614587609042200,22.648042236328124,-0.8323723673820496,3.615769147872925,-0.7309321165084839
1757614587618998000,22.657998046875,-0.432854026556015,2.92655611038208,-0.7051916718482971
1757614587628953000,22.667953125,-0.3830976784229278,2.5266153812408447,-0.5940605998039246
1757614587638908200,22.677908203125,-0.509105384349823,2.273660898208618,-0.4861067235469818
1757614587648864000,22.687864013671877,-0.6482001543045044,2.1965951919555664,-0.4708081781864166
1757614587658819000,22.69781909179688,-0.7562597990036011,2.2670817375183105,-0.5299084186553955
1757614587668774100,22.70777416992188,-0.8424775004386902,2.4313273429870605,-0.582621693611145
1757614587678730000,22.71772998046875,-0.919624924659729,2.6484436988830566,-0.5711007714271545
1757614587688685000,22.72768505859375,-0.986574411392212,2.9059817790985107,-0.5176926851272583
1757614587698640100,22.73764013671875,-1.0366950035095217,3.205195426940918,-0.4558553099632263
1757614587708596000,22.747595947265623,-1.064088225364685,3.5342788696289062,-0.3916526138782501
1757614587718551000,22.757551025390622,-1.076993107795715,3.8918068408966064,-0.3338180780410766
1757614587728506000,22.767506103515625,-1.088985562324524,4.282613754272461,-0.2770573198795318
1757614587738462000,22.7774619140625,-1.119198441505432,4.695199966430664,-0.1878274530172348
1757614587748417000,22.7874169921875,-1.1626441478729248,5.14070987701416,-0.0608527287840843
1757614587758372000,22.7973720703125,-1.1946829557418823,5.6053147315979,0.0901650562882423
1757614587768328000,22.807327880859376,-1.1908406019210815,6.038710117340088,0.258442759513855
1757614587778283000,22.81728295898437,-1.125647783279419,6.407860279083252,0.4327898919582367
1757614587788238000,22.82723803710937,-0.98864084482193,6.645350456237793,0.5548825263977051
1757614587798194200,22.837194091796874,-0.8097144961357117,6.595578193664551,0.6008512377738953
1757614587808149000,22.84714892578125,-0.545505702495575,6.077442646026611,0.577411413192749
1757614587818104000,22.85710400390625,-0.1251229792833328,5.040493965148926,0.5223184823989868
1757614587828060200,22.86706005859375,0.4324300289154053,3.7382543087005615,0.532090961933136
1757614587838015000,22.877014892578124,0.9627455472946168,2.290114402770996,0.5666171312332153
1757614587847970000,22.886969970703124,1.4536707401275637,0.6930976510047913,0.5023526549339294
1757614587857926100,22.896926025390623,1.9653948545455933,-1.042271614074707,0.3915688991546631
1757614587867881000,22.906880859375,2.4302003383636475,-2.82813024520874,0.2908516228199005
1757614587877837000,22.916837158203126,2.856078863143921,-4.441321849822998,0.1490574181079864
1757614587887792000,22.92679223632813,3.2821664810180664,-5.649215221405029,-0.0964628532528877
1757614587897747000,22.936746826171877,3.7632806301116943,-6.392917633056641,-0.450786679983139
1757614587907703000,22.946703125,4.37431001663208,-6.667770862579346,-0.8845386505126953
1757614587917658000,22.956658203125,5.192071914672852,-6.459952354431152,-1.388786792755127
1757614587927613000,22.966613037109376,6.074368953704834,-5.9136834144592285,-1.9490543603897093
1757614587937569000,22.976569091796875,6.449543952941895,-5.250766277313232,-2.343421697616577
1757614587947524000,22.986524169921875,5.831632137298584,-4.555657863616943,-2.394810676574707
1757614587957479000,22.99647900390625,4.401988506317139,-3.778433322906494,-2.112861156463623
1757614587967435000,23.00643505859375,3.1986289024353027,-2.642045497894287,-1.732736110687256
1757614587977390000,23.01639013671875,2.702465057373047,-1.084017634391785,-1.4935628175735474
1757614587987345000,23.026344970703125,2.438009262084961,0.1931971758604049,-1.421418070793152
1757614587997301000,23.036301025390625,1.9349628686904907,0.7037675976753235,-1.3668806552886963
1757614588007256000,23.046256103515624,1.3565030097961426,0.6044149398803711,-1.3763127326965332
1757614588017211000,23.0562109375,1.029920220375061,0.0999140888452529,-1.4721475839614868
1757614588027167000,23.0661669921875,0.9970237612724304,-0.5814777612686157,-1.5219271183013916
1757614588037122000,23.0761220703125,1.0676814317703247,-1.1797126531600952,-1.446808934211731
1757614588047076900,23.086076904296878,1.0777692794799805,-1.6160045862197876,-1.3310894966125488
1757614588057033000,23.09603295898437,0.9585540890693665,-1.893305420875549,-1.2221577167510986
1757614588066988000,23.105988037109373,0.7225978970527649,-2.0547680854797363,-1.117980718612671
1757614588076943000,23.115943115234376,0.4189862012863159,-2.167118549346924,-1.0554368495941162
1757614588086899000,23.12589892578125,0.113818310201168,-2.3203394412994385,-1.071192979812622
1757614588096854000,23.13585400390625,-0.1316850185394287,-2.613790988922119,-1.1579835414886477
1757614588106809000,23.14580908203125,-0.3052054345607757,-3.0368876457214355,-1.2724480628967283
1757614588116765400,23.15576538085937,-0.430077850818634,-3.4395878314971924,-1.3334506750106812
1757614588126720500,23.16572045898437,-0.5254756808280945,-3.6658082008361816,-1.2581952810287476
1757614588136675300,23.17567529296875,-0.5873528718948364,-3.68853759765625,-1.0290533304214478
1757614588146631400,23.18563134765625,-0.5930014848709106,-3.622344732284546,-0.7046132683753967
1757614588156586500,23.19558642578125,-0.5400571823120117,-3.5083136558532715,-0.3362312912940979
1757614588166541300,23.205541259765624,-0.4337815940380096,-3.3272294998168945,0.0190226882696151
1757614588176497400,23.215497314453124,-0.3095506131649017,-3.06369686126709,0.2916613221168518
1757614588186452500,23.225452392578124,-0.2483096271753311,-2.7317609786987305,0.4436116814613342
1757614588196407300,23.2354072265625,-0.3205633461475372,-2.4054548740386963,0.4775832891464233
1757614588206363400,23.24536328125,-0.5601711273193359,-2.1471636295318604,0.4055993854999542
1757614588216318500,23.255318359375,-0.9341752529144288,-1.964028596878052,0.2564646899700165
1757614588226273500,23.2652734375,-1.3747811317443848,-1.80798864364624,0.0870695486664772
1757614588236229400,23.2752294921875,-1.783645510673523,-1.6456862688064575,-0.0265818834304809
1757614588246184400,23.28518432617188,-2.122725486755371,-1.504227638244629,-0.0328341871500015
1757614588256139500,23.29513940429688,-2.3887135982513428,-1.352874755859375,0.0437882840633392
1757614588266095400,23.305095458984376,-2.5943405628204346,-1.1789815425872805,0.1621506214141845
1757614588276050400,23.31505053710937,-2.72022032737732,-0.9515663981437684,0.2931391894817352
1757614588286005500,23.32500561523437,-2.7258310317993164,-0.6013274192810059,0.4478661715984344
1757614588295961300,23.33496142578125,-2.59779953956604,-0.1137320771813392,0.644029974937439
1757614588305916700,23.344916748046877,-2.4389681816101074,0.4778521358966827,0.787940263748169
1757614588315871500,23.35487158203125,-2.3970425128936768,1.171066164970398,0.7372121810913086
1757614588325827300,23.364827392578125,-2.39016342163086,2.262554883956909,0.5957767963409424
1757614588335782400,23.374782470703124,-2.141049861907959,4.022270679473877,0.4950634837150574
1757614588345737500,23.384737548828124,-2.3595874309539795,5.234943389892578,0.4618352353572845
1757614588355693300,23.394693359375,-3.2775728702545166,5.619117259979248,0.9123533368110656
1757614588365648400,23.4046484375,-4.151236057281494,6.378766536712647,1.175726056098938
1757614588375603500,23.414603515625,-4.501338005065918,7.157739162445068,0.9130043387413024
1757614588385559300,23.424559326171877,-4.200416564941406,6.943820953369141,0.5405255556106567
1757614588395514400,23.434514404296877,-3.60986328125,6.092158317565918,0.3677260279655456
1757614588405469400,23.44446948242188,-2.8217172622680664,5.254540920257568,0.2816761136054992
1757614588415425500,23.454425537109376,-2.045888662338257,4.630617618560791,0.1531052589416504
1757614588425380400,23.46438037109375,-1.5294578075408936,4.062405586242676,-0.0016134832985699
1757614588435335400,23.47433544921875,-1.334324836730957,3.3989381790161133,-0.1400588154792785
1757614588445291500,23.48429150390625,-1.352465271949768,2.723278045654297,-0.2567936778068542
1757614588455246300,23.494246337890623,-1.4232327938079834,2.164879560470581,-0.3486273288726806
1757614588465201400,23.504201416015626,-1.4804366827011108,1.8034207820892332,-0.4197838008403778
1757614588475157500,23.514157470703125,-1.5346261262893677,1.6078126430511477,-0.4477650821208954
1757614588485112300,23.5241123046875,-1.5772665739059448,1.544634222984314,-0.3994811773300171
1757614588495067400,23.5340673828125,-1.583627700805664,1.5963969230651855,-0.3066251873970032
1757614588505023500,23.5440234375,-1.550602912902832,1.7442938089370728,-0.2309493422508239
1757614588514978300,23.55397827148437,-1.48321795463562,1.971637845039368,-0.1893970221281051
1757614588524933400,23.56393334960937,-1.4053561687469482,2.260409355163574,-0.192546471953392
1757614588534889500,23.573889404296875,-1.330778956413269,2.594139814376831,-0.2339470982551574
1757614588544844300,23.58384423828125,-1.2669299840927124,2.9021260738372803,-0.300299733877182
1757614588554799400,23.59379931640625,-1.2105244398117063,3.158130407333374,-0.3884114623069763
1757614588564755500,23.60375537109375,-1.1447126865386963,3.3616905212402344,-0.4790766537189483
1757614588574710300,23.613710205078124,-1.0550662279129028,3.474534034729004,-0.5769606232643127
1757614588584665600,23.62366552734375,-0.9188804626464844,3.398449659347534,-0.6471607685089111
1757614588594621400,23.633621337890624,-0.7242835164070129,3.07190465927124,-0.6625296473503113
1757614588604576300,23.643576171875,-0.4506386518478393,2.6213958263397217,-0.6220093369483948
1757614588614531600,23.653531494140623,-0.0961060523986816,2.174567699432373,-0.5477375984191895
1757614588624487400,23.6634873046875,0.2908400595188141,1.671672224998474,-0.516152024269104
1757614588634442200,23.673442138671877,0.7337802052497864,1.0187397003173828,-0.5356327295303345
1757614588644397600,23.6833974609375,1.2214339971542358,0.137150302529335,-0.5498591065406799
1757614588654353400,23.693353515625,1.7218948602676392,-0.9427180290222168,-0.5108257532119751
1757614588664308500,23.70330859375,2.21297025680542,-2.0662295818328857,-0.4840021431446075
1757614588674263600,23.713263671875,2.7296926975250244,-3.071099281311035,-0.4956349432468414
1757614588684219400,23.723219482421875,3.2979423999786377,-3.795841693878174,-0.5315529704093933
1757614588694174500,23.733174560546875,3.9437663555145264,-4.157584190368652,-0.5853974223136902
1757614588704129500,23.743129638671878,4.683388233184815,-4.074617862701416,-0.7626896500587463
1757614588714085400,23.75308544921875,5.694440841674805,-3.695685148239136,-1.2405999898910522
1757614588724040400,23.76304052734375,7.136843204498291,-3.2157585620880127,-1.875545620918274
1757614588733995500,23.77299560546875,7.782925605773926,-3.1050195693969727,-2.100947618484497
1757614588743951400,23.782951416015624,6.469757080078125,-3.728813648223877,-1.4123224020004272
1757614588753906400,23.792906494140624,4.686400413513184,-4.2613911628723145,-0.6851298809051514
1757614588763861500,23.802861572265623,3.902284860610962,-3.816859722137451,-0.5567090511322021
1757614588773817600,23.812817626953127,3.998997449874878,-2.8696768283843994,-0.6167055368423462
1757614588783772400,23.8227724609375,4.252040863037109,-2.195839166641236,-0.5870739221572876
1757614588793727500,23.8327275390625,4.160505294799805,-2.1153488159179688,-0.4859868288040161
1757614588803683600,23.84268359375,3.711382389068604,-2.3068342208862305,-0.3518950641155243
1757614588813638400,23.852638427734377,3.066159725189209,-2.353078365325928,-0.2698870897293091
1757614588823593500,23.862593505859376,2.423532247543335,-2.179656982421875,-0.2059073001146316
1757614588833549600,23.87254956054688,1.810293436050415,-1.9300278425216677,-0.107712835073471
1757614588843504400,23.88250439453125,1.207921862602234,-1.5973745584487915,0.0130508653819561
1757614588853459500,23.89245947265625,0.6538960337638855,-1.2013133764266968,0.1401182115077972
1757614588863415600,23.90241552734375,0.1982749849557876,-0.8903765678405762,0.2308651506900787
1757614588873370400,23.91237036132813,-0.1645631343126297,-0.758617103099823,0.2504193782806396
1757614588883325400,23.922325439453125,-0.4568306803703308,-0.8123732805252075,0.1856222599744796
1757614588893281500,23.932281494140625,-0.698489248752594,-0.9790693521499634,0.0453860647976398
1757614588903236400,23.942236328125,-0.913226306438446,-1.197857141494751,-0.1197637468576431
1757614588913191400,23.95219140625,-1.1005465984344482,-1.4228936433792114,-0.2535287141799927
1757614588923147500,23.9621474609375,-1.2731982469558716,-1.6052656173706057,-0.3032451570034027
1757614588933102300,23.972102294921875,-1.4278143644332886,-1.713599681854248,-0.2689207792282104
1757614588943057700,23.9820576171875,-1.559208869934082,-1.743781566619873,-0.194893941283226
1757614588953013500,23.99201342773437,-1.6550511121749878,-1.724740743637085,-0.1108545213937759
1757614588962968300,24.00196826171875,-1.6904717683792114,-1.7160847187042236,-0.0237819347530603
1757614588972923400,24.01192333984375,-1.6599321365356443,-1.7375844717025757,0.0432733334600925
1757614588982879500,24.02187939453125,-1.5779203176498413,-1.7901294231414795,0.0837539136409759
1757614588992834300,24.031834228515624,-1.5026917457580566,-1.8454902172088623,0.0808730199933052
1757614589002789400,24.041789306640624,-1.4748387336730957,-1.8742151260375977,0.0394600592553615
1757614589012745500,24.051745361328123,-1.5181721448898315,-1.8278589248657229,-0.0455841533839702
1757614589022700500,24.061700439453126,-1.6386053562164309,-1.6665973663330078,-0.1834525316953659
1757614589032655400,24.0716552734375,-1.8456737995147705,-1.3805752992630005,-0.343192309141159
1757614589042611500,24.081611572265626,-2.115725517272949,-1.0192272663116455,-0.4742201268672943
1757614589052566500,24.09156640625,-2.3973114490509038,-0.6121110320091248,-0.5355119705200195
1757614589062521300,24.101521240234376,-2.625486135482788,-0.2018795609474182,-0.5066390037536621
1757614589072476400,24.111476318359376,-2.753307819366455,0.1815014779567718,-0.3837625086307525
1757614589082432500,24.1214326171875,-2.740100622177124,0.5900205373764038,-0.1944287866353988
1757614589092387300,24.13138720703125,-2.585667371749878,1.0511136054992676,0.0183189008384943
1757614589102342400,24.14134228515625,-2.3556723594665527,1.618607759475708,0.2391964197158813
1757614589112298500,24.15129858398437,-2.142348289489746,2.4040822982788086,0.4526969194412231
1757614589122253600,24.16125366210937,-1.937827706336975,3.472256183624268,0.528709888458252
1757614589132208600,24.171208740234373,-1.5691832304000854,5.102353096008301,0.3217022716999054
1757614589142164700,24.18116479492188,-1.493135929107666,6.486178398132324,0.1680868566036224
1757614589152119600,24.19111962890625,-2.3445229530334477,6.202907085418701,0.5356788635253906
1757614589162074600,24.20107470703125,-3.3239755630493164,5.571959495544434,0.7871430516242981
1757614589172030700,24.21103076171875,-3.8892393112182617,5.4841179847717285,0.4733722507953644
1757614589181985500,24.220985595703127,-3.847705602645874,5.198416233062744,0.0240732599049806
1757614589191940900,24.23094091796875,-3.279637575149536,4.247194766998291,-0.1418168544769287
1757614589201896700,24.240896728515622,-2.4677836894989014,2.9365084171295166,-0.1278930455446243
1757614589211851500,24.2508515625,-1.7007529735565186,1.6664317846298218,-0.1563760787248611
1757614589221806800,24.260806884765625,-1.27446448802948,0.6323979496955872,-0.2050852924585342
1757614589231762700,24.2707626953125,-1.284132957458496,-0.0854727104306221,-0.234119713306427
1757614589241717500,24.28071752929688,-1.5160740613937378,-0.4980946481227875,-0.271548330783844
1757614589251672800,24.2906728515625,-1.7704235315322876,-0.653670608997345,-0.3202572762966156
1757614589261628700,24.30062866210937,-1.9697132110595703,-0.5826563835144043,-0.3516703248023987
1757614589271583700,24.31058374023437,-2.087879180908203,-0.3062503635883331,-0.3347749710083008
1757614589281538800,24.32053881835937,-2.1204640865325928,0.068786896765232,-0.276964396238327
1757614589291494700,24.33049462890625,-2.091280937194824,0.4899359345436096,-0.2274401485919952
1757614589301449700,24.34044970703125,-2.013770341873169,0.9339123368263244,-0.2315624505281448
1757614589311404800,24.35040478515625,-1.9283093214035036,1.401046872138977,-0.2926776707172394
1757614589321360600,24.360360595703124,-1.8688335418701167,1.91657817363739,-0.372210830450058
1757614589331315700,24.370315673828124,-1.8388473987579343,2.464398145675659,-0.4282819032669067
1757614589341270800,24.380270751953127,-1.8428759574890137,3.0170159339904785,-0.4380996525287628
1757614589351226600,24.3902265625,-1.8342519998550413,3.506850004196167,-0.3949796557426452
1757614589361181700,24.400181640625,-1.7765828371047974,3.84914231300354,-0.3126330971717834
1757614589371136800,24.41013671875,-1.637403130531311,3.968623399734497,-0.1855437755584716
1757614589381092900,24.4200927734375,-1.3815795183181765,3.861243963241577,-0.0506277717649936
1757614589391047700,24.43004760742188,-1.0161097049713137,3.560372829437256,0.0202966760843992
1757614589401002800,24.44000268554688,-0.5669665336608887,3.1333279609680176,-0.0248423069715499
1757614589410958800,24.449958740234376,-0.0906381905078888,2.6082332134246826,-0.2028572261333465
1757614589420913700,24.45991357421875,0.3642584681510925,1.9998470544815063,-0.4767614901065826
1757614589430868700,24.46986865234375,0.791501522064209,1.2068884372711182,-0.7452170252799988
1757614589440823800,24.47982373046875,1.2083537578582764,0.1112075895071029,-0.9276816844940186
1757614589450779600,24.489779541015626,1.6492537260055542,-1.2953617572784424,-0.9414539933204652
1757614589460734700,24.499734619140625,2.146795749664306,-2.9031360149383545,-0.8664854764938354
1757614589470689800,24.509689697265625,2.715937852859497,-4.460818290710449,-0.8387997150421143
1757614589480645600,24.519645751953124,3.292932510375977,-5.722573280334473,-0.9224687814712524
1757614589490600700,24.5296005859375,3.847612380981445,-6.706211566925049,-1.0822829008102417
1757614589500555800,24.5395556640625,4.380183219909668,-7.35869026184082,-1.2882100343704224
1757614589510511600,24.54951171875,5.036037921905518,-7.448318481445312,-1.6110804080963137
1757614589520466700,24.559466796875,6.110681056976318,-6.946804523468018,-2.252217531204224
1757614589530421800,24.569421875,7.262399196624756,-6.056696891784668,-2.8453118801116943
1757614589540377600,24.579377685546877,7.329928874969482,-5.273482799530029,-2.615617513656616
1757614589550332700,24.58933276367188,6.276350975036621,-4.547556400299072,-1.9405800104141235
1757614589560287700,24.59928784179688,5.105730056762695,-3.653562545776367,-1.4568432569503784
1757614589570243600,24.60924365234375,4.4983744621276855,-2.7441751956939697,-1.416427493095398
1757614589580198700,24.61919873046875,4.348699569702148,-2.580914258956909,-1.5799216032028198
1757614589590153700,24.62915380859375,4.242152214050293,-3.3704986572265625,-1.6368629932403564
1757614589600109600,24.639109619140623,3.914552927017212,-4.440780162811279,-1.5190616846084597
1757614589610064600,24.649064697265626,3.366276502609253,-4.96942663192749,-1.3675167560577393
1757614589620019700,24.659019775390625,2.7082090377807617,-4.73984956741333,-1.2234957218170166
1757614589629975800,24.668975830078125,2.095762014389038,-4.063859462738037,-1.0697669982910156
1757614589639930600,24.6789306640625,1.5632028579711914,-3.3203284740448,-0.916685938835144
1757614589649885700,24.6888857421875,1.1084327697753906,-2.6353752613067627,-0.7695214152336121
1757614589659840500,24.698840576171875,0.752025842666626,-1.9891352653503416,-0.6519777774810791
1757614589669796600,24.70879663085937,0.4926280677318573,-1.422309637069702,-0.570980966091156
1757614589679751700,24.71875170898437,0.2932063043117523,-0.9707475304603576,-0.5126731991767883
1757614589689706500,24.72870654296875,0.1188207641243934,-0.7078815698623657,-0.4803969860076904
1757614589699662600,24.73866259765625,-0.0523581802845001,-0.6509228944778442,-0.4743963479995727
1757614589709617700,24.74861767578125,-0.2462990880012512,-0.7075432538986206,-0.4693564176559448
1757614589719572700,24.75857275390625,-0.4602063298225403,-0.7645391225814819,-0.4241905212402344
1757614589729528600,24.768528564453124,-0.686380922794342,-0.7285160422325134,-0.2885060310363769
1757614589739483600,24.778483642578124,-0.8872227072715759,-0.6322054862976074,-0.0776097625494003
1757614589749438700,24.788438720703127,-1.035006046295166,-0.5836997032165527,0.1219043433666229
1757614589759394600,24.79839453125,-1.1197267770767212,-0.6725670099258423,0.2456686347723007
1757614589769349600,24.808349609375,-1.128569722175598,-0.942015826702118,0.2913026809692383
1757614589779304700,24.8183046875,-1.0403107404708862,-1.3817987442016602,0.2858882248401642
1757614589789260500,24.828260498046877,-0.8842492699623108,-1.8964784145355225,0.2488983422517776
1757614589799215900,24.8382158203125,-0.7298586368560791,-2.3751673698425293,0.2224744707345962
1757614589809170700,24.84817065429688,-0.6585934162139893,-2.825439214706421,0.2445418089628219
1757614589819126500,24.85812646484375,-0.7499768733978271,-3.216205596923828,0.330937385559082
1757614589829081900,24.86808178710937,-1.032393455505371,-3.4292960166931152,0.4255399405956268
1757614589839036700,24.87803662109375,-1.4823598861694336,-3.3247628211975098,0.4700855910778045
1757614589848992500,24.887992431640622,-2.030728340148926,-2.7896833419799805,0.4699786901473999
1757614589858947800,24.89794775390625,-2.5467050075531006,-1.9032073020935056,0.4777514040470123
1757614589868902700,24.907902587890625,-2.9034347534179688,-0.8812592029571533,0.5061071515083313
1757614589878857700,24.917857666015625,-3.0739338397979736,0.1571682542562484,0.518230140209198
1757614589888813800,24.927813720703124,-3.107461452484131,1.229211926460266,0.5021393895149231
1757614589898768600,24.9377685546875,-3.067169189453125,2.276503086090088,0.486159086227417
1757614589908723700,24.9477236328125,-2.892007827758789,3.463244676589966,0.4243400394916534
1757614589918679800,24.9576796875,-2.391751527786255,4.877693176269531,0.3632069230079651
1757614589928634600,24.96763452148437,-2.032839298248291,5.603744029998779,0.4310825169086456
1757614589938589700,24.977589599609374,-2.605698108673096,5.996641635894775,0.817242443561554
1757614589948545800,24.9875458984375,-3.4770216941833496,6.539085388183594,1.012434959411621
1757614589958500600,24.99750048828125,-3.885421514511109,6.871318817138672,0.6100701689720154
1757614589968455700,25.00745556640625,-3.6802051067352295,6.530070781707764,0.1371150761842727
1757614589978411800,25.017411865234376,-3.0395002365112305,5.5071539878845215,-0.0535941496491432
1757614589988366600,25.02736669921875,-2.142671823501587,4.092491149902344,-0.1282432526350021
1757614589998321700,25.03732177734375,-1.266777753829956,2.822098731994629,-0.2245559394359588
1757614590008277800,25.04727783203125,-0.7802469730377197,2.0178163051605225,-0.293410062789917
1757614590018232600,25.057232666015626,-0.7335255146026611,1.5107873678207395,-0.3161473274230957
1757614590028187600,25.067187744140625,-0.9554610252380372,1.0746196508407593,-0.3241552710533142
1757614590038143700,25.077143798828125,-1.2405325174331665,0.7782958149909973,-0.3378010392189026
1757614590048098600,25.0870986328125,-1.479623317718506,0.7306510806083679,-0.353545606136322
1757614590058053600,25.0970537109375,-1.6309611797332764,0.8763265609741211,-0.3691487908363342
1757614590068008700,25.1070087890625,-1.694125413894653,1.1215673685073853,-0.3951611518859863
1757614590077964800,25.11696484375,-1.712658166885376,1.4139059782028198,-0.4216201901435852
1757614590087919600,25.12691967773437,-1.725804090499878,1.772584080696106,-0.4325900673866272
1757614590097874700,25.13687475585937,-1.7569530010223389,2.22179913520813,-0.4124589562416076
1757614590107830800,25.146830810546877,-1.8036785125732424,2.7499279975891118,-0.3587599992752075
1757614590117785000,25.15678515625,-1.845952272415161,3.28676176071167,-0.3024496138095855
1757614590127740200,25.166740234375,-1.8675966262817385,3.7573983669281006,-0.2601618766784668
1757614590137696300,25.1766962890625,-1.861743211746216,4.135489940643311,-0.2235721796751022
1757614590147651000,25.186651123046875,-1.806931495666504,4.392947673797607,-0.2088093906641006
1757614590157606100,25.196606201171875,-1.6845142841339111,4.495733261108398,-0.2360721677541732
1757614590167562200,25.20656225585937,-1.4673519134521484,4.365642070770264,-0.2651118636131286
1757614590177517000,25.21651708984375,-1.110442042350769,3.9217958450317374,-0.2805941700935364
1757614590187472100,25.22647216796875,-0.5666260123252869,3.2926812171936035,-0.244955763220787
1757614590197428200,25.23642822265625,0.0995557531714439,2.609792232513428,-0.1975477784872055
1757614590207383000,25.246383056640624,0.762359619140625,1.9108226299285889,-0.1913156658411026
1757614590217338000,25.256338134765624,1.3305588960647583,1.0583183765411377,-0.2192655354738235
1757614590227293200,25.266293212890623,1.7771012783050537,-0.0523140840232372,-0.2577274143695831
1757614590237249000,25.2762490234375,2.108632326126098,-1.3715676069259644,-0.318785697221756
1757614590247204000,25.2862041015625,2.383760690689087,-2.764789342880249,-0.4037753045558929
1757614590257159200,25.2961591796875,2.671795129776001,-3.995448350906372,-0.5519967675209045
1757614590267115000,25.306114990234374,3.0125136375427246,-4.988327980041504,-0.7381784915924072
1757614590277070300,25.3160703125,3.4389233589172363,-5.759478092193604,-0.9162999987602234
1757614590287025200,25.326025146484376,3.9652695655822754,-6.23504638671875,-1.0702441930770874
1757614590296981000,25.33598095703125,4.649203300476074,-6.347851276397705,-1.3116956949234009
1757614590306936300,25.345936279296875,5.66886043548584,-6.171685695648193,-1.7623010873794556
1757614590316891100,25.35589111328125,7.223611354827881,-5.655148983001709,-2.388785123825073
1757614590326847000,25.365846923828126,8.03682804107666,-4.974297523498535,-2.3266043663024902
1757614590336802300,25.37580224609375,6.0040669441223145,-4.678589820861816,-1.3515220880508425
1757614590346757000,25.385757080078125,3.3603553771972656,-4.452633857727051,-0.7953838109970093
1757614590356712200,25.395712158203125,2.31322979927063,-3.232922077178955,-0.8510236144065857
1757614590366668300,25.405668212890625,2.546778440475464,-1.9298540353775024,-1.0940272808074951
1757614590376623000,25.415623046875,2.953386783599853,-1.63931143283844,-1.156115174293518
1757614590386578200,25.425578125,2.9450066089630127,-2.1572635173797607,-1.075517177581787
1757614590396534300,25.4355341796875,2.665977001190185,-2.567233800888061,-1.035937786102295
