time,seconds_elapsed,z,y,x
1758280579047988200,64.80598828125,-2.9535470230102536,9.171438372039797,-2.201019513702392
1758280579058074000,64.81607421875,-3.028515462493896,9.12894129257202,-2.387168692779541
1758280579068159000,64.82615893554687,-3.1777041534423827,9.061754008483886,-2.589478733062744
1758280579078245000,64.8362451171875,-3.3533787002563478,8.985588468170166,-2.793135511779785
1758280579088330000,64.846330078125,-3.572448152160644,8.904035974121093,-3.00053323059082
1758280579098416000,64.856416015625,-3.796754920196533,8.854655564880371,-3.1516672103881835
1758280579108501200,64.86650122070313,-3.960907371520996,8.863035270690917,-3.2990602500915527
1758280579118587100,64.87658715820312,-4.070292459869385,8.898649020385742,-3.4694974807739256
1758280579128672000,64.88667211914063,-4.058471089172363,8.926182339477538,-3.6248213134765614
1758280579138758100,64.89675805664062,-3.8798037902832023,9.023895694732666,-3.7509658134460446
1758280579148843000,64.90684301757813,-3.601477847290039,9.21213980026245,-3.90045377960205
1758280579158929200,64.91692919921876,-3.2248399986267087,9.425822298431395,-4.079420353698731
1758280579169014000,64.92701391601562,-2.816179702758789,9.727042794799804,-4.221576077270508
1758280579179100200,64.93710009765626,-2.436698739624023,10.141838232421874,-4.311358639526367
1758280579189185000,64.94718505859375,-2.0259435173034666,10.576535471343991,-4.345326375579834
1758280579199271200,64.95727124023438,-1.582118384552002,10.91082587814331,-4.292803576660156
1758280579209356000,64.96735595703124,-1.1751041023254394,10.896610305786131,-4.141071046447753
1758280579219442200,64.97744213867188,-0.7662941688537597,10.398167447662352,-3.867982419586181
1758280579229527000,64.98752709960938,-0.4571428794860839,9.882216989898682,-3.503914129638672
1758280579239613200,64.99761328125,-0.2395698036193847,9.916783276367187,-3.149871559143066
1758280579249698000,65.00769799804688,-0.0724246002197265,10.531644190216063,-2.8371289672851563
1758280579259784000,65.01778393554687,0.08933364944458,11.461791535186768,-2.5775077247619627
1758280579269869000,65.027869140625,0.3253121505737305,12.360963896179198,-2.485480598449707
1758280579279955200,65.037955078125,0.6106710609436035,13.133393206787108,-2.437147652435302
1758280579290040000,65.0480400390625,0.9638158058166504,13.488034327697752,-2.3783400741577148
1758280579300126000,65.0581259765625,1.283741002655029,13.140426174163816,-2.307112574768066
1758280579310211000,65.06821118164062,1.504007555389404,12.088922732543944,-2.20221661453247
1758280579320297000,65.078296875,1.604414387512207,10.72512561187744,-2.0691887847900388
1758280579330382000,65.08838208007812,1.3842974723815915,9.466823001861572,-1.980453685760498
1758280579340468200,65.09846826171875,0.8436568099975585,8.511985452270507,-1.9683330398559569
1758280579350553000,65.10855297851562,-0.0200514389038085,7.744943095397948,-2.065447844696045
1758280579360639000,65.11863891601563,-1.0052654220581054,7.111527118682861,-2.205807917022705
1758280579370724000,65.12872412109375,-1.818545798492432,6.62026686553955,-2.3368904579162595
1758280579380810000,65.13881005859375,-2.3246201744079587,6.301089856719971,-2.4444798950195312
1758280579390895000,65.14889501953125,-2.6198551666259764,6.159233408355712,-2.563441790008545
1758280579400981200,65.15898120117187,-2.785503993988037,6.165817462921142,-2.778321389007568
1758280579411066000,65.16906616210937,-2.84086990737915,6.300790581512451,-3.1575030769348142
1758280579421151700,65.17915185546875,-2.708739903259277,6.336553968811034,-3.668066580963135
1758280579431236900,65.18923681640625,-2.4869769744873045,6.357952146148682,-4.137779019165039
1758280579441322500,65.19932250976562,-2.2987328689575195,6.4935238151550285,-4.410269095611572
1758280579451407600,65.20940771484375,-2.1344307800292968,6.881983034515381,-4.443189368438721
1758280579461493800,65.21949365234374,-1.8915689491271968,7.442375860595702,-4.252551061248779
1758280579471578600,65.22957861328125,-1.6594810256958006,8.102576968383788,-3.886387844848632
1758280579481664800,65.23966479492188,-1.416020644378662,8.79824218826294,-3.3476924713134766
1758280579491749600,65.24974951171875,-1.070657054901123,9.4098110748291,-2.811690574645996
1758280579501835500,65.25983544921876,-0.630722499847412,9.857975698089598,-2.314594454956054
1758280579511920600,65.26992065429687,-0.1243488487243652,10.122983894348144,-1.905784521484375
1758280579522006500,65.28000659179688,0.3939958106994629,10.232368982696531,-1.663670878601074
1758280579532091600,65.29009155273438,0.8333318153381347,10.155155979156492,-1.4827590156555177
1758280579542177800,65.300177734375,1.122431665802002,10.041581037902832,-1.2993033134460448
1758280579552262700,65.3102626953125,1.2297218276977535,9.92785645904541,-1.1444283935546875
1758280579562348500,65.3203486328125,1.244386312866211,9.753977563476562,-0.9796773918151856
1758280579572433700,65.33043359375,1.1424831047058104,9.541342528533937,-0.8168716789245605
1758280579582519600,65.34051953125,0.9181763366699218,9.336189373779296,-0.6974608711242676
1758280579592604700,65.35060473632812,0.563086302947998,9.266308612823488,-0.6096235977172851
1758280579602690800,65.36069091796875,0.2187701766967773,9.272443754577637,-0.6268319221496582
1758280579612775700,65.37077563476562,-0.0577601150512695,9.360281027984618,-0.7035960128784179
1758280579622861600,65.38086157226563,-0.2769792045593262,9.579649755096437,-0.8090905235290526
1758280579632946700,65.39094677734376,-0.3714005325317382,9.90810429534912,-0.9560346504211426
1758280579643032600,65.40103247070313,-0.4352957893371582,10.255113898468016,-1.1616367179870606
1758280579653117700,65.41111767578126,-0.4067150070190429,10.5084503616333,-1.4417583122253417
1758280579663203800,65.42120385742187,-0.2738368148803711,10.574889457702636,-1.7565958305358886
1758280579673288700,65.43128881835938,-0.096366616821289,10.4057989654541,-2.0132243209838867
1758280579683374600,65.44137451171875,0.0134673843383789,10.101884992218016,-2.1835119140625
1758280579693459500,65.45145947265625,0.0281318695068359,9.839719910430908,-2.24082311630249
1758280579703545600,65.46154565429687,0.0182557876586914,9.62723451309204,-2.233490873718261
1758280579713630700,65.47163061523437,-0.0511760604858398,9.431209252166749,-2.1416133850097654
1758280579723716600,65.48171655273437,-0.1496376037597656,9.249399563598631,-1.9653402877807613
1758280579733801700,65.4918017578125,-0.2267009696960449,9.037512716674804,-1.7226280944824215
1758280579743887600,65.5018876953125,-0.218919814300537,8.83505303878784,-1.4718354705810546
1758280579753972500,65.51197241210937,-0.1324292793273925,8.643367268371582,-1.3423989433288577
1758280579764058600,65.52205859375,-0.0202010765075683,8.448090195465088,-1.3028946159362793
1758280579774143700,65.53214379882813,0.0677858345031738,8.276904776763915,-1.438316647338867
1758280579784229600,65.54222973632812,0.16594810256958,8.184428737640381,-1.6630723281860351
1758280579794314500,65.552314453125,0.2047042419433593,8.180987072753906,-1.958606595611572
1758280579804400600,65.56240063476562,0.218919814300537,8.270021446990967,-2.301725621032715
1758280579814485500,65.57248559570313,0.2427121932983398,8.311471063232421,-2.597259888458252
1758280579824571600,65.58257153320312,0.240018716430664,8.27421129989624,-2.7864018196105955
1758280579834656800,65.59265673828125,0.2995744827270508,8.189516416168212,-2.8645126487731933
1758280579844742700,65.60274267578124,0.367061042022705,8.099584216308592,-2.901173861694336
1758280579854827500,65.61282763671875,0.3857657424926757,8.109310660552978,-2.9646202056884765
1758280579864913700,65.62291357421876,0.3889081321716308,8.15195737762451,-3.002179244232177
1758280579874998500,65.63299853515625,0.3936965354919433,8.20298380050659,-3.0174422798156737
1758280579885084700,65.64308471679688,0.3812766143798828,8.282890280914307,-3.0493150894165035
1758280579895169800,65.65316967773437,0.3233668617248535,8.501959732818603,-3.071461454772949
1758280579905255700,65.66325561523438,0.2554313896179199,8.890568589782715,-3.028665100097656
1758280579915340500,65.67334057617188,0.1720832443237304,9.515455223083496,-2.9212253005981443
1758280579925426700,65.6834267578125,0.0543184501647949,10.27845736465454,-2.801664855194092
1758280579935511600,65.69351147460938,-0.0553659133911132,10.885986035919188,-2.6617536956787107
1758280579945597700,65.70359765625,-0.0932242271423339,11.030087048339842,-2.510170803070068
1758280579955682600,65.7136826171875,0.0401028778076171,10.83436106262207,-2.220472402191162
1758280579965768400,65.7237685546875,0.1933317840576171,11.0064443069458,-1.8339584716796875
1758280579975853600,65.733853515625,0.2428618309020996,11.788300786590575,-1.5316905120849609
1758280579985939700,65.74393969726563,0.1909375823974609,12.695703215789797,-1.4456488899230957
1758280579996024600,65.75402465820312,0.1149216796875,13.009193995666504,-1.5599720191955566
1758280580006110700,65.76411083984375,0.093822777557373,12.421567125701904,-1.681627391052246
1758280580016195600,65.77419555664062,0.1620575248718261,11.502492963409424,-1.6772879005432129
1758280580026281500,65.78428149414063,0.2328361114501953,10.851569387054443,-1.5707459266662598
1758280580036366600,65.79436669921876,0.2325368362426757,10.461164878845214,-1.485602130126953
1758280580046452500,65.80445239257813,0.0778115539550781,10.081983190917969,-1.383399646759033
1758280580056537600,65.81453759765625,-0.249595523071289,9.727342070007325,-1.221342121887207
1758280580066623700,65.82462377929687,-0.735468822479248,9.604938510131836,-1.0179846183776855
1758280580076708600,65.83470849609375,-1.3584101669311524,9.801412683868408,-0.8409633331298828
1758280580086794500,65.84479443359375,-1.9725228927612304,10.284742144012451,-0.7653963432312011
1758280580096879600,65.85487963867187,-2.522740361785889,10.815955637359618,-0.8943839576721191
1758280580106965500,65.86496557617187,-2.868253588867187,11.146056191253662,-1.186177285003662
1758280580117050600,65.87505053710937,-2.96207636642456,11.168801107025146,-1.6994342658996582
1758280580127136800,65.88513671875,-2.855235117340088,10.947487091064453,-2.218078200531006
1758280580137221600,65.8952216796875,-2.638859142303467,10.640131452941894,-2.606088507080078
1758280580147307500,65.9053076171875,-2.441786418151856,10.481066680145265,-2.795380075836181
1758280580157392600,65.915392578125,-2.261622743225097,10.492738413238524,-2.759616688537597
1758280580167478500,65.925478515625,-2.109291662597656,10.593893433380126,-2.5469816535949708
1758280580177563600,65.93556372070313,-2.027140618133545,10.69938794403076,-2.24067347869873
1758280580187649800,65.94564990234375,-1.9774609336853024,10.753257481384276,-1.89620771484375
1758280580197734700,65.95573461914063,-1.956810944366455,10.736348432159422,-1.5429133323669433
1758280580207820500,65.96582055664062,-2.014122146606445,10.660482167053225,-1.2316671165466309
1758280580217905400,65.97590551757813,-2.11318224029541,10.51488477859497,-0.9935936889648436
1758280580227991600,65.98599145507812,-2.273593751525879,10.225186377716064,-0.8406640579223632
1758280580238076700,65.99607666015625,-2.4576480041503905,9.798419931793212,-0.8159738533020019
1758280580248162800,66.00616284179688,-2.5815479400634764,9.260472746276855,-0.8222586326599121
1758280580258247700,66.01624755859375,-2.712780118560791,8.675090440368653,-0.9087491676330566
1758280580268333600,66.02633349609376,-2.787299645233154,8.12786572341919,-0.9994295555114744
1758280580278418400,66.03641845703125,-2.8185739044189453,7.697059062194824,-1.0860697280883789
1758280580288504600,66.04650463867188,-2.814234413909912,7.40526573486328,-1.1550526634216307
1758280580298589700,66.05658959960938,-2.813486225891113,7.307402742004394,-1.2322656669616698
1758280580308675600,66.06667553710938,-2.816927890777588,7.3466077941894525,-1.328632283782959
1758280580318760700,66.0767607421875,-2.823212670135498,7.479037073516845,-1.4788684379577637
1758280580328846600,66.0868466796875,-2.845508673095703,7.650222492218017,-1.6795324645996093
1758280580338931500,66.09693139648438,-2.8989292976379395,7.83951406097412,-1.937657331085205
1758280580349017600,66.107017578125,-2.8854619132995603,7.962665808868408,-2.243366955566406
1758280580359102700,66.11710278320312,-2.8871079269409177,8.024316501617431,-2.5668834548950192
1758280580369188600,66.12718872070313,-2.982127805328369,8.143727309417724,-2.845508673095703
1758280580379273700,66.13727368164062,-3.146130619049072,8.327482286834716,-3.1516672103881835
1758280580389359600,66.14735961914063,-3.386149335479736,8.596231423187255,-3.4304420661926267
1758280580399444500,66.15744458007812,-3.579630757141113,8.91870045928955,-3.698592652130127
1758280580409530600,66.16753051757813,-3.657442311096191,9.072827191162109,-3.952677303314209
1758280580419616300,66.1776162109375,-3.5775358306884764,8.95655877304077,-4.091241724395752
1758280580429702400,66.18770239257813,-3.45378553237915,8.806023343658447,-4.139873945617675
1758280580439787300,66.19778735351562,-3.4262522132873534,8.83654941482544,-4.1566333572387695
1758280580449873400,66.20787329101563,-3.539976792144776,9.1416604888916,-4.246266281890869
1758280580459958300,66.21795825195312,-3.713706050109863,9.573364975738524,-4.408473444366455
1758280580470044400,66.22804443359375,-3.788973764801025,9.96601404800415,-4.5968671875
1758280580480129300,66.23812939453126,-3.713406774902344,10.20169327392578,-4.810400048065185
1758280580490215400,66.24821533203125,-3.471143494415283,10.39293013153076,-4.909909054565429
1758280580500300300,66.25830029296876,-3.2644939636230466,10.663325281524658,-4.792443535614013
1758280580510386200,66.26838623046875,-3.196558491516113,10.837054539489746,-4.615422250366211
1758280580520471300,66.27847119140625,-3.2404023094177243,10.914716455841065,-4.44363828125
1758280580530557400,66.28855737304687,-3.2326211540222167,10.880599082183837,-4.2874166229248045
1758280580540642300,66.29864233398438,-3.034500966644287,10.86563532180786,-4.22022933883667
1758280580550728400,66.308728515625,-2.768146031951904,10.859051267242432,-4.219032238006592
1758280580560813300,66.31881323242187,-2.5834932289123533,11.037419290924072,-4.223371728515625
1758280580570899200,66.32889916992187,-2.671929052734374,11.519701287841796,-4.2773909034729005
1758280580580984300,66.338984375,-2.8926445182800293,12.103587217712402,-4.52638787612915
1758280580591070500,66.34907055664063,-3.088071228790283,12.681786918640135,-5.093664031982422
1758280580601155300,66.3591552734375,-3.127874831390381,13.173645722198486,-5.966200899505615
1758280580611241200,66.3692412109375,-3.199251968383789,13.357251062011718,-7.108384729003906
1758280580621327400,66.37932739257812,-3.318363500976562,12.88334877090454,-8.26732797012329
1758280580631412200,66.389412109375,-3.475632622528076,11.850400392150878,-9.186252494812011
1758280580641498400,66.39949829101562,-3.661931439208984,10.499921018218991,-9.654917469787597
1758280580651583500,66.40958349609375,-3.934571153259277,9.19358473739624,-9.624690673828123
1758280580661669400,66.41966943359375,-4.198082973480225,8.12741681060791,-9.413402377319336
1758280580671754200,66.42975415039062,-4.319588707733154,7.285705289459228,-9.166949243927002
1758280580681840400,66.43984033203125,-4.433762199401855,6.642263593292236,-8.926930527496337
1758280580691925200,66.44992529296874,-4.52683678894043,6.29525399017334,-8.56750100326538
1758280580702011400,66.46001147460937,-4.441842630004882,6.368726053619384,-8.009652016448975
1758280580712096500,66.47009643554688,-3.966443962860107,6.945878291320801,-7.368903797149658
1758280580722182400,66.48018237304687,-3.197306679534912,7.771877864074707,-6.856395004272461
1758280580732267300,66.49026733398438,-2.452261050415039,8.422951078033448,-6.701968997192383
1758280580742353400,66.500353515625,-1.8556559242248531,8.646958570861816,-6.817489227294922
1758280580752438300,66.51043823242188,-1.508047770690918,8.4145713722229,-6.836642840576172
1758280580762524400,66.5205244140625,-1.2123638656616211,7.936329590606689,-6.534225243377685
1758280580772609300,66.530609375,-0.8014590057373047,7.541136679077148,-5.878812538909912
1758280580782695200,66.54069506835937,-0.5003881469726562,7.338826638793945,-5.1523219726562495
1758280580792780300,66.5507802734375,-0.2683002235412597,7.246649874877929,-4.581903427124023
1758280580802866200,66.5608662109375,-0.0190039756774902,7.108684004211425,-4.224868104553223
1758280580812951300,66.57095141601563,0.2358288635253906,6.896348244476318,-4.037521824645996
1758280580823037400,66.58103735351563,0.3657143035888671,6.623109980010986,-3.930381300354004
1758280580833122300,66.59112231445313,0.4930559043884277,6.451774923706054,-3.822941500854492
1758280580843208200,66.60120825195312,0.4771943183898925,6.386383290863037,-3.695450262451172
1758280580853293300,66.61129321289063,0.4447229583740234,6.391470969390869,-3.5154362251281737
1758280580863379200,66.62137915039062,0.3694552436828613,6.425438705444336,-3.3075895935058592
1758280580873464300,66.63146435546875,0.2195183647155761,6.41616117401123,-3.121141139221191
1758280580883550500,66.64155053710938,0.0878372734069824,6.28223551864624,-2.940678189086914
1758280580893635300,66.65163525390625,-0.0175075996398925,6.070199034118652,-2.71322903137207
1758280580903721200,66.66172119140624,-0.079756842803955,5.852177045440674,-2.468122636413574
1758280580913806300,66.67180639648437,-0.0894832870483398,5.65615178451538,-2.2746412147521973
1758280580923892200,66.68189233398438,-0.1068412490844726,5.494842447662354,-2.0644003814697265
1758280580933977300,66.69197729492187,-0.1387140586853027,5.427954438781738,-1.8908207611083985
1758280580944063500,66.7020634765625,-0.2299929969787597,5.414487054443359,-1.7857751632690428
1758280580954148400,66.7121484375,-0.3215712104797363,5.469553692626953,-1.7242741081237791
1758280580964234200,66.72223413085938,-0.4821323593139648,5.577741680145263,-1.7417817077636717
1758280580974319000,66.73231909179688,-0.6610989334106445,5.754762965393066,-1.7977461715698242
1758280580984405200,66.7424052734375,-0.8629600608825683,6.002263562011718,-1.8251298530578608
1758280580994491400,66.75249145507813,-0.9992799179077148,6.336553968811034,-1.8938135131835936
1758280581004576500,66.76257641601562,-1.0326491035461425,6.59512774810791,-1.9801544105529785
1758280581014662100,66.772662109375,-0.9195230751037596,6.7465610031127925,-2.1422119354248044
1758280581024747300,66.78274731445312,-0.6192004043579101,6.806116769409179,-2.356343346405029
1758280581034833400,66.79283349609375,-0.184503165435791,6.864325797271728,-2.6316765373229978
1758280581044918300,66.80291821289063,0.2896984008789062,7.021445281219482,-2.896984008789062
1758280581055004400,66.81300439453125,0.7429507026672363,7.310844406890869,-3.1783027038574216
1758280581065089300,66.82308935546875,1.1284171699523926,7.676558710479735,-3.4632127014160154
1758280581075175200,66.83317504882812,1.395669930267334,8.061276989746093,-3.715052788543701
1758280581085260300,66.84326025390625,1.6047136627197265,8.531587978363037,-3.902099793243408
1758280581095346400,66.85334643554687,1.6668132682800292,9.12834274215698,-4.064456593322753
1758280581105431300,66.86343139648437,1.7037737564086912,9.683049339294431,-4.351461517333984
1758280581115517400,66.87351733398438,1.756446192932129,9.90241806640625,-4.698171845245361
1758280581125602300,66.88360229492187,1.802534574890137,9.891943434143066,-5.048623113250732
1758280581135688200,66.89368823242188,1.8426374526977536,9.801263046264648,-5.2371664939880365
1758280581145773300,66.90377319335937,1.8400936134338377,9.686491004180908,-5.271283867645264
1758280581155859200,66.91385913085938,1.958905870819092,9.44871685180664,-5.26065959777832
1758280581165944300,66.9239443359375,2.015468885040283,9.252541953277587,-5.242703085327149
1758280581176030500,66.93403051757812,1.8522142593383788,9.481038574218749,-5.24105707168579
1758280581186115300,66.944115234375,1.4606126502990722,10.369736302947995,-5.294776971435547
1758280581196201200,66.954201171875,0.933289734649658,11.540800189971923,-5.434538493347167
1758280581206286300,66.96428637695313,0.3667617668151855,12.593800007629394,-5.653907220458984
1758280581216372200,66.97437231445312,0.0199018013000488,13.373561560821532,-5.9588686569213865
1758280581226457300,66.98445727539062,-0.196623811340332,13.967173934936522,-6.390124230957031
1758280581236543500,66.99454345703126,-0.5108627792358398,14.342764320373536,-6.982539504241943
1758280581246628400,67.00462841796875,-1.055244381713867,14.173673828125,-7.590367450714111
1758280581256714200,67.01471435546875,-1.53857384185791,13.187562019348144,-8.035090409088134
1758280581266799400,67.02479931640624,-1.85161570892334,11.565191119384766,-8.07683930053711
1758280581276885200,67.03488525390625,-2.1314380279541014,9.949254636383056,-7.715464487457275
1758280581286970400,67.04497045898438,-2.4115596221923825,8.850914624786377,-7.085639813232421
1758280581297056500,67.05505639648437,-2.7123312057495115,8.35127466583252,-6.324882235717773
1758280581307142100,67.06514208984375,-3.072209642791748,8.296656940460204,-5.516839175415039
1758280581317227300,67.07522729492187,-3.483264140319824,8.482806119537353,-4.691737428283691
1758280581327313400,67.0853134765625,-3.958962082672119,8.768165029907227,-3.937563905334472
1758280581337398300,67.09539819335937,-4.382137226104736,9.016713089752196,-3.394529041290283
1758280581347484400,67.105484375,-4.656123678588867,9.222165519714355,-3.1757588645935058
1758280581357569500,67.11556958007813,-4.8389808303833,9.25718071899414,-3.3514334114074704
1758280581367655200,67.1256552734375,-4.739471823883056,9.112032243347167,-3.757250592803955
1758280581377740300,67.135740234375,-4.364180713653564,8.81006355895996,-4.219032238006592
1758280581387826400,67.14582641601562,-3.736899878692627,8.563610425567626,-4.569483506011963
1758280581397911300,67.15591137695313,-3.0726585556030277,8.352771041870117,-4.806808745574951
1758280581407997400,67.16599755859374,-2.597409526062012,8.143428034210205,-4.836137715911865
1758280581418081800,67.17608178710938,-2.399738251495361,7.89697490081787,-4.703858074188232
1758280581428168000,67.18616796875,-2.356642621612549,7.644236988067626,-4.3634325256347655
1758280581438252800,67.19625268554688,-2.411260346984863,7.41244833984375,-3.937563905334472
1758280581448338700,67.20633862304688,-2.452859600830078,7.230040100860595,-3.4893992820739745
1758280581458423800,67.216423828125,-2.428468671417236,7.047182949066162,-3.0439281356811523
1758280581468510000,67.22651000976562,-2.295740116882324,6.797437788391113,-2.637512403869629
1758280581478594800,67.2365947265625,-2.0491373458862303,6.508188300323486,-2.277185054016113
1758280581488681000,67.24668090820313,-1.737292579650879,6.261585529327392,-1.9608511596679683
1758280581498765800,67.25676586914062,-1.3971663063049315,6.005705226898193,-1.6795324645996093
1758280581508851700,67.26685180664063,-1.1420341918945311,5.844395890045166,-1.4088380393981932
1758280581518936800,67.27693676757812,-0.971746598815918,5.703886180114746,-1.1745055519104004
1758280581529023000,67.28702294921875,-0.876577082824707,5.63101266708374,-0.9567828384399414
1758280581539108900,67.29710888671875,-0.8189666053771972,5.629965203857422,-0.7963713272094726
1758280581549194000,67.30719409179687,-0.8200140686035156,5.692064809417724,-0.692073917388916
1758280581559279900,67.31727978515624,-0.8403647827148437,5.781099183654785,-0.6380547424316406
1758280581569364700,67.32736474609375,-0.8358756546020507,5.869385369873046,-0.6328174263000488
1758280581579451000,67.33745092773438,-0.8641571617126464,5.947795474243164,-0.6570587181091309
1758280581589536000,67.34753588867187,-0.8432078971862792,5.997924071502685,-0.6750152305603027
1758280581599622000,67.35762182617188,-0.7924807495117187,6.114192489624023,-0.6982090591430664
1758280581609706800,67.36770678710937,-0.7598597518920898,6.367528952789306,-0.7103297050476074
1758280581619793000,67.37779296875,-0.7849988693237304,6.86312869644165,-0.6733692169189452
1758280581629877800,67.38787768554687,-0.8361749298095703,7.61670366897583,-0.6833949363708496
1758280581639964000,67.3979638671875,-0.8496423141479492,8.446893094635008,-0.7933785751342773
1758280581650048800,67.408048828125,-0.9015665626525878,9.176825325775146,-0.999728830718994
1758280581660135000,67.41813500976562,-1.067963578033447,9.878027136993408,-1.148318971252441
1758280581670219800,67.4282197265625,-1.2014403205871582,10.722282497406006,-1.313219610595703
1758280581680305700,67.4383056640625,-1.248127252960205,11.757176165008543,-1.5966332321166992
1758280581690390800,67.44839086914062,-1.2116156776428222,12.843395530700684,-2.0542250244140625
1758280581700477000,67.45847680664062,-1.1869254730224608,13.90447577896118,-2.639906605529785
1758280581710561800,67.46856176757812,-1.281945351409912,14.653561623382569,-3.4023101966857907
1758280581720648000,67.47864794921875,-1.5490484741210937,14.994735359954833,-4.2305543334960936
1758280581730733800,67.48873388671875,-1.9680337646484372,15.179388162994384,-4.908562316131592
1758280581740818700,67.49881860351563,-2.41949041519165,15.688604928588866,-5.301660301208496
1758280581750904800,67.50890478515625,-2.96207636642456,16.722151857757567,-5.652111569213867
1758280581760990000,67.51898999023437,-3.538330778503418,17.181389663696287,-6.280290229797363
1758280581771075800,67.52907592773437,-3.221547971343994,16.55545556716919,-6.996156526184081
1758280581781160700,67.53916064453125,-2.319382858276367,15.597475627899168,-7.33568424911499
1758280581791246800,67.54924682617188,-1.963694274139404,14.835969862365722,-7.035211940765381
1758280581801331700,67.55933178710937,-2.398241875457764,14.205995550537107,-6.401197413635254
1758280581811417900,67.56941796875,-2.921674213409424,13.40663147125244,-5.95662409286499
1758280581821503000,67.5795029296875,-3.135356711578369,12.43069501953125,-6.0154316711425775
1758280581831588900,67.5895888671875,-3.085976302337646,11.436053867340089,-6.400449225616455
1758280581841673700,67.599673828125,-2.995445552062988,10.5344873046875,-7.049726788330077
1758280581851759900,67.609759765625,-3.011307138061523,9.740210903930665,-7.858368399047851
1758280581861844700,67.6198447265625,-3.1452327934265134,9.006687370300293,-8.819041815185546
1758280581871931000,67.62993090820312,-3.400963458251953,8.147168974304199,-9.878476049804688
1758280581882016000,67.64001611328125,-3.72837053527832,7.229890463256836,-10.691157875823974
1758280581892102000,67.65010180664062,-4.045901530456542,6.458358978271484,-11.067047536468506
1758280581902186800,67.66018676757812,-4.397250624084473,5.785887586975098,-10.99447329864502
1758280581912273000,67.67027294921876,-4.811148236083984,5.290287843322754,-10.52131919555664
1758280581922358800,67.68035888671875,-5.244049823760986,4.908861591339111,-9.807697463226315
1758280581932444000,67.69044384765625,-5.681290901947021,4.591480233764648,-9.158569538116454
1758280581942529800,67.70052978515625,-5.86714080581665,4.3156981300354005,-8.698583544158936
1758280581952615000,67.71061499023438,-5.686977130889892,4.133738803863525,-8.378508709716796
1758280581962700800,67.72070068359375,-5.362113893127441,4.06011710281372,-8.08851103363037
1758280581972786000,67.73078588867187,-4.879682258605957,4.14361488571167,-7.715614125061035
1758280581982871800,67.74087182617187,-4.478204567718506,4.40473250427246,-7.145644492340088
1758280581992957000,67.75095703125,-4.2007764503479,4.882226097869872,-6.398204661560058
1758280582003042800,67.76104272460938,-3.93307477722168,5.476586660003662,-5.520280840301513
1758280582013127700,67.77112768554687,-3.550301786804199,5.966500174713135,-4.528482802581787
1758280582023213800,67.7812138671875,-3.045873424530029,6.058078388214111,-3.5048119552612302
1758280582033298700,67.79129858398437,-2.3970447746276853,5.774215853881835,-2.486228786468505
1758280582043384800,67.801384765625,-1.6078560523986816,5.358971503448486,-1.484405029296875
1758280582053470000,67.81146997070313,-0.7942764007568359,5.10728105392456,-0.5026327110290527
1758280582063555800,67.82155590820312,0.0411503410339355,5.0854339637756345,0.4611830947875976
1758280582073640700,67.831640625,0.778265177154541,5.266196189117431,1.3103764961242674
1758280582083726800,67.84172680664062,1.3766659545898436,5.5552960395812985,1.9966145469665528
1758280582093811700,67.85181176757813,1.8173486976623532,5.849333930969238,2.3068132995605466
1758280582103897900,67.86189794921874,2.152985842895508,6.011690731048583,2.15163910446167
1758280582113983700,67.87198364257813,2.3101053268432614,5.984307049560546,1.5589245559692382
1758280582124068900,67.88206884765626,2.268506072998046,5.80982960357666,0.6175543907165527
1758280582134154800,67.89215478515625,1.9809025985717768,5.688024594116211,-0.26171616897583
1758280582144239900,67.90223999023438,1.6138415565490722,5.666177503967285,-0.9271545928955076
1758280582154325800,67.91232568359375,1.372027188873291,5.769277812957763,-1.236156244659424
1758280582164411000,67.92241088867188,1.2756605720520018,5.952284602355957,-1.3645453086853023
1758280582174496800,67.93249682617187,1.2159551681518554,6.192153681182861,-1.3623007446289062
1758280582184581600,67.94258154296875,1.141136366271973,6.417657550048828,-1.4763245986938476
1758280582194667800,67.95266772460937,1.1176432624816894,6.691644002532959,-1.7462708358764647
1758280582204753000,67.9627529296875,1.08532154006958,6.994360874938964,-2.1535843933105467
1758280582214838800,67.9728388671875,1.131260284423828,7.355137137603759,-2.570175482177734
1758280582224924000,67.982923828125,1.2041337974548338,7.741501430511474,-2.926163341522217
1758280582235009800,67.993009765625,1.2559084083557128,8.194005544281005,-3.19221900100708
1758280582245094700,68.0030947265625,1.2412439231872558,8.694692966461181,-3.379266005706787
1758280582255180800,68.01318090820313,1.1991957565307616,9.1041014503479,-3.6064158882141113
1758280582265266000,68.02326586914063,1.2054805358886718,9.317933586120605,-3.778199857330322
1758280582275351800,68.03335180664062,1.2997522262573242,9.51201355819702,-3.8634932914733886
1758280582285437700,68.04343774414062,1.409137314605713,9.740809454345705,-3.886537482452392
1758280582295522800,68.05352270507812,1.4622586639404296,9.937732540893554,-3.947888899993896
1758280582305608700,68.06360864257813,1.4049474617004394,10.107720858764647,-4.054879786682129
1758280582315693800,68.07369384765624,1.2675801414489745,10.217554859924316,-4.264372431945801
1758280582325780000,68.08378002929688,1.1079168182373047,10.299406629180908,-4.476109641265869
1758280582335864800,68.09386474609374,0.8620622352600097,10.30494322052002,-4.676474392700195
1758280582345950700,68.10395068359375,0.5978022270202636,10.120888967895509,-4.838831192779541
1758280582356035800,68.11403588867188,0.3510498184204101,9.76130980606079,-4.9416322265625
1758280582366121700,68.12412182617187,0.1497872413635254,9.292794468688964,-5.09441222000122
1758280582376206800,68.13420678710938,-0.0399532402038574,8.797942913055419,-5.277568647003173
1758280582386293000,68.14429296875,-0.2822165206909179,8.398859423828124,-5.535843151092529
1758280582396377900,68.1543779296875,-0.594959112548828,8.023867588806151,-5.837961473083496
1758280582406463700,68.16446362304687,-0.942417628479004,7.670872481536865,-6.194847158050536
1758280582416549400,68.17454931640626,-1.2282254516601565,7.372644737243652,-6.579565437316894
1758280582426635300,68.18463525390625,-1.4284405654907226,7.247398062896728,-6.8578913803100585
1758280582436720400,68.19472045898438,-1.6033669242858886,7.193079612731933,-7.005134782409668
1758280582446806500,68.204806640625,-1.6989853530883787,7.192181787109375,-6.953509809112548
1758280582456892200,68.21489208984374,-1.7736545173645015,7.335833886718749,-6.719626234436035
1758280582466977300,68.22497729492187,-1.8882769218444824,7.772177139282226,-6.367528952789306
1758280582477063400,68.2350634765625,-2.066495307922364,8.49732096710205,-6.055384911346435
1758280582487148300,68.24514819335937,-2.307411849975586,9.38497123260498,-5.888838258361816
1758280582497234400,68.255234375,-2.4992472579956053,10.216357759094238,-5.872078846740722
1758280582507319600,68.26531958007813,-2.610727272796631,10.678438679504394,-6.104017132568359
1758280582517405200,68.2754052734375,-2.665494635772705,10.710311489105225,-6.578966886901855
1758280582527490300,68.285490234375,-2.741360900878906,10.523713397216795,-7.142801377868652
1758280582537576400,68.29557641601562,-2.8847137252807618,10.29177511138916,-7.713219923400878
1758280582547661300,68.30566137695313,-3.156455613708496,10.024671988677978,-8.122628407287598
1758280582557747500,68.31574755859376,-3.56242243270874,9.814131880187988,-8.302941719818115
1758280582567832300,68.32583227539062,-4.031536320495605,9.69846201248169,-8.199542135620117
1758280582577918200,68.33591821289062,-4.460996243286132,9.52563058013916,-7.856572747802734
1758280582588003300,68.34600341796875,-4.760421088409424,9.37838717803955,-7.440131296539306
1758280582598089500,68.35608935546875,-4.7855602058410645,9.342025240325928,-7.094019519042968
1758280582608174300,68.36617431640624,-4.613177686309815,9.38556978302002,-6.90158556060791
1758280582618260500,68.37626049804688,-4.3053731353759765,9.370755660247802,-6.756137809753418
1758280582628346400,68.38634643554687,-4.00953959274292,9.1807159034729,-6.492027439117432
1758280582638431200,68.39643115234375,-3.576638005065918,8.910769666290284,-6.045359191894531
1758280582648517400,68.40651733398437,-3.1950621154785157,8.863184908294677,-5.467907678985595
1758280582658602200,68.41660229492187,-2.871844891357421,9.00878229675293,-4.877886607360839
1758280582668688400,68.4266884765625,-2.7124808433532714,9.20031842956543,-4.290708650207519
1758280582678773500,68.4367734375,-2.6382605918884274,9.240570944976806,-3.77311217880249
1758280582688859100,68.44685913085938,-2.4806921951293943,9.081805447387694,-3.275866421508789
1758280582698944300,68.4569443359375,-2.19608147277832,8.839691804504394,-2.7519851707458494
1758280582709030400,68.46703051757812,-1.837998686981201,8.572887957000733,-2.255038688659668
1758280582719115300,68.477115234375,-1.4659996040344236,8.291868537139893,-1.818096885681152
1758280582729201400,68.48720141601562,-1.13649760055542,8.01294404373169,-1.4324807807922362
1758280582739286500,68.49728662109375,-0.8156745780944824,7.7130702857971185,-1.12362876663208
1758280582749372200,68.5073720703125,-0.5000888717651367,7.398382405090332,-0.9419687156677246
1758280582759458300,68.51745825195313,-0.2518400871276855,7.038653605651855,-0.8258499351501465
1758280582769543400,68.52754345703126,-0.0351648368835449,6.715286743927002,-0.7706336593627929
1758280582779629300,68.53762939453125,0.0655412704467773,6.477811866760254,-0.7133224571228027
1758280582789714400,68.54771435546876,0.0828992324829101,6.290315949249267,-0.6349123527526855
1758280582799800300,68.55780029296875,0.058059390258789,6.096086339569092,-0.5852326683044433
1758280582809885200,68.56788525390625,0.0194528884887695,5.885396593475342,-0.5419874008178711
1758280582819971300,68.57797143554687,-0.0366612129211425,5.627720639801025,-0.4990414085388183
1758280582830056400,68.58805639648438,-0.0712274993896484,5.42675733795166,-0.5373486351013184
1758280582840142300,68.59814233398437,-0.1244984863281249,5.25407554321289,-0.6323685134887695
1758280582850227500,68.6082275390625,-0.1984194625854492,5.220556719970703,-0.7356184600830078
1758280582860313300,68.61831323242187,-0.3504512680053711,5.362562805938721,-0.8500912269592285
1758280582870398200,68.62839819335937,-0.596305850982666,5.640290198516845,-1.0422259101867677
1758280582880484400,68.638484375,-0.9213187263488768,6.075436350250244,-1.2638392013549804
1758280582890569500,68.64856958007813,-1.3060370056152344,6.666055972290039,-1.553387964630127
1758280582900655400,68.6586552734375,-1.674594423675537,7.385812846374511,-1.904886695861816
1758280582910741200,68.6687412109375,-1.9578584075927732,8.26089355316162,-2.267757884979248
1758280582920826400,68.67882641601562,-2.185906115722656,9.115473908233644,-2.690783390808105
1758280582930912300,68.68891235351562,-2.410063246154785,9.898228213500976,-3.149422646331787
1758280582940997400,68.69899731445312,-2.645742472076416,10.670956799316404,-3.615543782043457
1758280582951083500,68.70908349609375,-2.889801403808593,11.430367638397216,-3.938162455749512
1758280582961168400,68.71916845703124,-3.15391177444458,12.09116729660034,-4.125957648468018
1758280582971254300,68.72925415039063,-3.4100913520812988,12.63405252304077,-4.357895934295654
1758280582981339400,68.73933935546874,-3.749469437408447,13.117232345581051,-4.6246997817993165
1758280582991425300,68.74942529296875,-4.275744889831543,13.58574768295288,-5.018695592498779
1758280583001510400,68.75951049804688,-4.916792384338379,13.91689570007324,-5.550208361053467
1758280583011596500,68.76959643554687,-5.555146401977539,13.877241735076904,-6.225822142028808
1758280583021681400,68.77968139648438,-6.055684186553955,13.635128092193602,-6.928819604492187
1758280583031767300,68.78976733398437,-6.395211909484863,13.469179989624022,-7.59755005569458
1758280583041853400,68.799853515625,-6.445041231536865,13.200281215667724,-8.278101877593993
1758280583051938300,68.80993823242187,-6.130652626037597,12.49354281311035,-8.784026615905761
1758280583062024400,68.8200244140625,-5.645527514648437,11.681010624694824,-8.922740674591063
1758280583072109300,68.830109375,-5.304802690887451,11.1596732131958,-8.698583544158936
1758280583082195200,68.8401953125,-5.256619382476806,10.911424428558348,-8.277652964782714
1758280583092280300,68.8502802734375,-5.032462252044677,10.455029737091063,-7.991845141601562
1758280583102366500,68.86036645507812,-4.48778137435913,9.791386964416503,-7.950545162963866
1758280583112451300,68.87045141601563,-4.027196829986572,9.170989459228515,-8.10137986755371
1758280583122537500,68.88053735351562,-3.9921816307067863,8.511835814666748,-8.347833000946045
1758280583132622300,68.89062231445313,-4.349665866088867,7.865700641632079,-8.429535132598877
1758280583142708200,68.90070825195312,-4.932653970336914,7.364713944244384,-8.259397177124024
1758280583152793300,68.91079345703125,-5.451148267364502,6.9168485961914055,-8.046612504577636
1758280583162879200,68.92087915039062,-5.691615896606445,6.433070223236084,-7.908197721099853
1758280583172964400,68.93096435546875,-5.59913985748291,5.869235732269287,-7.868394118499755
1758280583183050500,68.94105053710938,-5.20933389968872,5.45877978515625,-7.906102794647216
1758280583193136400,68.95113647460937,-4.729895017242431,5.237316131591797,-7.921066555023192
1758280583203221200,68.96122119140625,-4.217086949157714,5.269338578796386,-7.899818015289306
1758280583213307400,68.97130737304687,-3.755454941558838,5.495590635681152,-7.766790185546874
1758280583223392300,68.98139233398437,-3.5685575744628903,5.878812538909912,-7.369352709960937
1758280583233478400,68.991478515625,-3.576488367462158,6.4184057380676265,-6.779780551147461
1758280583243563500,69.0015634765625,-3.555539102935791,7.014113038635253,-6.113294664001464
1758280583253649200,69.01164916992188,-3.4663550910949703,7.395389653015136,-5.417928719329834
1758280583263734300,69.021734375,-3.082983550262451,7.296179921722412,-4.7189714721679685
1758280583273820400,69.0318203125,-2.2354361625671384,6.78651424331665,-4.082113830566406
1758280583283905300,69.0419052734375,-1.1864765602111815,6.206369253540038,-3.501220652770996
1758280583293991400,69.05199145507812,-0.2096422828674316,5.786037224578857,-3.0234277839660644
1758280583304076500,69.06207666015625,0.4435258575439453,5.649418092346191,-2.601150466156006
1758280583314162200,69.072162109375,0.6642413230895996,5.763890859222411,-2.214786173248291
1758280583324247300,69.08224731445313,0.5575497116088867,6.054636723327636,-1.8073229782104487
1758280583334333400,69.09233349609374,0.3722983581542968,6.28208588104248,-1.4915876342773438
1758280583344419300,69.10241943359375,0.2211643783569336,6.346878963470458,-1.3045406295776367
1758280583354504400,69.11250439453126,0.218321263885498,6.263979730987549,-1.348384447479248
1758280583364590300,69.12259033203125,0.2880523872375488,6.079476565551757,-1.4820108276367188
1758280583374675200,69.13267529296876,0.3818751647949218,5.863549503326416,-1.6653168922424315
1758280583384761300,69.14276123046875,0.5520131202697753,5.7070285697937,-1.8004396484374998
1758280583394846500,69.15284643554688,0.6910264541625977,5.635651432800293,-1.7932570434570312
1758280583404932400,69.16293237304687,0.6777087074279785,5.675155760192871,-1.645864003753662
1758280583415017500,69.173017578125,0.5386953735351562,5.719448490905761,-1.457021347808838
1758280583425102600,69.1831025390625,0.3321954803466797,5.768230349731445,-1.254561669921875
1758280583435187700,69.19318774414063,0.2015618522644043,5.850830307006835,-1.1694178733825682
1758280583445273600,69.20327368164062,0.1080383499145507,6.029946518707275,-1.2030863342285156
1758280583455358700,69.21335864257813,0.0475847579956054,6.267421395874023,-1.3491326354980469
1758280583465444900,69.22344482421875,-0.009576806640625,6.63328533706665,-1.5893009895324706
1758280583475530800,69.23353076171875,-0.0465372947692871,7.07396808013916,-1.8737620742797847
1758280583485615600,69.24361572265624,-0.0525227989196777,7.646481552124023,-2.136226431274414
1758280583495701800,69.25370166015625,-0.0193032508850097,8.35636234436035,-2.3690625427246093
1758280583505786600,69.26378662109374,0.1316810913085937,9.050680825805664,-2.6186580657958984
1758280583515872800,69.27387280273437,0.3892074073791504,9.523834928894042,-2.897881834411621
1758280583525958000,69.2839580078125,0.7600093894958496,9.687239192199709,-3.223044347381592
1758280583536043500,69.29404345703125,1.1525088241577148,9.645490300750732,-3.4817677642822265
1758280583546128600,69.30412866210938,1.450586930847168,9.591171850585935,-3.671807521057129
1758280583556214800,69.31421484375,1.5848118614196776,9.599102643585203,-3.745129946899414
1758280583566299600,69.32429956054688,1.582118384552002,9.644592475128173,-3.733607851409912
1758280583576385800,69.3343857421875,1.5192705909729003,9.777021754455566,-3.6445734771728513
1758280583586470700,69.344470703125,1.4480430915832518,9.904812268066406,-3.5208231788635254
1758280583596556500,69.354556640625,1.4610615631103514,9.94730934753418,-3.4406174232482907
1758280583606641700,69.3646416015625,1.541117681121826,9.986364762115478,-3.482815227508545
1758280583616727800,69.37472778320313,1.700182453918457,10.063428128051758,-3.607762626647949
1758280583626813700,69.38481372070312,1.7767969070434568,10.103082093048094,-3.834912509155273
1758280583636898800,69.39489892578125,1.686116519165039,9.992649541473387,-4.159626109313964
1758280583646984700,69.40498461914062,1.488295606994629,9.764751470947266,-4.526986426544189
1758280583657069600,69.41506958007812,1.039382795715332,9.41684404220581,-4.854992053985596
1758280583667155700,69.42515576171876,0.4317044868469238,9.406668685150146,-5.019294142913818
1758280583677240600,69.43524047851562,-0.3021183219909668,10.027365465545651,-5.12613539199829
1758280583687326700,69.44532666015625,-1.0740987197875975,10.82747773284912,-5.419125820159912
1758280583697411800,69.45541186523438,-1.6778864509582518,11.436951692962646,-5.928791498565674
1758280583707497500,69.46549755859375,-2.033275759887695,11.756128701782226,-6.577919423675537
1758280583717582600,69.47558251953124,-2.085798558807373,11.95813946685791,-7.307103466796875
1758280583727668700,69.48566870117187,-2.022950765228271,12.07964520111084,-8.020276286315918
1758280583737753600,69.49575366210938,-1.8905214859008788,11.809250051116942,-8.648754222106932
1758280583747839700,69.50583984375,-1.762730972290039,10.845733520507812,-8.966285217285156
1758280583757925600,69.51592553710938,-1.9491794265747069,9.656713121032714,-8.850166436767578
1758280583768010500,69.52601049804687,-2.441786418151856,8.95042363128662,-8.475174601745605
1758280583778096600,69.5360966796875,-3.041384296417236,8.870367513275147,-8.054692935180663
1758280583788181800,69.546181640625,-3.625719139099121,9.1561753364563,-7.6614453125
1758280583798267600,69.556267578125,-4.162020310974121,9.456946920013428,-7.15686731262207
1758280583808352800,69.56635278320313,-4.426280319213867,9.531017533874511,-6.64555562057495
1758280583818438700,69.57643872070312,-4.369567667388916,9.30207200012207,-6.327126799774169
1758280583828523500,69.5865234375,-3.991433442687988,8.95715732345581,-6.187514915466308
1758280583838609700,69.59660961914062,-3.5678093864440914,8.686762173461913,-6.132897190093994
1758280583848694800,69.60669482421875,-3.201197257232666,8.51707313079834,-5.957372280883789
1758280583858780700,69.61678076171874,-2.868702501678466,8.34349351043701,-5.622632961273193
1758280583868865800,69.62686572265625,-2.525134563446045,8.148964625549317,-5.188534272766113
1758280583878951700,69.63695166015626,-2.244264781188965,7.9581766807556145,-4.721664949035644
1758280583889037600,69.64703759765625,-2.023100402832031,7.736862664794922,-4.249857584381103
1758280583899122700,69.65712280273438,-1.885882720184326,7.4956468475341795,-3.7793969581604
1758280583909208800,69.66720874023437,-1.8306664443969725,7.287052027893066,-3.3701381118774414
1758280583919293700,69.67729370117188,-1.820790362548828,7.071424240875244,-2.990956423950195
1758280583929379600,69.68737963867187,-1.843984191131592,6.944531552886962,-2.6868928131103518
1758280583939464700,69.69746459960938,-1.897404815673828,6.887369988250732,-2.4679729988098145
1758280583949550600,69.70755053710937,-1.9197008186340327,6.841281606292724,-2.3184850326538085
1758280583959635700,69.7176357421875,-1.852663172149658,6.747458828735351,-2.267009696960449
1758280583969721900,69.72772192382813,-1.7995418228149411,6.638821928405761,-2.2073042930603024
1758280583979806700,69.737806640625,-1.703923394012451,6.529586477661132,-2.111386589050293
1758280583989892600,69.747892578125,-1.5898995399475098,6.372317356109619,-1.938405519104004
1758280583999977700,69.75797778320313,-1.4384662849426268,6.2036757766723625,-1.795202332305908
1758280584010063600,69.76806372070313,-1.2707225311279295,6.002413199615479,-1.6295535049438477
1758280584020149800,69.77814965820312,-1.117942537689209,5.824793363952637,-1.4945803863525389
1758280584030235000,69.78823486328125,-1.0039186836242675,5.678597425079345,-1.3684358863830566
