time,seconds_elapsed,z,y,x
1757954213246153200,35.0521533203125,-2.703352949523925,9.221417331695555,1.0269628746032715
1757954213256110000,35.06211010742187,-2.217330012512207,9.76744494781494,1.12377840423584
1757954213266066200,35.07206616210937,-1.8834885185241697,10.222492900848389,1.2677297790527342
1757954213276022300,35.08202221679687,-1.6467618293762205,10.456376475524902,1.4332289688110351
1757954213285978000,35.09197802734375,-1.4887445198059082,10.446949306488037,1.5723919403076172
1757954213295934200,35.10193432617187,-1.406443837738037,10.258405925750733,1.7193360671997069
1757954213305890000,35.11189013671875,-1.3078326568603516,9.936086527252195,1.7884686401367187
1757954213315846100,35.12184619140625,-1.2511200050354003,9.542090716552734,1.8160019592285157
1757954213325803000,35.13180297851562,-1.2630910133361817,9.169642720794675,1.869572221374512
1757954213335759000,35.14175903320312,-1.2633902885437012,8.793902697753905,1.9583073204040529
1757954213345715000,35.15171484375,-1.303044253540039,8.494028939819335,2.1666028648376465
1757954213355671000,35.16167114257812,-1.37262573928833,8.221688500976562,2.403778466796875
1757954213365627100,35.17162719726562,-1.4896423454284666,7.961767983245849,2.6560674667358395
1757954213375583200,35.18158325195313,-1.5610194824218748,7.759009030151367,2.8740894554138183
1757954213385539000,35.1915390625,-1.664119791412353,7.544279068756103,3.0352491546630858
1757954213395495200,35.2014951171875,-1.762581334686279,7.339574826812743,3.17935016708374
1757954213405452000,35.2114521484375,-1.899350104522705,7.177068389129638,3.320308789825439
1757954213415408000,35.221408203125,-1.9981109230041505,7.038354330444336,3.4473511154174803
1757954213425364000,35.23136401367187,-2.111985139465332,6.972064871978759,3.5660137351989745
1757954213435320000,35.24132006835937,-2.241421666717529,6.954257997131347,3.7044285186767576
1757954213445276000,35.25127587890625,-2.380435000610352,6.97161595916748,3.8242882392883297
1757954213455232300,35.26123217773438,-2.5576059234619137,7.008277172088623,3.925293621826172
1757954213465188000,35.27118798828125,-2.710834829711914,7.090577854156494,4.074781587982177
1757954213475145200,35.281145263671874,-2.852541640472412,7.131877832794189,4.263624243927001
1757954213485101300,35.291101318359374,-3.0207343070983885,7.117512622833251,4.429273071289062
1757954213495057200,35.30105712890625,-3.2043396469116208,7.063942360687255,4.530577729034423
1757954213505013200,35.31101318359375,-3.387645711517334,7.018452529144287,4.517559257507324
1757954213514969000,35.32096899414063,-3.558681492614746,7.105242339324951,4.523544761657715
1757954213524925000,35.33092504882813,-3.738396254730224,7.359925540924072,4.528482802581787
1757954213534881000,35.34088110351563,-3.9311294883728025,7.69316848449707,4.563647639465332
1757954213544837000,35.35083715820313,-4.029740669250488,7.920318367004394,4.556764309692382
1757954213554794000,35.3607939453125,-4.1301475013732905,8.033893308258056,4.516811069488525
1757954213564750000,35.37075,-4.239831864929199,8.116942178344726,4.330362615203857
1757954213574706200,35.3807060546875,-4.37300933227539,8.456469901275634,4.04739790649414
1757954213584662300,35.39066235351562,-4.431816910552978,9.125200352478029,3.716249889373779
1757954213594618000,35.4006181640625,-4.357147746276855,9.95284593887329,3.351134136199951
1757954213604574200,35.41057421875,-4.26467170715332,10.6616792678833,2.974047374725341
1757954213614530000,35.42053002929688,-4.164264875030518,11.214440576171874,2.644994284057617
1757954213624487200,35.430487060546874,-4.111891713714599,11.694926921844482,2.252345211791992
1757954213634443000,35.44044311523437,-4.115632653808594,12.102689392089845,1.801636749267578
1757954213644399000,35.45039916992187,-4.088847522735596,12.268487857055664,1.367538060760498
1757954213654355000,35.46035498046875,-4.043656966400146,12.154613640594482,1.0670657524108886
1757954213664311300,35.47031127929687,-4.018966761779785,11.923573180389404,0.9674071083068848
1757954213674267100,35.48026708984375,-3.998616047668457,11.676371858978271,0.9736918876647948
1757954213684223200,35.49022314453125,-4.030189582061768,11.408670185852053,1.0357914932250976
1757954213694179000,35.50017895507813,-4.1362826431274415,11.10206273574829,1.11075993270874
1757954213704136200,35.51013623046875,-4.267664459228516,10.681581069183348,1.1659762084960936
1757954213714092000,35.52009204101562,-4.33470210571289,10.027066190338134,1.2005424949645995
1757954213724048100,35.53004809570312,-4.414758223724365,9.25104557723999,1.239148996734619
1757954213734004000,35.54000390625,-4.478354205322265,8.520215520477294,1.3218985916137695
1757954213743960000,35.5499599609375,-4.495562529754638,8.013841869354248,1.3768155921936034
1757954213753916000,35.559916015625,-4.4379520523071285,7.794323504638672,1.484405029296875
1757954213763872300,35.56987231445312,-4.252700698852538,7.880814039611816,1.690007096862793
1757954213773828000,35.579828125,-3.968089976501465,8.206126190185547,1.9831471626281736
1757954213783785200,35.58978515625,-3.6610336135864254,8.64501328201294,2.281225269317627
1757954213793741300,35.5997412109375,-3.351283773803711,9.044396046447751,2.5387515853881832
1757954213803697200,35.609697265625,-3.1016882507324217,9.390058911132812,2.721010186767578
1757954213813653000,35.61965307617187,-2.901024224090576,9.721206928253173,2.831442738342285
1757954213823609000,35.62960913085937,-2.6910826660156246,10.081983190917969,2.913893058013916
1757954213833565000,35.63956494140625,-2.4998458084106443,10.370933403778077,2.9747955627441405
1757954213843521000,35.64952099609375,-2.2994810569763184,10.436175399017332,2.9650691184997555
1757954213853478100,35.65947802734375,-2.130989115142822,10.250175857543944,2.8100445610046383
1757954213863434000,35.66943408203125,-1.976563108062744,9.875333660125731,2.5342624572753905
1757954213873390000,35.67939013671875,-1.8396447006225585,9.405172309112547,2.167500690460205
1757954213883346200,35.68934619140625,-1.7561469177246092,8.907776914215088,1.834856297302246
1757954213893302300,35.69930224609375,-1.7054197700500486,8.417264849090575,1.5280992095947266
1757954213903258000,35.70925805664063,-1.6964415138244628,7.926453508758544,1.2817957138061522
1757954213913214200,35.71921411132813,-1.6994342658996582,7.511807708740234,1.1260229682922362
1757954213923170000,35.72917016601563,-1.6870143447875976,7.15028325805664,1.057339308166504
1757954213933127200,35.739127197265624,-1.6469114669799805,6.887220350646972,1.0691606788635253
1757954213943083300,35.749083251953124,-1.6274585784912108,6.744316439056396,1.1565490394592284
1757954213953039000,35.7590390625,-1.5771803436279297,6.686705961608887,1.2665326782226562
1757954213962995200,35.7689951171875,-1.5128361740112304,6.6976295066833496,1.4196119468688964
1757954213972951300,35.77895141601562,-1.392976453399658,6.785915692901611,1.573140128326416
1757954213982907400,35.78890747070312,-1.3034931663513185,6.889913827514648,1.731456713104248
1757954213992863200,35.79886328125,-1.1902175003051758,6.999897466278076,1.8887258346557616
1757954214002820400,35.8088203125,-1.1118073959350585,7.100154660797119,2.0361188743591305
1757954214012776200,35.818776123046874,-1.061080248260498,7.209390111541747,2.201468426513672
1757954214022732300,35.82873217773437,-0.9216180015563964,7.338078450775146,2.337489008331299
1757954214032688000,35.83868823242187,-0.8530839790344238,7.5719620254516595,2.4814403831481933
1757954214042644200,35.84864428710937,-0.840813695526123,7.820061172485351,2.673126153564453
1757954214052600000,35.85860009765625,-0.8204629814147949,8.015038970184326,2.878279308319092
1757954214062556200,35.86855615234375,-0.89378540725708,8.166322587585448,2.990357873535156
1757954214072512300,35.87851220703125,-0.9597755905151366,8.35696089477539,3.12188932723999
1757954214082469000,35.88846923828125,-1.1113584831237793,8.716988969421386,3.2351649932861326
1757954214092425200,35.89842529296875,-1.3048399047851562,9.328258580780028,3.399467082214356
1757954214102381300,35.90838134765625,-1.563563321685791,10.01060605392456,3.560028231048584
1757954214112337200,35.91833715820312,-1.8804957664489743,10.602722052001951,3.748571611785888
1757954214122293200,35.92829321289062,-2.193836908721924,10.926388188934324,3.922749782562256
1757954214132249000,35.9382490234375,-2.5157073944091795,10.945691439819337,4.005948290252685
1757954214142205200,35.948205078125,-2.786850732421875,10.893019003295898,3.943399771881104
1757954214152162000,35.958162109375,-2.9448680419921875,10.769119067382812,3.63933616104126
1757954214162118100,35.9681181640625,-3.054552405548096,10.595240171813964,3.1458313438415524
1757954214172074000,35.97807397460937,-3.059939359283447,10.67439846420288,2.6976667205810547
1757954214182030000,35.98803002929687,-2.8860604637145992,11.37021332168579,2.5954642372131347
1757954214191986200,35.99798608398437,-2.578704825592041,12.53828445663452,2.952349922180176
1757954214201942300,36.0079423828125,-2.259378179168701,13.557166900634764,3.5972879943847653
1757954214211898000,36.01789819335937,-2.046144593811035,13.890260206604005,4.276343440246582
1757954214221854200,36.02785424804687,-1.9966145469665528,13.78461605834961,4.815936639404296
1757954214231811300,36.03781127929688,-2.1121347770690915,13.779827655029296,5.174019425201416
1757954214241767200,36.04776708984375,-2.277334691619873,13.748403758239744,5.232527728271484
1757954214251723300,36.05772314453125,-2.5302222419738767,13.276596393585203,4.972307935333252
1757954214261679000,36.06767919921875,-2.9123966819763183,12.184391523742676,4.427028507232666
1757954214271635200,36.07763525390625,-3.444358363342285,10.749067628479004,3.77954659576416
1757954214281591300,36.08759130859375,-4.055179061889648,9.47460415725708,3.142240041351318
1757954214291547400,36.09754736328125,-4.50738390045166,8.450185121917723,2.55371534576416
1757954214301504300,36.10750415039063,-4.67318236541748,7.725190931701659,2.003797151947021
1757954214311460400,36.11746044921875,-4.554819020843506,7.419481307220458,1.6035165618896483
1757954214321416200,36.12741625976562,-4.075679413604736,7.638850034332275,1.4583680862426758
1757954214331372300,36.13737231445312,-3.357418915557861,8.22243668899536,1.465251416015625
1757954214341328100,36.147328125,-2.572420046234131,8.908525102233886,1.5189713157653808
1757954214351284200,36.1572841796875,-1.9150620529174804,9.514707035064696,1.490540171051025
1757954214361240000,36.16723999023438,-1.5441104331970217,9.9714010017395,1.4740800346374512
1757954214371196200,36.17719604492188,-1.4276923774719237,10.231022244262697,1.5294459480285645
1757954214381153000,36.187153076171874,-1.3967173934936523,10.312874013519286,1.622819812774658
1757954214391109000,36.197109130859374,-1.4302362167358398,10.238354486846925,1.67264913482666
1757954214401065200,36.20706518554688,-1.430685129547119,10.01105496673584,1.700781004333496
1757954214411021300,36.21702124023437,-1.408389126586914,9.664643914031982,1.7271172225952147
1757954214420977200,36.22697705078125,-1.3928268157958985,9.266158975219726,1.771559590911865
1757954214430933200,36.23693334960937,-1.3563152404785157,8.812008847808837,1.8058266021728515
1757954214440889000,36.24688916015625,-1.384147834777832,8.430582595825195,1.8713678726196288
1757954214450846200,36.25684619140625,-1.4311340423583985,8.073247998046874,1.975964557647705
1757954214460802000,36.26680200195312,-1.476474236297607,7.738658316040039,2.086546746826172
1757954214470758100,36.276758056640624,-1.528997035217285,7.523479441833496,2.2123919715881346
1757954214480714000,36.2867138671875,-1.5427636947631835,7.344812142944336,2.337189733123779
1757954214490670000,36.29667016601562,-1.629254229736328,7.2052002586364745,2.45151286239624
1757954214500626200,36.30662622070312,-1.723226644897461,7.093720243835449,2.5516204193115235
1757954214510582300,36.31658227539062,-1.8049287765502928,6.98478406829834,2.64304899520874
1757954214520538000,36.3265380859375,-1.8679262077331544,6.905326500701904,2.7109844673156736
1757954214530495200,36.3364951171875,-1.9651906501770016,6.935852571868896,2.825008321380615
1757954214540451300,36.346451416015626,-2.042104378509521,7.097161908721923,3.0238766967773434
1757954214550407200,36.3564072265625,-2.0917840629577635,7.306056003570556,3.262997587585449
1757954214560363300,36.36636328125,-2.2375310890197757,7.471854468536376,3.546411209106445
1757954214570319000,36.37631909179687,-2.334346618652344,7.591265276336669,3.762787184143066
1757954214580275200,36.38627514648437,-2.503886023712158,7.605929761505126,3.9495349136352536
1757954214590231300,36.39623120117187,-2.6179098777770995,7.62912359008789,4.098125054168701
1757954214600187400,36.4061875,-2.7852047187805176,7.694814498138427,4.168155452728271
1757954214610144300,36.416144287109375,-2.940079638671875,7.688679356384277,4.20092608795166
1757954214620100400,36.42610034179688,-3.0826842750549317,7.598298243713378,4.152892417144775
1757954214630056200,36.43605615234375,-3.219004132080078,7.471255918121337,4.067598983001709
1757954214640012300,36.44601220703125,-3.4153286682128905,7.458087808990478,4.017769660949707
1757954214649968000,36.45596801757812,-3.5998318336486816,7.540388491058349,3.9338229652404784
1757954214659924200,36.46592431640625,-3.7289690856933593,7.721749266815185,3.815459620666504
1757954214669880000,36.47588012695312,-3.8955157386779775,8.098985665893554,3.7243303199768074
1757954214679837200,36.485837158203125,-3.994725469970703,8.698882819366455,3.6557962974548337
1757954214689793000,36.49579296875,-4.0520366722106935,9.441085334014891,3.5589807678222654
1757954214699749000,36.5057490234375,-4.037372187042236,10.212616819000244,3.434033368682861
1757954214709705200,36.51570532226562,-3.9832033744812008,10.768819792175291,3.2793080863952637
1757954214719661300,36.52566137695312,-4.017620023345947,11.065401522827148,3.116203098297119
1757954214729617200,36.5356171875,-4.198531886291503,11.2615764213562,2.8938416191101077
1757954214739573200,36.5455732421875,-4.393958596801758,11.5933229888916,2.6412533439636228
1757954214749529000,36.55552905273437,-4.399794463348388,11.969661562347412,2.3329998802185057
1757954214759486200,36.565486328125,-4.309562988281249,12.070068394470214,2.058265239715576
1757954214769442000,36.57544213867188,-4.189254354858398,11.850400392150878,1.919850456237793
1757954214779398100,36.585398193359374,-4.141669596862792,11.605144359588625,1.850717883300781
1757954214789354000,36.59535400390625,-4.1666590766906735,11.362282528686524,1.7829320487976072
1757954214799310000,36.60531005859375,-4.294449590301514,11.045798996734618,1.6374842979431152
1757954214809266200,36.61526611328125,-4.471620513153076,10.613495959472656,1.5090952339172363
1757954214819222300,36.62522216796875,-4.652083463287354,10.01629228286743,1.4047978240966796
1757954214829179400,36.63517944335938,-4.779873976898193,9.316287572479249,1.4245499877929686
1757954214839135200,36.64513525390625,-4.8904561660766594,8.623166191864014,1.5275006591796874
1757954214849091300,36.65509130859375,-4.895992757415772,8.026710703277587,1.663670878601074
1757954214859047200,36.665047119140624,-4.808754034423828,7.6385507591247555,1.818096885681152
1757954214869003300,36.67500317382813,-4.672134902191162,7.505822204589843,1.9443910232543944
1757954214878958300,36.68495825195313,-4.473416164398193,7.668179004669189,2.065298207092285
1757954214888914400,36.69491455078125,-4.182520662689209,8.044367940521239,2.1184195564270016
1757954214898870300,36.704870361328126,-3.7792473205566406,8.495076403045653,2.1785738731384274
1757954214908827400,36.71482739257812,-3.355323989105224,8.967931230926514,2.236633263397217
1757954214918783500,36.72478344726562,-2.9789854156494138,9.44766938858032,2.31743756942749
1757954214928739300,36.7347392578125,-2.671929052734374,9.970353538513184,2.424877368927002
1757954214938695400,36.7446953125,-2.4283190338134766,10.414926859283447,2.5296236915588377
1757954214948651300,36.7546513671875,-2.300977433013916,10.678737954711911,2.624643569946289
1757954214958607400,36.764607421875,-2.2073042930603024,10.689212586975096,2.6780641944885253
1757954214968563200,36.77456323242188,-2.2278046447753903,10.504559783935546,2.6683377502441403
1757954214978519300,36.784519287109376,-2.2991817817687985,10.10667339553833,2.6313772621154783
1757954214988476200,36.79447607421875,-2.376993335723877,9.533411735534669,2.52184253616333
1757954214998432500,36.8044326171875,-2.430563597869873,8.936956246948242,2.383278115081787
1757954215008388400,36.81438842773437,-2.4060230308532717,8.369380815887451,2.225709718322754
1757954215018344400,36.82434448242188,-2.286013672637939,7.850886518859863,2.076521027374268
1757954215028300300,36.83430029296875,-2.137273894500732,7.438335645294189,1.9871873779296876
1757954215038256400,36.84425634765625,-1.9412486335754395,7.070825690460205,1.9717747047424317
1757954215048212200,36.854212158203126,-1.7094599853515624,6.814346837615966,1.9446902984619137
1757954215058168300,36.86416821289063,-1.4903905334472656,6.6647092338562,1.9065327095031737
1757954215068125200,36.87412524414062,-1.32144967880249,6.622511429595947,1.8751088127136228
1757954215078081300,36.88408129882812,-1.1354501373291015,6.711994716644287,1.862239978790283
1757954215088037400,36.89403735351563,-0.9802759422302244,6.89500150604248,1.8785504776000976
1757954215097993500,36.90399340820313,-0.8542810798645019,7.134421672058105,1.9188029930114745
1757954215107949300,36.91394921875,-0.7454945419311523,7.313986796569824,2.048838070678711
1757954215117905400,36.92390551757813,-0.6715735656738281,7.424568985748291,2.152387292480469
1757954215127861200,36.933861328125,-0.6914753669738769,7.495497209930419,2.303521272277832
1757954215137818400,36.943818359375,-0.7511807708740234,7.43743781967163,2.4727614021301267
1757954215147774200,36.95377416992188,-0.8037035697937012,7.309198393249511,2.6405051559448243
1757954215157730300,36.96373022460938,-0.7688380081176758,7.194127075958251,2.794332612609863
1757954215167686100,36.97368603515625,-0.828693049621582,7.138162612152099,2.8841151748657223
1757954215177642200,36.98364233398438,-0.9530418983459472,7.15073217086792,3.011007862854004
1757954215187598300,36.99359838867188,-1.0598831474304198,7.285555651855469,3.2083798622131345
1757954215197554400,37.00355444335938,-1.1653776580810546,7.625831562805176,3.444956913757324
1757954215207510300,37.01351025390625,-1.311274321746826,8.221538863372801,3.820098386383056
1757954215217467400,37.02346728515625,-1.4921861846923827,9.0773163192749,4.31584776763916
1757954215227423500,37.03342358398437,-1.7353472908020018,9.94701007232666,4.884919574737548
1757954215237379300,37.04337939453125,-2.0159177978515626,10.495282252502442,5.340117165374756
1757954215247335400,37.05333544921875,-2.3644237770080565,10.593893433380126,5.518485189056396
1757954215257291300,37.06329125976563,-2.7570728492736816,10.463110167694092,5.485116003417969
1757954215267247000,37.0732470703125,-3.187879510498046,10.24074868850708,5.23537084274292
1757954215277203200,37.083203125,-3.4482489410400388,10.046369441223144,4.876839144134522
1757954215287159300,37.0931591796875,-3.603572773742676,9.8970311126709,4.368220928955078
1757954215297116200,37.1031162109375,-3.705027069091797,10.08751978225708,3.733458213806152
1757954215307072500,37.11307250976562,-3.545663021087646,11.142764163970948,3.3500866729736325
1757954215317028400,37.1230283203125,-3.2288802139282224,12.721889796447751,3.51154564743042
1757954215326984400,37.132984375,-2.922123126220703,13.911957659149168,3.978414971160889
1757954215336940300,37.14294018554688,-2.760065601348877,14.320318679809567,4.445583570098877
1757954215346896400,37.152896484375,-2.837877155303955,14.416685296630858,4.772841009521484
1757954215356852200,37.16285229492188,-3.1024364387512207,14.356979892730712,4.829703298950195
1757954215366808300,37.172808349609376,-3.4694974807739256,13.82801096343994,4.529530265808106
1757954215376765200,37.18276513671875,-3.858854525756836,12.681188368225095,3.9456443359375
1757954215386721300,37.19272119140625,-4.185812689971924,11.305569876861572,3.265242151641845
1757954215396677400,37.20267749023437,-4.422389741516113,10.124180995178222,2.6044424934387207
1757954215406633500,37.21263354492187,-4.50050057067871,9.229198487091065,2.0362685119628905
1757954215416589300,37.22258935546875,-4.302530020904541,8.68287159576416,1.5682020874023437
1757954215426545400,37.23254541015625,-3.877858501434326,8.572139768981932,1.250671092224121
1757954215436501200,37.242501220703126,-3.2983120620727537,8.8489693359375,1.1751041023254394
1757954215446457300,37.25245727539063,-2.664896085357666,9.370905297851564,1.398812319946289
1757954215456413200,37.2624130859375,-2.0519804603576657,9.957484704589843,1.868075845336914
1757954215466370300,37.27237036132812,-1.5521908638000488,10.407145703887938,2.2789807052612305
1757954215476326100,37.282326171875,-1.4157213691711426,10.685022734069824,2.5403975990295407
1757954215486282200,37.2922822265625,-1.486948868560791,10.78288572692871,2.6144682128906247
1757954215496238300,37.30223828125,-1.6690578323364256,10.753407118988036,2.619406253814697
1757954215506194400,37.3121943359375,-1.7414824325561522,10.543465560913086,2.5380033973693847
1757954215516150300,37.322150390625,-1.7169418655395507,10.198700521850585,2.4250270065307618
1757954215526106400,37.3321064453125,-1.5958850440979002,9.71671780014038,2.2948422912597657
1757954215536062200,37.342062255859375,-1.514931100463867,9.223362620544432,2.227056456756592
1757954215546019300,37.35201928710938,-1.4362217208862305,8.761431337738037,2.22166950302124
1757954215555975400,37.36197534179688,-1.450586930847168,8.340650395965575,2.231096672058105
1757954215565931300,37.37193115234375,-1.4772224243164065,7.990199127960205,2.267458609771728
1757954215575887000,37.38188720703125,-1.4609119255065917,7.762450695037841,2.34302559967041
1757954215585843200,37.39184326171875,-1.4341267944335936,7.595455129241943,2.411858897399902
1757954215595799300,37.40179931640625,-1.5840636734008788,7.515847924041748,2.532616443634033
1757954215605755400,37.41175537109375,-1.5898995399475098,7.48247873840332,2.6625018836975096
1757954215615711200,37.421711181640624,-1.653046608734131,7.472303381347656,2.749441331481933
1757954215625668400,37.43166845703125,-1.7886182777404784,7.518840676116943,2.868403226470947
1757954215635624400,37.44162451171875,-1.8568530250549315,7.536647550964355,2.982427080535889
1757954215645580300,37.45158032226563,-1.9247884971618647,7.464671863555908,3.074903119659424
1757954215655536400,37.46153637695313,-2.057217776489258,7.354239311981201,3.1440356925964354
1757954215665492200,37.4714921875,-2.1217115837097165,7.227645899200439,3.1579519897460937
1757954215675448300,37.4814482421875,-2.297535768127441,7.086836914062499,3.14104294052124
1757954215685404400,37.491404296875,-2.453907064056396,7.000944929504394,3.134907798767089
1757954215695360500,37.501360595703126,-2.633472188568115,6.982090591430664,3.1111154197692867
1757954215705317400,37.5113173828125,-2.77098914642334,6.938097135925292,3.028665100097656
1757954215715273500,37.5212734375,-2.8239608581542965,6.908468890380859,2.952349922180176
1757954215725229300,37.53122924804688,-2.9128455947875973,6.93345837020874,2.886958289337158
1757954215735185400,37.54118530273438,-3.0410850212097165,7.039102518463134,2.8459575859069823
1757954215745141200,37.55114135742188,-3.1757588645935058,7.229441550445556,2.8070518089294434
1757954215755097300,37.561097412109376,-3.3110312583923336,7.480982362365722,2.7979239151000974
1757954215765053200,37.57105322265625,-3.462314875793457,7.831433630371094,2.826504697418213
1757954215775009300,37.58100927734375,-3.495235148620605,8.214206620788573,2.8287492614746093
1757954215784966100,37.59096606445313,-3.5583822174072264,8.562862237548828,2.899827123260498
1757954215794922200,37.60092211914063,-3.7196915542602538,8.98828194503784,3.01923793106079
1757954215804878300,37.61087841796875,-3.9194577552795407,9.44871685180664,3.099593324279785
1757954215814834400,37.62083447265625,-4.096479040527344,9.862614463806151,3.148524820709228
1757954215824790300,37.630790283203126,-4.288164810943603,10.168623363494872,3.208978412628173
1757954215834746400,37.64074633789063,-4.4841900718688965,10.334421828460693,3.161543292236328
1757954215844702200,37.6507021484375,-4.659864618682861,10.575787283325194,3.007566197967529
1757954215854658300,37.660658203125,-4.742464575958252,10.974870772552489,2.7443536529541013
1757954215864614100,37.6706142578125,-4.667496136474609,11.449820526885986,2.3591864608764648
1757954215874571500,37.68057153320313,-4.510675927734375,11.83558626937866,1.958157682800293
1757954215884527400,37.69052734375,-4.331709353637695,12.026523851776124,1.6983868026733395
1757954215894483500,37.7004833984375,-4.243872080230712,11.992107202911376,1.5327379753112793
1757954215904439600,37.710439453125,-4.306121323394775,11.742960592651366,1.439663385772705
1757954215914395600,37.72039575195313,-4.51366867980957,11.297040533447264,1.3838485595703125
1757954215924351500,37.7303515625,-4.727351177978515,10.69893903121948,1.35362176361084
1757954215934307600,37.7403076171875,-4.901379711151122,9.950900650024414,1.347785897064209
1757954215944263400,37.75026342773437,-4.991012635803222,9.158419900512694,1.4200608596801756
1757954215954220500,37.76022045898438,-5.0200423309326165,8.42100578918457,1.4642039527893065
1757954215964176400,37.77017626953125,-4.979640177917481,7.877372374725342,1.5261539207458494
1757954215974132500,37.78013256835938,-4.88372247390747,7.645733364105224,1.6226701751708985
1757954215984088300,37.79008837890625,-4.6818613464355465,7.818564796447753,1.7712603157043456
1757954215994044400,37.80004443359375,-4.398148449707031,8.28004716644287,2.0292355445861814
1757954216004000500,37.81000048828125,-4.010886331176757,8.852411000823974,2.3790882621765137
1757954216013956600,37.81995654296875,-3.63260246887207,9.430012151336667,2.7834090675354
1757954216023912400,37.82991235351562,-3.240252671813965,9.99130280303955,3.0774469589233395
1757954216033868500,37.83986865234375,-2.8473043243408203,10.516381154632567,3.2797569992065427
1757954216043825400,37.84982543945313,-2.479944007110596,10.87236901397705,3.3845033218383787
1757954216053781500,37.85978149414063,-2.148197439575195,10.944943251800536,3.4138322921752926
1757954216063737300,37.8697373046875,-1.922992845916748,10.784232465362548,3.391536289215088
1757954216073693400,37.879693359375,-1.7977461715698242,10.43303300933838,3.266289614868164
1757954216083649300,37.889649169921874,-1.7161936775207518,9.957783979797362,3.0719103675842283
1757954216093605600,37.89960571289063,-1.6774375381469726,9.471461767578123,2.871844891357421
1757954216103561500,37.9095615234375,-1.612644455718994,9.0397572807312,2.6779145568847653
1757954216113517600,37.919517578125,-1.5116390731811522,8.65623610229492,2.5746646102905277
1757954216123473400,37.92947338867187,-1.42380179977417,8.37611450805664,2.4979005195617674
1757954216133430500,37.93943041992188,-1.2886790435791016,8.129661374664305,2.448071197509765
1757954216143386600,37.94938671875,-1.113453409576416,7.912686849212646,2.421734979248047
1757954216153342500,37.95934252929688,-1.0773907470703123,7.751527149963379,2.3891139816284177
1757954216163298300,37.96929833984375,-1.0717045181274414,7.5990464317321775,2.3611317497253417
1757954216173254400,37.97925439453125,-1.0612298858642577,7.503278365325928,2.319382858276367
1757954216183210500,37.98921044921875,-1.0645219131469723,7.404367909240722,2.308608950805664
1757954216193166600,37.99916650390625,-0.9671078330993652,7.393743639373778,2.302324171447754
1757954216203122400,38.00912231445312,-0.8162731285095214,7.410054138183593,2.303670909881592
1757954216213079600,38.01907958984375,-0.750133307647705,7.477391059875488,2.286911498260498
1757954216223035600,38.02903564453125,-0.7151181083679199,7.542034504699706,2.289455337524414
1757954216232991500,38.038991455078126,-0.6525695899963379,7.588571799468994,2.2916999015808104
1757954216242947600,38.048947509765625,-0.6567594429016113,7.56537797088623,2.289754612731933
1757954216252903400,38.0589033203125,-0.6937199310302734,7.471854468536376,2.2367829010009763
1757954216262859500,38.06885961914063,-0.7987655288696288,7.360524091339111,2.119018106842041
1757954216272815400,38.0788154296875,-0.8834604125976562,7.2994719490051265,2.002749688720703
1757954216282771700,38.08877172851562,-1.0148422286987304,7.463624400329589,1.928679074859619
1757954216292727600,38.0987275390625,-1.186177285003662,7.96131907043457,1.9704279663085935
1757954216302684700,38.1086845703125,-1.4053963745117186,8.796147261810303,2.0964228286743163
1757954216312640500,38.118640625,-1.6115969924926756,9.74215619277954,2.316090830993652
1757954216322596600,38.1285966796875,-1.823334201812744,10.471938786315915,2.650231600189209
1757954216332552400,38.138552490234375,-2.092981163787841,10.856357790374757,2.946962968444824
1757954216342508500,38.148508544921874,-2.2767361412048337,11.052831964111329,3.119944038391113
1757954216352464400,38.15846435546875,-2.4889222633361814,11.111489904785156,3.1015386131286617
1757954216362420500,38.16842041015625,-2.6919804916381835,10.988338156890867,2.850297076416016
1757954216372376300,38.17837622070312,-2.7910405853271483,10.727819088745116,2.418891864776611
1757954216382332700,38.18833276367187,-2.7693431327819824,10.650606085205078,2.0581156021118163
1757954216392289300,38.19828930664063,-2.5962124252319336,11.143063439178466,2.048089882659912
1757954216402245600,38.20824560546875,-2.3745991340637205,12.11675532684326,2.5631425148010254
1757954216412201500,38.21820141601562,-2.3024738090515133,13.104363511657716,3.495983336639404
1757954216422157600,38.22815747070312,-2.360682836914062,13.715333847808838,4.535366132354736
1757954216432113400,38.238113525390624,-2.4766519798278805,13.851803342437742,5.373187075805664
1757954216442069500,38.24806958007812,-2.680757671356201,13.583652756500245,5.837662197875976
1757954216452025300,38.258025390625,-2.869151414489746,12.885593334960936,5.784840123748779
1757954216461981400,38.2679814453125,-3.0488661766052245,11.800271794891357,5.195716877746582
1757954216471937500,38.2779375,-3.1893758865356445,10.70597199859619,4.425831406402588
1757954216481894400,38.287894287109374,-3.3074399559020997,9.810690215301513,3.651157531738281
1757954216491850500,38.2978505859375,-3.3412580543518065,9.145850341796876,3.008613661193848
1757954216501806600,38.307806640625,-3.2863410537719724,8.773551983642578,2.5287258659362792
1757954216511762400,38.31776245117187,-3.2282816635131835,8.694094416046141,2.2457611572265623
1757954216521718500,38.32771850585937,-3.174262488555908,8.834753763580322,2.208351756286621
1757954216531674400,38.33767431640625,-3.13475816116333,9.07851342010498,2.43250888671875
1757954216541630500,38.34763037109375,-3.0870237655639645,9.37210239868164,2.8459575859069823
1757954216551586300,38.35758642578125,-2.964919480895996,9.686042091369629,3.317615312957764
1757954216561542400,38.36754248046875,-2.8089970977783203,10.098144052124022,3.733907126617432
1757954216571499500,38.37749951171875,-2.6692355758666992,10.43243445892334,3.99652112121582
1757954216581455400,38.38745532226562,-2.6071359703063965,10.472537336730957,4.083759844207764
1757954216591411700,38.39741162109375,-2.531120067596436,10.15755018081665,3.970783453369141
1757954216601367600,38.40736743164062,-2.3855226791381834,9.625738137054444,3.743932846069336
1757954216611323600,38.41732373046875,-2.185906115722656,9.178471339416504,3.5538930892944336
1757954216621279500,38.42727954101562,-2.0000562118530274,8.787767555999755,3.4299931533813472
1757954216631235600,38.43723559570312,-1.8766051887512205,8.442254328918457,3.369988474273681
1757954216641191400,38.44719140625,-1.7943045066833494,8.066364668273925,3.305045754241944
1757954216651147300,38.45714721679688,-1.7645266235351562,7.670872481536865,3.2603041107177733
1757954216661104400,38.4671044921875,-1.7407342445373537,7.29737702255249,3.290231631469726
1757954216671060500,38.477060546875,-1.7120038246154785,7.0090253601074215,3.3687913734436035
1757954216681016300,38.48701635742187,-1.7235259201049804,6.841880156707763,3.438073583984375
1757954216690972700,38.49697265625,-1.7465701110839842,6.7453639022827145,3.500472464752197
1757954216700928500,38.50692846679687,-1.7839795120239257,6.725162825775146,3.556586566162109
1757954216710884600,38.51688452148438,-1.9539678298950196,6.761375125885009,3.6098575531005856
1757954216720840400,38.52684033203125,-2.170194167327881,6.784120041656494,3.691410047149658
1757954216730796500,38.53679663085938,-2.4105121589660645,6.723367174530029,3.784035723876953
1757954216740752400,38.54675244140625,-2.727893516540527,6.6777277053833,3.851671920776367
1757954216750709500,38.55670947265625,-3.0576947952270506,6.654084963989257,3.895216463470459
1757954216760665300,38.56666528320312,-3.334075449371338,6.629843672180176,3.882197991943359
1757954216770621400,38.57662133789062,-3.5535938140869137,6.601711802673339,3.836259247589111
1757954216780577500,38.58657763671875,-3.656993398284912,6.582558189392089,3.722684306335449
1757954216790533600,38.59653369140625,-3.732859663391113,6.51237815322876,3.573046702575684
1757954216800489500,38.60648950195313,-3.7172973526000974,6.469881073760986,3.373579776763916
1757954216810445600,38.61644555664063,-3.6961984504699705,6.502053158569336,3.180846543121337
1757954216820401400,38.6264013671875,-3.6379894226074216,6.806116769409179,3.056946607208252
1757954216830357500,38.636357421875,-3.4920927589416504,7.347954532623291,2.938732900238037
1757954216840313300,38.64631323242188,-3.4388217720031737,8.084171543121338,2.8667572128295897
1757954216850270500,38.6562705078125,-3.340210591125488,8.79749400024414,2.765901467895508
1757954216860226300,38.66622631835938,-3.263446500396728,9.35878465194702,2.615665313720703
1757954216870182400,38.67618237304688,-3.162141842651367,9.80006594543457,2.420388240814209
1757954216880138800,38.686138671875,-3.110965782165527,10.257508100128174,2.193986546325684
1757954216890094600,38.69609448242188,-3.0633810241699218,10.658387240600586,2.083853269958496
1757954216900050700,38.70605078125,-2.983474543762207,10.922796886444091,2.1000141311645506
1757954216910006500,38.71600659179688,-2.9884125846862792,11.15952357559204,2.1856068405151365
1757954216919962600,38.725962646484376,-3.043479222869873,11.49845274810791,2.3087585884094235
1757954216929918500,38.73591845703125,-3.0228292335510254,11.88047755050659,2.361431024932861
1757954216939875600,38.74587548828125,-2.94950680770874,12.0667763671875,2.3937527473449705
1757954216949831700,38.75583178710937,-2.829946362304687,11.9258177444458,2.4281693962097166
1757954216959787500,38.76578759765625,-2.824559408569336,11.435305679321289,2.5671827301025387
1757954216969743600,38.77574365234375,-2.940678189086914,10.7766009475708,2.7459996665954587
1757954216979699700,38.78569970703125,-3.161543292236328,10.076296961975098,2.873790180206299
1757954216989655600,38.795655517578126,-3.480271388244629,9.439588957977294,2.9511528213500973
1757954216999611600,38.805611572265626,-3.811718680572509,8.901641772460938,2.9593828895568848
1757954217009567500,38.8155673828125,-4.103362370300292,8.603862940979003,2.917035447692871
1757954217019523600,38.82552368164063,-4.319887982940673,8.709507089233398,2.8944401695251463
1757954217029480700,38.83548071289062,-4.472368701171875,9.18056626586914,2.89204596786499
1757954217039436500,38.8454365234375,-4.502595497131347,9.773131176757811,2.8941408943176268
1757954217049392600,38.855392578125,-4.37989266204834,10.258106650543212,2.830544912719726
1757954217059348500,38.86534838867188,-4.233397447967529,10.683227082824706,2.7078420776367187
1757954217069304800,38.87530493164063,-3.995024745178223,11.1474029296875,2.523189274597168
1757954217079260700,38.8852607421875,-3.6400843490600585,11.564592568969726,2.24740717086792
1757954217089216800,38.895216796875,-3.1970074043273926,11.871499294281003,1.994669258117676
1757954217099172600,38.90517260742188,-2.815880427551269,11.97729308013916,1.809717179870605
1757954217109128700,38.915128662109375,-2.486827336883545,11.865813065338134,1.6473603797912597
1757954217119084500,38.92508447265625,-2.1984756744384764,11.58090306777954,1.4613608383178711
1757954217129041700,38.93504174804688,-1.9553145683288573,11.246014110565184,1.2705728935241698
1757954217138997500,38.94499755859375,-1.7099088981628416,10.874314302825928,1.0266635993957518
1757954217148953600,38.95495361328125,-1.4444517890930175,10.487950009918212,0.8028057441711425
1757954217158909400,38.964909423828125,-1.1254244178771973,10.054449871826172,0.5973533142089843
1757954217168865800,38.97486572265625,-0.7694365585327148,9.657162033843994,0.3939958106994629
1757954217178821600,38.98482153320312,-0.4076128326416015,9.292794468688964,0.2079962692260742
1757954217188777700,38.99477783203125,-0.1961748985290527,8.994267449188232,0.0785597419738769
1757954217198733600,39.00473364257813,-0.2078466316223144,8.683021233367919,0.0477343955993652
1757954217208689700,39.01468969726562,-0.3832219032287597,8.345887712097168,0.07018003616333
1757954217218645500,39.0246455078125,-0.6012438919067382,7.91642778930664,0.1485901405334472
1757954217228602600,39.0346025390625,-0.7805097412109374,7.512855171966552,0.2657563842773437
1757954217238558500,39.044558349609375,-0.918026699066162,7.224204234313964,0.3878606689453124
1757954217248514600,39.0545146484375,-0.9925462257385254,7.040299619293212,0.5071218391418457
1757954217258470700,39.064470703125,-1.0811316871643066,6.961889514923096,0.619948592376709
1757954217268426800,39.0744267578125,-1.167023671722412,6.979846027374268,0.7363666481018066
1757954217278382600,39.08438256835937,-1.2750620216369628,7.122749938964843,0.8494926765441894
1757954217288338700,39.09433862304687,-1.4451999771118162,7.478438523101806,0.963366893005371
1757954217298294500,39.10429443359375,-1.608903515625,8.136544704437256,1.1188403633117676
1757954217308250600,39.11425073242187,-1.7718588661193846,9.285761501312257,1.35362176361084
1757954217318206500,39.12420654296875,-1.872564973449707,10.940154848480224,1.7458219230651857
1757954217328163600,39.13416357421875,-1.91521169052124,12.735057905578612,2.3005285202026364
1757954217338119400,39.14411938476562,-1.8570026626586915,13.865570001983642,2.693327230072021
1757954217348075500,39.15407543945312,-1.9234417587280277,14.062642726135254,2.658461668395996
1757954217358031600,39.16403149414062,-2.0133739585876462,13.690793280792237,2.1245546981811523
1757954217367987700,39.17398779296875,-2.1666028648376465,13.340790925598144,1.169717148590088
1757954217377943600,39.18394360351562,-2.382230651855469,13.356652511596678,0.2896984008789062
1757954217387899600,39.19389965820312,-2.3873183303833008,13.673136043548585,-0.3365349708557129
1757954217397855500,39.20385546875,-2.3847744911193844,14.074464096832276,-0.7261912910461426
1757954217407811600,39.2138115234375,-2.435501638793945,14.60672505340576,-0.7243956398010254
1757954217417768700,39.223768798828125,-2.3873183303833008,15.4638492477417,-0.1007061073303222
1757954217427724500,39.233724609375,-2.2872107734680176,16.20844596405029,1.0519523544311522
1757954217437680600,39.2436806640625,-2.523787825012207,15.996110204315183,2.18979669342041
1757954217447636500,39.25363647460937,-3.058293345642089,15.008651657104492,2.811690574645996
1757954217457592800,39.2635927734375,-3.653102820587158,13.89280404586792,2.7844565307617186
1757954217467548700,39.27354858398437,-4.14361488571167,12.797307148742677,2.3337480682373046
1757954217477504500,39.28350439453125,-4.453963275909423,11.584195095062254,1.7286135986328124
1757954217487460600,39.29346069335938,-4.677222580718994,10.388889916229248,1.0723030685424804
1757954217497416400,39.30341650390625,-4.772392096710205,9.323320539855956,0.3601777122497558
1757954217507372500,39.31337255859375,-4.673780915832519,8.52231044692993,-0.3012204963684082
1757954217517328400,39.32332836914063,-4.496011442565917,8.017283534240722,-0.891241567993164
1757954217527285500,39.33328540039062,-4.25808765258789,7.881711865234375,-1.3325228614807128
1757954217537241600,39.34324169921875,-3.995922570800781,8.240842114257813,-1.4772224243164065
1757954217547197700,39.35319775390625,-3.6284126159667967,9.020753305053711,-1.3184569267272948
1757954217557153800,39.36315380859375,-3.3060932174682613,9.963021295928954,-1.044919387054443
1757954217567109600,39.37310961914063,-3.0494647270202635,10.828824471282958,-0.7740753242492675
1757954217577065700,39.38306567382813,-2.834734765625,11.412261488342285,-0.4664204109191894
1757954217587021600,39.393021484375,-2.6192566162109374,11.580454154968262,-0.1646013641357421
1757954217596977700,39.40297778320313,-2.4377462028503416,11.321730738067629,0.0565630142211914
1757954217606933500,39.41293359375,-2.342427049255371,10.71973865814209,0.1954267105102539
1757954217616889600,39.4228896484375,-2.297685405731201,10.046369441223144,0.3152864311218261
1757954217626846500,39.43284643554688,-2.286761860656738,9.39769042892456,0.448164623260498
1757954217636802600,39.44280249023438,-2.299780332183838,8.741379898834229,0.6016928047180176
1757954217646758700,39.45275854492188,-2.2978350433349606,8.125920434570313,0.7779659019470214
1757954217656714800,39.46271484375,-2.257432890319824,7.554753701019287,0.9581295768737792
1757954217666670600,39.47267065429688,-2.2186767509460448,7.074716268157959,1.1590928787231445
1757954217676626700,39.48262670898438,-2.110788038635254,6.638522653198242,1.370979725646973
1757954217686582500,39.49258251953125,-1.9656395629882808,6.294056889343262,1.56416187210083
1757954217696538600,39.50253857421875,-1.866878744506836,5.987150164031982,1.7443255470275878
1757954217706494500,39.51249438476562,-1.7961001579284668,5.7788546195983885,1.9283797996520995
1757954217716450800,39.522450927734376,-1.7220295440673827,5.661239463043213,2.0350714111328125
1757954217726407400,39.53240747070313,-1.718737516784668,5.679944163513183,2.124105785369873
1757954217736363800,39.54236376953125,-1.74926358795166,5.827786116027832,2.2138883476257325
1757954217746319600,39.55231958007813,-1.8863316329956052,6.087706633758544,2.32387198638916
1757954217756275700,39.562275634765626,-1.9750667320251465,6.449679997253417,2.4257751945495603
1757954217766231600,39.5722314453125,-2.0875942100524902,6.941389163208007,2.536507021331787
1757954217776187600,39.58218774414063,-2.2870611358642576,7.525125455474853,2.679859845733642
1757954217786143500,39.5921435546875,-2.4986487075805663,8.05693749923706,2.807201446533203
1757954217796099600,39.602099609375,-2.776226462554932,8.460809391784668,2.906261540222168
1757954217806055400,39.61205541992187,-3.084779201507568,8.533832542419432,2.918831098937988
1757954217816011800,39.62201171875,-3.4102409896850583,8.245480879974364,2.759317413330078
1757954217825967600,39.63196752929687,-3.710862935638428,7.86540136642456,2.4889222633361814
1757954217835924700,39.6419248046875,-3.95821389465332,7.6285250396728514,2.1519383796691893
1757954217845880600,39.651880615234376,-4.142567422485351,7.681347113800048,1.7886182777404784
1757954217855836700,39.66183666992188,-4.340687609863281,8.028506354522705,1.4740800346374512
1757954217865792500,39.67179248046875,-4.559757061767578,8.480561555480957,1.1637316444396972
1757954217875748600,39.68174853515625,-4.722562774658203,8.985588468170166,0.7992144416809082
1757954217885704400,39.69170434570312,-4.885069212341309,9.605237785339355,0.3534440200805664
1757954217895660500,39.70166064453125,-4.979939453125,10.440814164733888,-0.1306336280822753
1757954217905616600,39.71161669921875,-5.027973123931885,11.43440785369873,-0.639700756072998
1757954217915572700,39.72157275390625,-5.140799877166748,12.388347577667236,-1.0408791717529295
1757954217925528600,39.73152856445312,-5.343858105468749,13.175591011047365,-1.3335703247070312
1757954217935484700,39.74148461914063,-5.627870277404785,13.691092555999756,-1.6603788513183593
1757954217945441500,39.75144165039063,-5.881805290985107,13.800028731536864,-2.056319950866699
1757954217955397600,39.76139770507813,-6.064363167572021,13.314005794525146,-2.3683143547058103
1757954217965353500,39.771353515625,-6.208314542388916,12.477681227111816,-2.511517541503906
1757954217975309600,39.7813095703125,-6.188712016296386,11.550825909423828,-2.5303718795776367
1757954217985265400,39.79126538085937,-5.996726970672607,10.664372744750976,-2.448220835113525
1757954217995221500,39.80122143554688,-5.680093801116943,9.967959336853026,-2.245461882019043
1757954218005177600,39.81117749023438,-5.325153404998779,9.505429503631593,-1.9705776039123533
1757954218015133700,39.8211337890625,-4.955099610900879,9.241169495391846,-1.746121198272705
1757954218025089500,39.83108959960938,-4.503493322753906,9.094823918914797,-1.544409708404541
1757954218035045600,39.84104565429688,-3.980958810424805,9.009680122375489,-1.3006500518798827
1757954218045002500,39.85100244140625,-3.4075475128173824,8.964788841247557,-1.0160393295288086
1757954218054958600,39.86095849609375,-2.8464064987182613,8.906729450988768,-0.6784568954467773
1757954218064914400,39.87091455078125,-2.309806051635742,8.846874409484863,-0.3097498397827148
1757954218074870500,39.88087060546875,-1.81300920715332,8.80332986679077,0.0252887550354003
1757954218084826400,39.89082641601563,-1.3986626823425292,8.769062855529784,0.3154360687255859
1757954218094782500,39.90078247070313,-1.0402806213378906,8.793304147338867,0.6172551155090331
1757954218104738600,39.91073852539063,-0.7499836700439453,8.73943460998535,0.8864531646728515
1757954218114694700,39.92069458007813,-0.5792471641540528,8.608800981903075,1.1125555839538577
1757954218124650500,39.930650390625,-0.6024409927368164,8.351424303436279,1.323544605255127
1757954218134606600,39.940606689453126,-0.6877344268798827,7.924059307098388,1.5126865364074706
1757954218144562400,39.9505625,-0.8200140686035156,7.456142520141601,1.6814777534484862
1757954218154519600,39.96051953125,-0.9771335525512694,6.984634430694579,1.8134581199646
1757954218164475600,39.9704755859375,-1.1815385192871093,6.536170532226562,1.8997990173339845
1757954218174431500,39.98043139648438,-1.4085387641906737,6.141127258300781,1.9283797996520995
1757954218184387600,39.9903876953125,-1.7093103477478029,5.888838258361816,1.9635446365356444
1757954218194343700,40.00034375,-1.9879355659484863,5.780201358032226,2.0495862586975098
1757954218204299500,40.01029956054688,-2.1977274864196774,5.837063647460937,2.1262007118225097
1757954218214255600,40.020255615234376,-2.311751340484619,6.094739601135253,2.21538472366333
1757954218224211500,40.03021142578125,-2.2979846809387205,6.468833610534667,2.29843359375
