time,seconds_elapsed,z,y,x
1758280770969168400,19.99916845703125,1.1332778930664062,0.4327926635742187,-0.8867772817611694
1758280770979253200,20.009253173828125,1.0771541595458984,0.4291681051254272,-0.7792889475822449
1758280770989338400,20.01933837890625,1.037303805351257,0.4597674906253814,-0.6816563606262207
1758280770999423200,20.02942333984375,1.0029414892196655,0.5313335657119751,-0.6130504012107849
1758280771009508400,20.03950830078125,0.9637802839279176,0.6263087391853333,-0.5500873327255249
1758280771019593200,20.04959326171875,0.9130305647850036,0.7240446209907532,-0.5048726797103882
1758280771029678300,20.05967822265625,0.8337006568908691,0.8051590919494629,-0.4764505624771118
1758280771039763200,20.06976318359375,0.729780375957489,0.8639481067657471,-0.4512818157672882
1758280771049847300,20.079847412109373,0.6037684679031372,0.911121428012848,-0.415823757648468
1758280771059932200,20.08993212890625,0.4480020105838775,0.9337077140808104,-0.3331344723701477
1758280771070017300,20.100017333984376,0.269991934299469,0.9424092173576356,-0.1948402523994445
1758280771080102100,20.11010205078125,0.0781463086605072,0.932606875896454,0.0069053857587277
1758280771090187300,20.12018725585937,-0.1315079033374786,0.8914475440979004,0.2521714568138122
1758280771100272400,20.1302724609375,-0.3374983370304107,0.8303631544113159,0.5161874294281006
1758280771110357200,20.140357177734376,-0.5199034810066223,0.7609498500823975,0.762200653553009
1758280771120441300,20.15044140625,-0.6720972657203674,0.670724630355835,0.9540585279464722
1758280771130526200,20.160526123046875,-0.8082343339920044,0.5793294906616211,1.0952423810958862
1758280771140611300,20.170611328125,-0.9324181079864502,0.4964825510978699,1.2007887363433838
1758280771150696200,20.1806962890625,-1.041273832321167,0.4401585459709167,1.277311086654663
1758280771160781300,20.19078125,-1.13870370388031,0.4371348023414612,1.3659392595291138
1758280771170866200,20.2008662109375,-1.214169144630432,0.5077771544456482,1.46146821975708
1758280771180951300,20.210951416015625,-1.2708910703659058,0.6622333526611328,1.5275005102157593
1758280771191035400,20.221035400390623,-1.2926931381225586,0.8901541829109192,1.608163595199585
1758280771201120300,20.231120361328124,-1.2540099620819092,1.1345804929733276,1.7853401899337769
1758280771211205000,20.241205078125,-1.1863876581192017,1.269890308380127,2.064393281936645
1758280771221290200,20.25129028320313,-1.1606208086013794,1.2179429531097412,2.353383302688598
1758280771231375000,20.261375,-1.2204504013061523,1.02949321269989,2.6101112365722656
1758280771241460200,20.271460205078125,-1.3363323211669922,0.8050299882888794,2.782418966293335
1758280771251545300,20.28154541015625,-1.4588199853897097,0.6259969472885132,2.8253331184387207
1758280771261629400,20.29162939453125,-1.5171633958816528,0.5042979121208191,2.7938039302825928
1758280771271714300,20.30171435546875,-1.4784497022628784,0.4001154899597168,2.720093250274658
1758280771281799400,20.31179931640625,-1.3384968042373655,0.3800099492073059,2.612212896347046
1758280771291884500,20.32188452148437,-1.1276148557662964,0.5425732135772705,2.4944252967834477
1758280771301969400,20.33196948242188,-0.8997777104377747,0.77925044298172,2.358198881149292
1758280771312054300,20.34205419921875,-0.7158530354499817,1.000961184501648,2.1849207878112797
1758280771322139100,20.35213916015625,-0.6078988313674927,1.1464382410049438,1.9443182945251465
1758280771332223500,20.362223388671875,-0.5987609028816223,1.180536866188049,1.6343345642089844
1758280771342308400,20.372308349609376,-0.633361279964447,0.9629095792770386,1.3024297952651978
1758280771352393500,20.3823935546875,-0.6469936966896057,0.5098251700401306,1.055856227874756
1758280771362478300,20.39247827148437,-0.6511434316635132,-0.021589208394289,0.96310693025589
1758280771372563500,20.4025634765625,-0.6781184077262878,-0.5351560711860657,0.977123498916626
1758280771382648300,20.4126484375,-0.7389883995056152,-0.9108644723892212,1.0350600481033323
1758280771392733400,20.4227333984375,-0.7875292301177979,-1.0850964784622192,1.059860110282898
1758280771402817300,20.4328173828125,-0.7946369647979736,-1.1343437433242798,1.0040501356124878
1758280771412902400,20.44290234375,-0.7630471587181091,-1.1931288242340088,0.8669722676277161
1758280771422987300,20.4529873046875,-0.7163962721824646,-1.285061597824097,0.6831973791122437
1758280771433072400,20.463072265625,-0.6735550761222839,-1.3798824548721311,0.4858723282814026
1758280771443157500,20.473157470703125,-0.6439439654350281,-1.4283591508865356,0.3038380742073059
1758280771453242400,20.483242431640623,-0.6177346706390381,-1.3707562685012815,0.1449675261974334
1758280771463327500,20.493327392578124,-0.6062412858009338,-1.210376501083374,0.0033917590044438
1758280771473411300,20.503411376953125,-0.6029011011123657,-0.9573987126350404,-0.1151892468333244
1758280771483496400,20.513496337890626,-0.6033216118812561,-0.6532566547393799,-0.2227450013160705
1758280771493581300,20.523581298828127,-0.5955107808113098,-0.3137771189212799,-0.3191889226436615
1758280771503666400,20.53366650390625,-0.561720073223114,0.0256669875234365,-0.4137934446334839
1758280771513751300,20.543751220703125,-0.5054898858070374,0.3253234922885895,-0.4926806390285492
1758280771523836400,20.55383642578125,-0.4371616542339325,0.5964125394821167,-0.5628650188446045
1758280771533921300,20.56392138671875,-0.3606931865215301,0.8588579297065735,-0.6307173371315002
1758280771544007000,20.5740068359375,-0.2800081968307495,1.1008771657943726,-0.7031228542327881
1758280771554090800,20.5840908203125,-0.2108215391635894,1.3222148418426514,-0.7571103572845459
1758280771564176000,20.59417578125,-0.1513052135705948,1.5187809467315674,-0.795279324054718
1758280771574260700,20.6042607421875,-0.1001426875591278,1.68536376953125,-0.8242502212524414
1758280771584345900,20.614345947265623,-0.0524334907531738,1.830738306045532,-0.8207241892814636
1758280771594431000,20.624430908203124,-0.0090346653014421,1.94687819480896,-0.8010875582695007
1758280771604515800,20.634515869140625,0.0203272178769111,2.022480726242065,-0.7596905827522278
1758280771614601000,20.64460107421875,0.0293076634407043,2.05519437789917,-0.7038787007331848
1758280771624684800,20.654684814453127,0.0085824113339185,2.054964780807495,-0.6292484402656555
1758280771634770000,20.66477001953125,-0.0331167057156562,2.042465209960937,-0.5529927015304565
1758280771644854800,20.674854736328125,-0.0874262899160385,2.038555145263672,-0.4810892343521118
1758280771654940000,20.68493994140625,-0.1366681456565857,2.042184829711914,-0.4180498719215393
1758280771665024800,20.695024658203124,-0.171483114361763,2.0405516624450684,-0.3723886609077453
1758280771675110000,20.70510986328125,-0.1946897655725479,2.015711069107056,-0.3436423540115356
1758280771685194800,20.71519482421875,-0.1982200592756271,1.9509992599487305,-0.3214542269706726
1758280771695278800,20.72527880859375,-0.1782101243734359,1.852781891822815,-0.3074302673339844
1758280771705363700,20.73536376953125,-0.1421378701925277,1.707599401473999,-0.2967933416366577
1758280771715448800,20.74544873046875,-0.0915537625551223,1.530650973320007,-0.2884040474891662
1758280771725533700,20.75553369140625,-0.0395496822893619,1.3287473917007446,-0.276799589395523
1758280771735618800,20.765618896484376,0.0125645101070404,1.1351686716079712,-0.2744275629520416
1758280771745704000,20.775703857421878,0.0656085535883903,0.9656182527542114,-0.2895492613315582
1758280771755788800,20.78578881835937,0.1274013072252273,0.8368003368377686,-0.3287063241004944
1758280771765872600,20.79587255859375,0.2114996761083603,0.7632771134376526,-0.381220132112503
1758280771775957800,20.805957763671877,0.3224073946475982,0.7443534135818481,-0.4402634799480438
1758280771786043000,20.81604296875,0.4648825228214264,0.7671724557876587,-0.5058895945549011
1758280771796127700,20.82612768554688,0.6101153492927551,0.8030712604522705,-0.5790603756904602
1758280771806212900,20.836212890625,0.7341728806495667,0.8445540070533752,-0.6303941011428833
1758280771816297700,20.846297607421874,0.8202475309371948,0.89556884765625,-0.6724300384521484
1758280771826382800,20.8563828125,0.8887509703636169,0.965948224067688,-0.7099326848983765
1758280771836466700,20.866466796875,0.9467551112174988,1.0455551147460938,-0.7446480393409729
1758280771846551800,20.8765517578125,0.9859483242034912,1.121829390525818,-0.771394670009613
1758280771856636700,20.88663671875,1.0015965700149536,1.2093099355697632,-0.8018552660942078
1758280771866721800,20.8967216796875,0.9878666996955872,1.2978509664535522,-0.8258205056190491
1758280771876806700,20.906806640625,0.9464910626411438,1.3924530744552612,-0.8489598631858826
1758280771886891800,20.916891845703127,0.9001571536064148,1.4897955656051636,-0.8628210425376892
1758280771896976600,20.9269765625,0.8703287243843079,1.6045013666152954,-0.879791259765625
1758280771907061800,20.937061767578125,0.8703374862670898,1.742776870727539,-0.9149612188339232
1758280771917145900,20.947145751953126,0.8964089155197144,1.896721601486206,-0.9712330102920532
1758280771927230700,20.957230712890624,0.9314558506011964,2.059083938598633,-1.047913670539856
1758280771937315600,20.967315673828125,0.9739025235176086,2.220998764038086,-1.1330955028533936
1758280771947400700,20.977400634765623,1.042158603668213,2.388634204864502,-1.2206122875213623
1758280771957485800,20.98748583984375,1.142048716545105,2.560677051544189,-1.2963292598724363
1758280771967570700,20.99757080078125,1.2633486986160278,2.716543912887573,-1.3441976308822632
1758280771977655800,21.00765576171875,1.3715896606445312,2.8322644233703613,-1.3537746667861938
1758280771987740000,21.01773999023437,1.4410865306854248,2.8979716300964355,-1.3306418657302856
1758280771997825000,21.02782495117188,1.4617741107940674,2.9070284366607666,-1.2893787622451782
1758280772007910000,21.03790991210937,1.4335898160934448,2.8636274337768555,-1.2412834167480469
1758280772017995000,21.0479951171875,1.3611000776290894,2.788013458251953,-1.1906778812408447
1758280772028079900,21.058079833984376,1.2591679096221924,2.6887786388397217,-1.1312520503997805
1758280772038164700,21.068164794921877,1.1400399208068848,2.5799171924591064,-1.0765876770019531
1758280772048249600,21.07824951171875,1.0189096927642822,2.4644322395324707,-1.0188515186309814
1758280772058334000,21.088333984375,0.8938186168670654,2.347338914871216,-0.9785643815994264
1758280772068418800,21.09841870117188,0.7692543268203735,2.243858575820923,-0.9569991827011108
1758280772078504000,21.10850390625,0.6382530331611633,2.1700973510742188,-0.9700894951820374
1758280772088588800,21.1185888671875,0.5076433420181274,2.1463122367858887,-1.0123655796051023
1758280772098674000,21.128673828125,0.3898274898529053,2.1672286987304688,-1.0889863967895508
1758280772108759000,21.13875903320313,0.3048268258571625,2.235425472259521,-1.1902203559875488
1758280772118844000,21.148843994140623,0.2613904476165771,2.340834140777588,-1.2996485233306885
1758280772128929000,21.158928955078125,0.2804578840732574,2.470264196395874,-1.412043809890747
1758280772139012900,21.169012939453125,0.3513810932636261,2.611690759658813,-1.508399248123169
1758280772149098000,21.179097900390627,0.4824978113174438,2.736943483352661,-1.5876754522323608
1758280772159182800,21.189182861328124,0.6397925615310669,2.8205583095550537,-1.61982524394989
1758280772169268000,21.19926806640625,0.7994269728660583,2.8509769439697266,-1.5989947319030762
1758280772179352800,21.209352783203126,0.9197359681129456,2.825713396072388,-1.5296485424041748
1758280772189438000,21.21943798828125,0.9859306812286376,2.7516674995422363,-1.4390259981155396
1758280772199522800,21.229522705078125,0.9972702264785768,2.628316640853882,-1.332963228225708
1758280772209607000,21.23960693359375,0.9628813862800598,2.477762460708618,-1.211919903755188
1758280772219691800,21.24969189453125,0.9046443104743958,2.3070316314697266,-1.0906065702438354
1758280772229777000,21.25977685546875,0.8431620597839355,2.1246182918548584,-0.9776507616043092
1758280772239861800,21.26986181640625,0.7849518656730652,1.9280943870544436,-0.868801474571228
1758280772249947000,21.27994677734375,0.7370509505271912,1.707332730293274,-0.756352961063385
1758280772260032000,21.29003198242188,0.7029772996902466,1.4739936590194702,-0.6449333429336548
1758280772270116900,21.30011694335937,0.6705716848373413,1.242822289466858,-0.5362545251846313
1758280772280202000,21.310201904296875,0.6485536098480225,1.0439163446426392,-0.4372777044773102
1758280772290285800,21.32028588867188,0.6306115984916687,0.9013930559158324,-0.354308009147644
1758280772300371000,21.330370849609373,0.620122492313385,0.8155639171600342,-0.2864698767662048
1758280772310455800,21.340455810546874,0.614678144454956,0.7869991660118103,-0.2247263491153717
1758280772320541000,21.350541015625,0.6107183694839478,0.7897610664367676,-0.180358201265335
1758280772330625800,21.36062573242188,0.6170266270637512,0.8220361471176147,-0.1412685960531234
1758280772340711000,21.3707109375,0.6425843834877014,0.8687994480133057,-0.1049119904637336
1758280772350795800,21.380795654296875,0.6761743426322937,0.916667103767395,-0.0679084286093711
1758280772360879900,21.3908798828125,0.7186470627784729,0.9719001650810242,-0.0154198314994573
1758280772370964700,21.40096484375,0.75374436378479,1.0217204093933103,0.0642622113227844
1758280772381049900,21.4110498046875,0.7815703749656677,1.0684597492218018,0.1508170813322067
1758280772391134700,21.421134765625,0.7992191910743713,1.1192333698272705,0.2332160919904709
1758280772401219800,21.4312197265625,0.808726966381073,1.1750574111938477,0.3243980705738067
1758280772411304700,21.4413046875,0.8157276511192322,1.2267816066741943,0.4021432101726532
1758280772421389800,21.451389892578124,0.8182292580604553,1.283629298210144,0.4725976288318634
1758280772431475000,21.461474853515625,0.810998797416687,1.3303192853927612,0.5372658371925354
1758280772441558800,21.471558837890623,0.7901833653450012,1.3624728918075562,0.6053112149238586
1758280772451643600,21.4816435546875,0.7513723373413086,1.3789184093475342,0.681553304195404
1758280772461728800,21.491728759765625,0.6861947178840637,1.3962314128875732,0.7497614026069641
1758280772471814000,21.50181396484375,0.595704197883606,1.4197931289672852,0.7905554175376892
1758280772481898800,21.511898681640623,0.4935937821865082,1.4563275575637815,0.820472002029419
1758280772491984000,21.52198388671875,0.4102571010589599,1.501433491706848,0.8505470752716064
1758280772502068700,21.53206884765625,0.369728535413742,1.5376150608062744,0.8844781517982483
1758280772512153900,21.54215380859375,0.3568923771381378,1.5566463470458984,0.9119358658790588
1758280772522237700,21.55223779296875,0.3474028706550598,1.5317944288253784,0.9307757616043092
1758280772532322800,21.56232275390625,0.3118456900119781,1.4498915672302246,0.9541180729866028
1758280772542407200,21.5724072265625,0.2557306885719299,1.30961012840271,1.0111892223358154
1758280772552492300,21.5824921875,0.1707489490509033,1.128705382347107,1.092949151992798
1758280772562577200,21.5925771484375,0.0654827579855918,0.925503671169281,1.1918329000473022
1758280772572662300,21.602662353515623,-0.0574255883693695,0.7365569472312927,1.293099045753479
1758280772582747100,21.6127470703125,-0.1835199296474456,0.5754187107086182,1.3987098932266235
1758280772592831500,21.62283154296875,-0.3091180622577667,0.4298828244209289,1.4966261386871338
1758280772602916400,21.632916259765626,-0.4187134802341461,0.273235946893692,1.5923551321029663
1758280772613001500,21.64300146484375,-0.5126080513000488,0.0866743251681327,1.6747980117797852
1758280772623086300,21.65308642578125,-0.5877360701560974,-0.1340679377317428,1.7285786867141724
1758280772633171200,21.663171142578125,-0.6643943190574646,-0.3684828579425812,1.729511260986328
1758280772643256300,21.67325634765625,-0.7506630420684814,-0.6303175091743469,1.6971672773361206
1758280772653341200,21.683341064453124,-0.8475144505500793,-0.9548375606536864,1.6441419124603271
1758280772663426300,21.69342626953125,-0.933169424533844,-1.1875178813934326,1.5654327869415283
1758280772673510400,21.703510498046874,-0.9607611298561096,-1.216790795326233,1.4535962343215942
1758280772683595500,21.713595458984376,-0.8737062215805054,-1.002968192100525,1.3147737979888916
1758280772693680400,21.72368041992188,-0.6844993233680725,-0.6473309993743896,1.1380066871643066
1758280772703765500,21.733765625,-0.4522061944007873,-0.2526185214519501,0.922366738319397
1758280772713850400,21.743850341796875,-0.2375396639108657,0.1774990260601043,0.6833163499832153
1758280772723935500,21.753935546875,-0.0716350898146629,0.5619094967842102,0.4407760202884674
1758280772734020400,21.764020263671878,0.0133511740714311,0.8612131476402283,0.1904418170452118
1758280772744105200,21.77410522460937,0.0122971534729003,1.078750491142273,-0.0742736160755157
1758280772754189300,21.784189208984376,-0.0533268600702285,1.2310616970062256,-0.35063037276268
1758280772764274400,21.7942744140625,-0.1634910702705383,1.3637094497680664,-0.5968634486198425
1758280772774359300,21.804359375,-0.2942821085453033,1.4824837446212769,-0.7854242920875549
1758280772784444400,21.8144443359375,-0.4344234466552734,1.567976951599121,-0.8920538425445557
1758280772794529500,21.824529541015625,-0.5475201606750488,1.596602201461792,-0.9221771359443665
1758280772804614400,21.834614501953126,-0.6065856218338013,1.572767972946167,-0.8872745633125305
1758280772814699500,21.844699462890624,-0.5913491249084473,1.493136286735535,-0.8243541717529297
1758280772824784400,21.854784423828125,-0.5046949982643127,1.348717451095581,-0.7566198110580444
1758280772834868500,21.86486840820313,-0.3740485906600952,1.1585676670074463,-0.7057598233222961
1758280772844953300,21.874953369140623,-0.2425475120544433,0.9654380679130554,-0.673435628414154
1758280772855038500,21.88503857421875,-0.1511068195104599,0.7863391637802124,-0.6586188673973083
1758280772865123300,21.895123291015626,-0.1132580488920211,0.6261078119277954,-0.6379348635673523
1758280772875208400,21.90520849609375,-0.1212936043739318,0.4755688905715942,-0.6115879416465759
1758280772885293300,21.915293212890624,-0.1576628983020782,0.3146511912345886,-0.5651496052742004
1758280772895378400,21.92537841796875,-0.207742303609848,0.1399140059947967,-0.5094069838523865
1758280772905462300,21.935462158203126,-0.2521438300609588,-0.0284734219312667,-0.4395407736301422
1758280772915547400,21.94554736328125,-0.2621173858642578,-0.1596724390983581,-0.3567114174365997
1758280772925632300,21.95563232421875,-0.2464489340782165,-0.2390580773353576,-0.2604429423809051
1758280772935717400,21.96571728515625,-0.2102065086364746,-0.2576056718826294,-0.164278045296669
1758280772945802200,21.97580224609375,-0.1830262690782547,-0.2212096005678177,-0.0823937430977821
1758280772955887400,21.98588745117188,-0.1808414012193679,-0.1659780442714691,-0.0205559413880109
1758280772965972500,21.99597241210937,-0.2312219738960266,-0.1212849169969558,0.0283800289034843
1758280772976057300,22.006057373046875,-0.3452707529067993,-0.1014941707253456,0.0697996467351913
1758280772986142500,22.016142578125,-0.5007911324501038,-0.1081111207604408,0.1066997796297073
1758280772996226300,22.02622631835937,-0.6811414361000061,-0.1316606551408767,0.1502581685781479
1758280773006311400,22.0363115234375,-0.8445356488227844,-0.1632742583751678,0.1944209039211273
1758280773016396300,22.046396240234376,-0.9574227929115297,-0.1880371272563934,0.2423202395439148
1758280773026481400,22.0564814453125,-1.007912516593933,-0.2021718621253967,0.2722949683666229
1758280773036566300,22.06656616210937,-0.9958465695381165,-0.1919509172439575,0.2915373742580414
1758280773046651400,22.0766513671875,-0.9428811073303224,-0.1584875136613845,0.2908194363117218
1758280773056736300,22.086736328125,-0.8741356134414673,-0.1127261668443679,0.2815750539302826
1758280773066821400,22.0968212890625,-0.8073624968528748,-0.0430891811847686,0.2722057402133941
1758280773076905200,22.1069052734375,-0.7569025158882141,0.0373923443257808,0.2533921003341675
1758280773086990300,22.116990234375,-0.7257443070411682,0.1186653673648834,0.2478114515542984
1758280773097075200,22.1270751953125,-0.7027665972709656,0.2088322788476944,0.2500583529472351
1758280773107160300,22.137160400390623,-0.6878634691238403,0.295080304145813,0.2604775726795196
1758280773117245400,22.147245361328125,-0.6690722107887268,0.3752712905406952,0.2882484793663025
1758280773127330300,22.157330322265626,-0.6427661776542664,0.4476891160011291,0.3328249752521515
1758280773137415400,22.16741552734375,-0.6163734197616577,0.5119439959526062,0.3720349669456482
1758280773147500300,22.177500244140624,-0.5811889171600342,0.5656997561454773,0.403765469789505
1758280773157584400,22.18758447265625,-0.5440682172775269,0.6192948222160339,0.4278185963630676
1758280773167669200,22.197669189453126,-0.5026658773422241,0.6715316772460938,0.4402937591075897
1758280773177754400,22.20775439453125,-0.464443951845169,0.7167980074882507,0.4448373913764953
1758280773187839200,22.217839111328125,-0.4234482049942016,0.7620412111282349,0.4367374181747436
1758280773197924400,22.22792431640625,-0.3821295201778412,0.8059860467910767,0.4314446449279785
1758280773208009200,22.23800927734375,-0.3376256227493286,0.8443373441696167,0.4285511374473572
1758280773218094300,22.24809423828125,-0.2948107719421386,0.8775245547294617,0.433611661195755
1758280773228179200,22.25817919921875,-0.2484483867883682,0.9059122800827026,0.4508579671382904
1758280773238263300,22.26826318359375,-0.1914319694042205,0.9281023144721984,0.4655247926712036
1758280773248348200,22.27834814453125,-0.1335586309432983,0.924674928188324,0.492666095495224
1758280773258433300,22.28843334960937,-0.0816011577844619,0.8830713033676147,0.5341376066207886
1758280773268518100,22.29851806640625,-0.0486124567687511,0.8006836175918579,0.5888528823852539
1758280773278603300,22.308603271484376,-0.0418419018387794,0.6890060901641846,0.6462981104850769
1758280773288688400,22.3186884765625,-0.0703378170728683,0.5539394021034241,0.7069684267044067
1758280773298773200,22.32877319335937,-0.1300706565380096,0.4018968641757965,0.7583557367324829
1758280773308858400,22.3388583984375,-0.2147958129644394,0.2432102113962173,0.7899131178855896
1758280773318942200,22.34894213867188,-0.3167301714420318,0.112874299287796,0.7810301780700684
1758280773329027300,22.35902734375,-0.4172075092792511,0.0532327741384506,0.7214428186416626
1758280773339112200,22.3691123046875,-0.5019287467002869,0.0887462943792343,0.5973358154296875
1758280773349197300,22.379197265625,-0.5657643675804138,0.2145757526159286,0.3962475061416626
1758280773359282200,22.3892822265625,-0.6152533888816833,0.4239145815372467,0.1445577442646026
1758280773369367300,22.3993671875,-0.6609713435173035,0.6734784245491028,-0.0746238529682159
1758280773379452200,22.4094521484375,-0.7133746147155762,0.8945197463035583,-0.2059927880764007
1758280773389537300,22.419537353515626,-0.7684197425842285,1.0817067623138428,-0.2685060203075409
1758280773399621400,22.429621337890627,-0.8063024282455444,1.2962638139724731,-0.2814700305461883
1758280773409706200,22.439706298828124,-0.7921344637870789,1.6081483364105225,-0.2569863796234131
1758280773419791000,22.449791015625,-0.6986335515975952,2.0289065837860107,-0.2231136411428451
1758280773429876200,22.459876220703126,-0.5294501781463623,2.460707902908325,-0.1825177669525146
1758280773439961300,22.46996142578125,-0.3095084726810455,2.7563631534576416,-0.1562496870756149
1758280773450046200,22.480046142578125,-0.0579378902912139,2.8509325981140137,-0.158475637435913
1758280773460131300,22.49013134765625,0.1587001383304596,2.7476322650909424,-0.1842081695795059
1758280773470216200,22.50021630859375,0.263666957616806,2.543541193008423,-0.2165908366441726
1758280773480301300,22.51030126953125,0.2497714012861251,2.358827590942383,-0.2342563867568969
1758280773490385400,22.520385498046878,0.1512684226036071,2.258079767227173,-0.2542315721511841
1758280773500470300,22.53047021484375,0.039891567081213,2.214560031890869,-0.3098431527614593
1758280773510555400,22.54055541992188,-0.012641817331314,2.168036937713623,-0.4129872024059295
1758280773520640300,22.55064013671875,0.0279969554394483,2.057948589324951,-0.5479289889335632
1758280773530725000,22.56072509765625,0.1723542660474777,1.868677020072937,-0.6854749917984009
1758280773540810500,22.570810546875,0.3846151232719421,1.6192989349365234,-0.7989789247512817
1758280773550895600,22.5808955078125,0.6362999081611633,1.3399065732955933,-0.8615230321884155
1758280773560980500,22.59098046875,0.8850980401039124,1.0728332996368408,-0.860357403755188
1758280773571064800,22.60106494140625,1.0802133083343506,0.8487793803215027,-0.8188767433166504
1758280773581149700,22.611149658203125,1.1920138597488403,0.695816695690155,-0.7501296401023865
1758280773591234600,22.621234619140623,1.216647982597351,0.6142606735229492,-0.6989170908927917
1758280773601319400,22.6313193359375,1.1716972589492798,0.5823927521705627,-0.6828699111938477
1758280773611404500,22.641404541015625,1.077978014945984,0.5711414217948914,-0.7061995267868042
1758280773621489400,22.65148950195313,0.9631903767585754,0.5636630058288574,-0.7602952718734741
1758280773631574500,22.661574462890623,0.858768880367279,0.573678731918335,-0.8236703276634216
1758280773641659400,22.671659423828125,0.7871463298797607,0.6155252456665039,-0.8887798190116882
1758280773651743700,22.68174365234375,0.7695709466934204,0.6847094893455505,-0.9405479431152344
1758280773661828600,22.69182861328125,0.8049848675727844,0.7979090213775635,-0.9837835431098938
1758280773671913700,22.701913818359376,0.8832772970199585,0.9560256004333496,-1.013898849487305
1758280773681998800,22.711998779296877,0.9890719056129456,1.140944480895996,-1.0511276721954346
1758280773692083700,22.72208374023437,1.099139928817749,1.3540757894515991,-1.1002013683319092
1758280773702168600,22.73216845703125,1.1812041997909546,1.5800330638885498,-1.1619133949279783
1758280773712253700,22.742253662109373,1.230663537979126,1.7746155261993408,-1.2192504405975342
1758280773722338600,22.752338623046874,1.2447370290756226,1.9108375310897827,-1.2675915956497192
1758280773732423400,22.76242333984375,1.2311676740646362,1.973278522491455,-1.3028836250305176
1758280773742507800,22.7725078125,1.1975059509277344,1.954372763633728,-1.322574496269226
1758280773752592600,22.782592529296878,1.1479613780975342,1.855791687965393,-1.332870602607727
1758280773762677800,22.792677734375,1.1139270067214966,1.6944196224212646,-1.3349374532699585
1758280773772762600,22.8027626953125,1.0919716358184814,1.470224142074585,-1.3316813707351685
1758280773782847700,22.81284765625,1.084299921989441,1.202367067337036,-1.3272783756256104
1758280773792932600,22.8229326171875,1.0896265506744385,0.9038997888565063,-1.3103864192962646
1758280773803017700,22.833017822265624,1.1058905124664309,0.6126024723052979,-1.2928612232208252
1758280773813102800,22.843102783203125,1.1323976516723633,0.3639589250087738,-1.261650323867798
1758280773823186700,22.853186767578126,1.1554635763168335,0.1454010009765625,-1.222543478012085
1758280773833271600,22.863271484375,1.1575920581817627,-0.0577187240123748,-1.1674129962921145
1758280773843356700,22.873356689453125,1.143380880355835,-0.2160598933696746,-1.1222940683364868
1758280773853441800,22.88344189453125,1.123682975769043,-0.3085915744304657,-1.0859638452529907
1758280773863526700,22.893526611328124,1.0902045965194702,-0.370135098695755,-1.0493760108947754
1758280773873611800,22.90361181640625,1.0409799814224243,-0.4100151658058166,-1.0019114017486572
1758280773883696600,22.91369653320313,0.9822238683700562,-0.4478581547737121,-0.9297341704368592
1758280773893781800,22.92378173828125,0.9131439924240112,-0.4631903767585754,-0.823749840259552
1758280773903866600,22.93386669921875,0.8219685554504395,-0.455566793680191,-0.6927524209022522
1758280773913950700,22.94395068359375,0.690602719783783,-0.4396780133247375,-0.5522914528846741
1758280773924035600,22.95403564453125,0.5072198510169983,-0.3927621841430664,-0.4204671382904053
1758280773934120700,22.96412060546875,0.2681683599948883,-0.2934387624263763,-0.2967423498630523
1758280773944205600,22.97420556640625,0.0019699481781572,-0.145541176199913,-0.187182068824768
1758280773954290700,22.98429077148437,-0.2524549663066864,0.0113819483667612,-0.101637028157711
1758280773964375600,22.99437548828125,-0.4793355166912079,0.1954085081815719,-0.0386418141424655
1758280773974460700,23.004460693359373,-0.6437669396400452,0.3749702274799347,0.0231591742485761
1758280773984545800,23.0145458984375,-0.7637884020805359,0.5539950728416443,0.0930226743221283
1758280773994629600,23.024629638671875,-0.8308746814727783,0.717829167842865,0.1892009973526001
1758280774004714800,23.03471484375,-0.8584147095680237,0.8408064842224121,0.3115868270397186
1758280774014799600,23.044799560546878,-0.8705263137817383,0.8682000637054443,0.4765678942203522
1758280774024884700,23.054884765625,-0.9212765693664552,0.7476057410240173,0.6615225672721863
1758280774034969600,23.06496948242188,-1.0352181196212769,0.4768091142177582,0.8612991571426392
1758280774045054700,23.0750546875,-1.2066107988357544,0.0855260342359542,1.042891263961792
1758280774055139600,23.0851396484375,-1.421774983406067,-0.3535770773887634,1.1771955490112305
1758280774065224700,23.095224609375,-1.6603502035140991,-0.7769064903259277,1.2477644681930542
1758280774075309600,23.1053095703125,-1.8742117881774905,-1.1417423486709597,1.2561274766921997
1758280774085393700,23.1153935546875,-2.008418560028076,-1.420224905014038,1.2125697135925293
1758280774095478500,23.125478515625,-2.0362889766693115,-1.609269380569458,1.1408088207244873
1758280774105563600,23.135563720703125,-1.9599684476852417,-1.696096420288086,1.0633662939071655
1758280774115648500,23.1456484375,-1.792853593826294,-1.6756536960601809,0.9596465826034546
1758280774125733600,23.155733642578124,-1.5409334897994995,-1.5866596698760986,0.8122283816337585
1758280774135818800,23.16581884765625,-1.2209477424621582,-1.4121848344802856,0.6580826640129089
1758280774145903600,23.17590356445313,-0.8777560591697693,-1.2011088132858276,0.5469297766685486
1758280774155988700,23.18598876953125,-0.5860602259635925,-0.9896116852760316,0.446088582277298
1758280774166073600,23.196073486328125,-0.3845135569572449,-0.8305376172065735,0.3509234488010406
1758280774176157700,23.20615771484375,-0.2923015058040619,-0.7341177463531494,0.2831731140613556
1758280774186242600,23.21624267578125,-0.3051616251468658,-0.7116401195526123,0.2707521319389343
1758280774196327700,23.22632763671875,-0.4057699739933014,-0.6979557275772095,0.2651000618934631
1758280774206412500,23.23641259765625,-0.5856603980064392,-0.6270917057991028,0.2613961398601532
1758280774216497700,23.24649755859375,-0.8167665004730225,-0.4706683456897735,0.2583124041557312
1758280774226582500,23.25658251953125,-1.0452440977096558,-0.2597909867763519,0.2866159677505493
1758280774236667600,23.266667724609373,-1.241620659828186,-0.0574508272111415,0.3397859334945678
1758280774246752500,23.27675244140625,-1.4047456979751587,0.1048728302121162,0.3832449913024902
1758280774256836600,23.286836669921875,-1.5304111242294312,0.1928673833608627,0.4280218780040741
1758280774266921500,23.29692138671875,-1.6123965978622437,0.1819396317005157,0.4774245619773865
1758280774277006600,23.307006591796878,-1.6421157121658323,0.0467839501798152,0.5419297218322754
1758280774287091500,23.31709155273437,-1.6104483604431152,-0.211439624428749,0.6068519949913025
1758280774297176600,23.32717651367188,-1.536292552947998,-0.6118466854095459,0.6692992448806763
1758280774307261700,23.33726171875,-1.4367094039916992,-1.097132682800293,0.7269971370697021
1758280774317346600,23.3473466796875,-1.3345474004745483,-1.5894010066986084,0.7883529663085938
1758280774327431700,23.357431640625,-1.2548855543136597,-2.046464443206787,0.836299479007721
1758280774337516500,23.3675166015625,-1.206865668296814,-2.4402005672454834,0.8609470725059509
1758280774347600600,23.3776005859375,-1.1988685131072998,-2.7455973625183105,0.8604099154472351
1758280774357685500,23.387685546875,-1.2237045764923096,-2.9679877758026123,0.8423359990119934
1758280774367770600,23.3977705078125,-1.2753459215164185,-3.091148376464844,0.8112965822219849
1758280774377855500,23.40785546875,-1.3337085247039795,-3.112616777420044,0.7664050459861755
1758280774387940600,23.417940673828124,-1.400008201599121,-3.038856267929077,0.718172013759613
1758280774398025500,23.428025390625,-1.4615651369094849,-2.893596887588501,0.6748434901237488
1758280774408110600,23.43811059570313,-1.4987053871154783,-2.6749520301818848,0.637392520904541
1758280774418195700,23.44819580078125,-1.5271103382110596,-2.4068286418914795,0.6113150119781494
1758280774428280600,23.458280517578125,-1.562638521194458,-2.114351272583008,0.5850514769554138
1758280774438364400,23.46836450195313,-1.5807874202728271,-1.7785876989364624,0.5551033020019531
1758280774448449500,23.478449462890627,-1.581973671913147,-1.436927080154419,0.5137132406234741
1758280774458534700,23.48853466796875,-1.57941472530365,-1.0986462831497192,0.4730666279792785
1758280774468619500,23.49861962890625,-1.56709623336792,-0.7764481902122498,0.4403198659420013
1758280774478704600,23.50870458984375,-1.5385470390319824,-0.4828754961490631,0.3867578208446502
1758280774488789500,23.51878955078125,-1.4817330837249756,-0.2344957888126373,0.3064792454242706
1758280774498874600,23.52887451171875,-1.39812171459198,-0.0385836772620677,0.2103041559457779
1758280774508959500,23.53895947265625,-1.306614875793457,0.0845837891101837,0.0892514958977699
1758280774519043600,23.549043701171875,-1.1929738521575928,0.1371823251247406,-0.0453809760510921
1758280774529128400,23.55912841796875,-1.066993236541748,0.1171066164970398,-0.1634325236082077
1758280774539213000,23.569213134765626,-0.9114908576011658,0.0639327764511108,-0.2455167025327682
1758280774549298000,23.5792978515625,-0.7200831174850464,0.0139004997909069,-0.2814089357852936
1758280774559383000,23.589383056640624,-0.5087569952011108,-0.0328486301004886,-0.3006230890750885
1758280774569468000,23.59946801757813,-0.2746374905109405,-0.0928264781832695,-0.3444920182228088
1758280774579552800,23.609552734375,-0.0152828264981508,-0.2035746276378631,-0.4368550777435303
1758280774589637600,23.6196376953125,0.2600837647914886,-0.3793842494487762,-0.5362280011177063
1758280774599722800,23.62972265625,0.5635642409324646,-0.5636304616928101,-0.5961015820503235
1758280774609806800,23.639806884765623,0.8975321054458618,-0.7775046825408936,-0.6161509156227112
1758280774619892000,23.64989208984375,1.2021313905715942,-0.9865676760673524,-0.6120190024375916
1758280774629976800,23.659976806640625,1.429804801940918,-1.0662145614624023,-0.5889301896095276
1758280774640062000,23.67006201171875,1.5810168981552124,-0.9388753175735474,-0.5295285582542419
1758280774650147000,23.68014697265625,1.656081199645996,-0.6621965765953064,-0.4245920479297638
1758280774660232000,23.69023193359375,1.6614303588867188,-0.2822875380516052,-0.2890384793281555
1758280774670317000,23.700317138671878,1.6107900142669678,0.1726381629705429,-0.1693176627159118
1758280774680402000,23.71040185546875,1.5524131059646606,0.653618335723877,-0.1018048375844955
1758280774690486000,23.720486083984376,1.5089378356933594,1.0543047189712524,-0.0931596830487251
1758280774700571000,23.73057080078125,1.5020966529846191,1.309903264045715,-0.1186016276478767
1758280774710656000,23.74065600585937,1.5451109409332275,1.4529842138290403,-0.1680967360734939
1758280774720740900,23.75074096679688,1.638759732246399,1.5286492109298706,-0.2180625945329666
1758280774730826000,23.760825927734373,1.7766656875610352,1.563145875930786,-0.2456079423427581
1758280774740910800,23.770910888671875,1.950161814689636,1.5619655847549438,-0.2441979944705963
1758280774750996000,23.780995849609376,2.1202895641326904,1.5180034637451172,-0.1830869615077972
1758280774761081000,23.7910810546875,2.235104322433472,1.4223943948745728,-0.1023783311247825
1758280774771166000,23.801166015625,2.2659425735473637,1.287547588348389,-0.0360070317983627
1758280774781249800,23.81124975585937,2.209202527999878,1.1275689601898191,-0.0127283129841089
1758280774791335000,23.8213349609375,2.0731825828552246,0.948588490486145,-0.0418688878417015
1758280774801420000,23.831419921875,1.8837828636169436,0.796201229095459,-0.1292513757944107
1758280774811505000,23.8415048828125,1.6747454404830933,0.728943943977356,-0.2487796396017074
1758280774821590000,23.851590087890624,1.489958882331848,0.823162317276001,-0.3705654740333557
1758280774831675000,23.8616748046875,1.3658949136734009,1.1128034591674805,-0.4840281009674072
1758280774841760000,23.871760009765627,1.330399513244629,1.5753265619277954,-0.5819541811943054
1758280774851844900,23.881844970703124,1.3801122903823853,2.147209405899048,-0.6700723171234131
1758280774861930000,23.891929931640625,1.4963736534118652,2.72502875328064,-0.7642510533332825
1758280774872013800,23.902013916015623,1.6537110805511477,3.1870312690734863,-0.8850675225257874
1758280774882099000,23.912098876953124,1.8014752864837649,3.462835788726806,-1.016060709953308
1758280774892183800,23.922183837890625,1.9266153573989868,3.540487766265869,-1.1573642492294312
1758280774902269000,23.93226904296875,2.0163252353668213,3.4336419105529785,-1.2911208868026731
1758280774912353800,23.942353759765624,2.0774142742156982,3.1800248622894287,-1.3997360467910769
1758280774922439000,23.95243896484375,2.1118953227996826,2.7980871200561523,-1.488295316696167
1758280774932524000,23.96252392578125,2.136816024780273,2.312089681625366,-1.567375421524048
1758280774942609000,23.97260888671875,2.155327558517456,1.7363064289093018,-1.6289390325546265
1758280774952694000,23.98269409179688,2.182873010635376,1.115228295326233,-1.6671909093856812
1758280774962777900,23.99277783203125,2.228455066680908,0.4857747554779053,-1.6691186428070068
1758280774972863000,24.00286303710937,2.284964084625244,-0.1058395504951477,-1.6031590700149536
1758280774982947800,24.01294775390625,2.3377859592437744,-0.6084008812904358,-1.4912755489349363
1758280774993033000,24.023032958984373,2.354749917984009,-1.0264892578125,-1.3737335205078125
1758280775003117800,24.033117919921875,2.326615333557129,-1.3452006578445437,-1.2657819986343384
1758280775013203000,24.043202880859376,2.266291856765747,-1.5561444759368896,-1.1354860067367554
1758280775023287800,24.05328784179688,2.18738865852356,-1.6687555313110352,-1.0196911096572876
1758280775033373000,24.063373046875,2.076796054840088,-1.6349787712097168,-0.9702922105789183
1758280775043457800,24.073457763671875,1.930246472358704,-1.4837507009506226,-0.9770617485046388
1758280775053542000,24.0835419921875,1.756645441055298,-1.2151572704315186,-1.0083431005477903
1758280775063626800,24.09362670898437,1.5292502641677856,-0.8688714504241943,-1.0332704782485962
1758280775073711900,24.1037119140625,1.2163461446762085,-0.4580926895141601,-1.0046813488006592
1758280775083797000,24.113796875,0.7958256006240845,-0.0496620461344718,-0.8897534608840942
1758280775093881900,24.1238818359375,0.3098820149898529,0.338419109582901,-0.6858067512512207
1758280775103967000,24.133967041015627,-0.153389573097229,0.7142596244812012,-0.4622533917427063
1758280775114051800,24.1440517578125,-0.5246427059173584,1.0092895030975342,-0.2784563899040222
1758280775124137000,24.154136962890625,-0.8271232843399048,1.2485512495040894,-0.1539545655250549
1758280775134221800,24.164221923828126,-1.1173652410507202,1.421606183052063,-0.0332390591502189
1758280775144306000,24.174305908203124,-1.4281970262527466,1.587828278541565,0.1418730616569519
1758280775154390800,24.184390869140625,-1.7388129234313965,1.7598998546600342,0.3523344397544861
1758280775164476000,24.19447583007813,-1.9877266883850095,1.899788737297058,0.5372798442840576
1758280775174560800,24.204560791015624,-2.113515615463257,2.019365072250366,0.6734901666641235
1758280775184646000,24.21464599609375,-2.1027042865753174,2.101212739944458,0.7727649807929993
1758280775194730800,24.224730712890626,-1.9988707304000852,2.1122145652771,0.8307684063911438
1758280775204816000,24.23481591796875,-1.8627676963806152,2.035983800888061,0.8552559018135071
1758280775214901000,24.24490087890625,-1.772294282913208,1.8329758644104004,0.881342887878418
1758280775224984800,24.25498486328125,-1.7539314031600952,1.5545952320098877,0.9312705397605896
1758280775235069700,24.265069580078126,-1.812135934829712,1.2122597694396973,1.0537432432174685
1758280775245154800,24.27515478515625,-1.9089343547821045,0.8010045886039734,1.2485661506652832
1758280775255240000,24.285239990234373,-1.9750803709030151,0.3108908236026764,1.4972350597381592
1758280775265324800,24.29532470703125,-1.949733138084412,-0.2160478979349136,1.7398815155029297
1758280775275410000,24.305409912109376,-1.8033921718597408,-0.6861320734024048,1.9167414903640747
1758280775285494800,24.31549487304688,-1.5137747526168823,-1.024425983428955,1.995874047279358
1758280775295580000,24.32557983398437,-1.113529086112976,-1.237672209739685,1.974870204925537
1758280775305664800,24.335664794921875,-0.6525837182998657,-1.3927534818649292,1.8917200565338133
1758280775315748900,24.34574877929688,-0.2218994498252868,-1.5482933521270752,1.7732945680618286
1758280775325833700,24.35583374023437,0.1223590970039367,-1.7564629316329956,1.6493123769760132
1758280775335918800,24.3659189453125,0.3205827176570892,-2.055187702178955,1.5289816856384275
1758280775346003700,24.376003662109376,0.3666186332702636,-2.458956718444824,1.425472378730774
1758280775356088800,24.3860888671875,0.2616416215896606,-2.9237005710601807,1.381294846534729
1758280775366173700,24.39617358398437,0.0253251660615205,-3.278538227081299,1.394973635673523
1758280775376258800,24.4062587890625,-0.319411426782608,-3.3405914306640625,1.3800681829452517
1758280775386344000,24.416343994140625,-0.73868727684021,-3.1272051334381104,1.3292001485824585
1758280775396428800,24.4264287109375,-1.1843643188476562,-2.8166072368621826,1.2749494314193726
1758280775406513000,24.436512939453124,-1.599279761314392,-2.566506147384644,1.1515603065490725
1758280775416597800,24.44659765625,-1.9424080848693848,-2.421931743621826,0.9912611842155457
1758280775426683000,24.45668286132813,-2.15213394165039,-2.404846668243408,0.8287790417671204
1758280775436767700,24.466767822265624,-2.222928524017334,-2.4608795642852783,0.6898110508918762
1758280775446852900,24.476852783203125,-2.1952908039093018,-2.5144174098968506,0.5812826156616211
1758280775456937700,24.486937744140626,-2.1374123096466064,-2.5560288429260254,0.4964713156223297
1758280775467022800,24.49702294921875,-2.113605260848999,-2.5796027183532715,0.4345767498016357
1758280775477107700,24.507107666015624,-2.144134521484375,-2.576423406600952,0.3839836120605469
1758280775487192800,24.51719287109375,-2.23457670211792,-2.560189962387085,0.3236436247825622
1758280775497276700,24.527276611328126,-2.366827726364136,-2.524975299835205,0.244045227766037
1758280775507361800,24.53736181640625,-2.538111925125122,-2.444586992263794,0.1640764027833938
1758280775517446700,24.54744677734375,-2.717739582061768,-2.328604221343994,0.0905989930033683
1758280775527531800,24.55753173828125,-2.911684036254883,-2.170273542404175,0.007107532583177
1758280775537617000,24.567616943359376,-3.093418836593628,-1.945551872253418,-0.095626562833786
1758280775547702300,24.577702392578125,-3.2081589698791504,-1.651412844657898,-0.224261924624443
1758280775557787400,24.587787353515623,-3.206427812576294,-1.3139705657958984,-0.346560925245285
1758280775567872300,24.597872314453124,-3.065372943878174,-0.9851551651954652,-0.425501674413681
1758280775577956400,24.607956298828125,-2.7964212894439697,-0.7353115081787109,-0.4351590871810913
1758280775588041200,24.618041259765626,-2.4548842906951904,-0.6138643622398376,-0.3838809728622436
1758280775598126300,24.628126220703123,-2.098116397857666,-0.644099771976471,-0.3312963247299194
1758280775608211200,24.638211181640624,-1.783491134643555,-0.7802386283874512,-0.3141557872295379
1758280775618296300,24.64829638671875,-1.498848795890808,-0.931250810623169,-0.3296774923801422
1758280775628381200,24.658381103515627,-1.204584717750549,-0.949354350566864,-0.3787223398685455
1758280775638466300,24.66846630859375,-0.8968178629875183,-0.8044818639755249,-0.476822555065155
1758280775648551200,24.67855126953125,-0.5954931974411011,-0.5504036545753479,-0.5770085453987122
1758280775658636300,24.68863623046875,-0.3085807859897613,-0.1878014653921127,-0.6548442244529724
1758280775668721400,24.69872143554688,-0.0314634479582309,0.2943234145641327,-0.6969889402389526
1758280775678805200,24.70880517578125,0.2436187267303466,0.8653776049613953,-0.717279851436615
1758280775688890000,24.71889013671875,0.5214758515357971,1.449225902557373,-0.7241101861000061
1758280775698975200,24.728975341796875,0.7948610186576843,1.9818538427352903,-0.6746169328689575
1758280775709060400,24.739060302734377,1.0867059230804443,2.403332233428955,-0.5694640874862671
1758280775719145200,24.749145263671878,1.367751955986023,2.714709520339966,-0.4378637075424194
1758280775729230300,24.75923022460937,1.6152225732803345,2.9262936115264893,-0.3231862485408783
1758280775739315200,24.76931518554688,1.8364739418029783,3.0641164779663086,-0.2808169424533844
1758280775749400300,24.779400390625,2.05208420753479,3.125039339065552,-0.3260650634765625
1758280775759484400,24.789484375,2.3050057888031006,3.1225714683532715,-0.4613832235336303
1758280775769569300,24.7995693359375,2.6089820861816406,3.0731565952301025,-0.6500064730644226
1758280775779654100,24.809654052734373,2.941277503967285,2.9787888526916504,-0.8183584809303284
1758280775789739300,24.8197392578125,3.23237681388855,2.870117664337158,-0.922252357006073
1758280775799824100,24.82982421875,3.417510509490967,2.7856242656707764,-1.00645911693573
1758280775809909200,24.8399091796875,3.4888696670532227,2.73859977722168,-1.1065616607666016
1758280775819994000,24.849994140625,3.4546337127685547,2.725615262985229,-1.2240347862243652
1758280775830079200,24.860079345703124,3.342825412750244,2.713010787963867,-1.3213645219802856
1758280775840164400,24.870164306640625,3.185131072998047,2.6986045837402344,-1.42619526386261
1758280775850248400,24.88024853515625,3.012906312942505,2.6823067665100098,-1.5296549797058103
1758280775860333300,24.890333251953123,2.866506576538086,2.6576993465423584,-1.616889715194702
1758280775870418400,24.90041845703125,2.7663445472717285,2.6069912910461426,-1.6839290857315063
1758280775880503300,24.91050341796875,2.6991043090820312,2.5355141162872314,-1.7535396814346311
1758280775890588200,24.920588134765627,2.627906560897827,2.4303829669952397,-1.832001805305481
1758280775900673300,24.93067333984375,2.540186643600464,2.264066457748413,-1.927865982055664
1758280775910758100,24.940758056640625,2.437657356262207,2.0288774967193604,-2.026116132736206
1758280775920843300,24.95084326171875,2.3476641178131104,1.7420730590820312,-2.077300310134888
1758280775930928000,24.96092822265625,2.3085591793060303,1.434354543685913,-2.053953170776367
1758280775941012500,24.97101245117188,2.322183847427368,1.0855425596237185,-1.981173515319824
1758280775951097300,24.98109741210937,2.362045764923096,0.6957408785820007,-1.871673583984375
