time,seconds_elapsed,z,y,x
1757863703257513500,0.018513427734375,0.04448765143752098,-0.048404015600681305,-0.004347790032625198
1757863703267498500,0.02849853515625,0.047075629234313965,-0.038059674203395844,0.012609634548425674
1757863703277484500,0.038484619140625,0.0257335864007473,-0.004834077320992947,0.030656546354293823
1757863703287469600,0.048469482421875,0.012041743844747543,0.020320380106568336,0.038643475621938705
1757863703297455600,0.05845556640625,0.03700754791498184,0.054427217692136765,0.025052567943930626
1757863703307440600,0.068440673828125,0.05163160338997841,0.04288247600197792,0.013522563502192497
1757863703317426400,0.078426513671875,0.09567442536354065,0.007213427685201168,0.002982038538902998
1757863703327411500,0.088411376953125,0.12795013189315796,0.001308997394517064,-0.0074883028864860535
1757863703337397500,0.0983974609375,0.12452477216720581,-0.00486181303858757,-0.008946383371949196
1757863703347382500,0.108382568359375,0.0980420932173729,0.021502498537302017,-0.007912945002317429
1757863703357367600,0.118367431640625,0.046100061386823654,0.08867967128753662,-0.0024502696469426155
1757863703367353300,0.128353271484375,-0.020643655210733414,0.17041340470314026,0.010134895332157612
1757863703377338400,0.13833837890625,-0.0726192370057106,0.21268361806869507,0.0216357558965683
1757863703387324700,0.14832470703125,-0.09804698824882507,0.2108946591615677,0.03189372643828392
1757863703397309400,0.158309326171875,-0.07694143801927567,0.17987175285816193,0.03190597891807556
1757863703407295500,0.16829541015625,-0.03619512915611267,0.1515834480524063,0.022366531193256378
1757863703417280500,0.178280517578125,0.0011775431921705604,0.12784616649150848,0.009660855866968632
1757863703427266600,0.1882666015625,0.02186870388686657,0.12351574748754501,0.0009306095307692885
1757863703437251600,0.19825146484375,0.02614893577992916,0.13997088372707367,0.004558101296424866
1757863703447237400,0.2082373046875,0.008698523044586182,0.1616104394197464,0.023091578856110573
1757863703457222400,0.218222412109375,-0.01409121137112379,0.1754508912563324,0.042662616819143295
1757863703467208700,0.228208740234375,-0.028410574421286583,0.20334158837795258,0.05181921273469925
1757863703477193500,0.238193359375,-0.03443411365151405,0.21251511573791504,0.05093610659241676
1757863703487178500,0.248178466796875,-0.022200174629688263,0.20345242321491241,0.040609464049339294
1757863703497164500,0.25816455078125,-0.012010653503239155,0.1824328899383545,0.037670399993658066
1757863703507149600,0.268149658203125,-0.0029577945824712515,0.14502498507499695,0.04762060195207596
1757863703517135600,0.278135498046875,-0.0108977435156703,0.11136690527200699,0.06452634930610657
1757863703527120600,0.28812060546875,-0.008112630806863308,0.08291452378034592,0.0721142441034317
1757863703537106400,0.2981064453125,0.011790502816438675,0.05350230261683464,0.06840606033802032
1757863703547091500,0.308091552734375,0.04614586755633354,0.020595138892531395,0.053233206272125244
1757863703557077800,0.318077880859375,0.07960103452205658,-0.0008904465939849615,0.04333529993891716
1757863703567062500,0.3280625,0.07843036204576492,-0.000018957536667585373,0.0483161062002182
1757863703577048600,0.338048583984375,0.03653936833143234,0.006424294784665108,0.07009037584066391
1757863703587033600,0.34803369140625,-0.04946788400411606,0.04145658761262894,0.09540168941020966
1757863703597018400,0.358018310546875,-0.09312614798545837,0.09688948839902878,0.11117160320281982
1757863703607004700,0.368004638671875,-0.11297918111085892,0.11865925788879395,0.11285287886857986
1757863703616989700,0.37798974609375,-0.12321531027555466,0.12734729051589966,0.10199277848005295
1757863703626975500,0.3879755859375,-0.12840721011161804,0.14245879650115967,0.08056271076202393
1757863703636960500,0.39796044921875,-0.12110056728124619,0.14393605291843414,0.0552498959004879
1757863703646946300,0.4079462890625,-0.1319647580385208,0.13621725142002106,0.03420160338282585
1757863703656931600,0.417931640625,-0.15497393906116486,0.13205979764461517,0.04065098240971565
1757863703666917600,0.427917724609375,-0.14266081154346466,0.1298186033964157,0.04596652090549469
1757863703676902700,0.437902587890625,-0.10084758698940277,0.11158820241689682,0.06359318643808365
1757863703686888400,0.447888427734375,-0.01698911003768444,0.08637919276952744,0.08175861090421677
1757863703696873500,0.45787353515625,0.06537606567144394,0.056833814829587936,0.08577599376440048
1757863703706858800,0.467858642578125,0.11943952739238739,0.04531048238277435,0.07326007634401321
1757863703716844500,0.477844482421875,0.14382076263427734,0.02760525420308113,0.05769709497690201
1757863703726829600,0.48782958984375,0.14109280705451965,0.014071160927414894,0.033974964171648026
1757863703736815400,0.4978154296875,0.11604577302932739,-0.013874453492462635,0.014152789488434792
1757863703746800400,0.50780029296875,0.0928151085972786,-0.03427476808428764,0.01157231256365776
1757863703756786700,0.51778662109375,0.05456225574016571,-0.02155471220612526,0.02463591657578945
1757863703766771500,0.527771484375,0.013720962218940258,0.008027429692447186,0.03673533722758293
1757863703776757500,0.537757568359375,-0.002667065942659974,0.05163988843560219,0.044408705085515976
1757863703786742500,0.547742431640625,-0.009846135042607784,0.07934872806072235,0.036545462906360626
1757863703796728600,0.557728515625,-0.009198454208672047,0.07224608212709427,0.028161033987998962
1757863703806713600,0.567713623046875,-0.0027791159227490425,0.0630987212061882,0.013744419440627098
1757863703816699400,0.577699462890625,-0.0043738167732954025,0.03448944166302681,0.004301648586988449
1757863703826684400,0.587684326171875,-0.011315728537738323,0.026393266394734383,0.0022437896113842726
1757863703836669400,0.59766943359375,-0.020216278731822968,0.02422066032886505,0.004276846535503864
1757863703846655500,0.607655517578125,-0.01662490889430046,0.03025318682193756,0.009199980646371841
1757863703856640500,0.617640625,-0.0009929517982527614,0.03452223539352417,0.0041580842807888985
1757863703866626600,0.62762646484375,0.019616099074482918,0.0012462493032217026,-0.007294955663383007
1757863703876611600,0.637611572265625,0.03666272759437561,-0.042178455740213394,-0.022358860820531845
1757863703886597600,0.64759765625,0.037291523069143295,-0.060334712266922,-0.02638917602598667
1757863703896582700,0.657582763671875,0.020483247935771942,-0.056173525750637054,-0.024481553584337234
1757863703906568400,0.667568359375,-0.007941418327391148,-0.05240027233958244,-0.02093302644789219
1757863703916553500,0.677553466796875,-0.02796705812215805,-0.0549561083316803,-0.01823151670396328
1757863703926539500,0.68753955078125,-0.04389295354485512,-0.04796604439616203,-0.019227128475904465
1757863703936524500,0.697524658203125,-0.060245297849178314,-0.024306785315275192,-0.01949317753314972
1757863703946510600,0.707510498046875,-0.05221761018037796,-0.029612328857183456,-0.010015641339123249
1757863703956495600,0.71749560546875,-0.006187535356730223,-0.04057896137237549,0.0004303416935727
1757863703966480400,0.72748046875,0.039507195353507996,-0.08959304541349411,-0.0063250367529690266
1757863703976466400,0.737466552734375,0.07183583825826645,-0.12139865010976791,-0.025304585695266724
1757863703986451700,0.74745166015625,0.06777221709489822,-0.096384197473526,-0.04703572392463684
1757863703996437500,0.7574375,0.03161793574690819,-0.040676459670066833,-0.051400113850831985
1757863704006422500,0.767422607421875,-0.020817087963223457,0.02330612950026989,-0.039865847676992416
1757863704016408300,0.777408203125,-0.05386345461010933,0.04472406953573227,-0.002074792515486479
1757863704026393300,0.787393310546875,-0.04377210885286331,0.0328843928873539,0.03436179459095001
1757863704036379600,0.797379638671875,-0.021342165768146515,-0.008646807633340359,0.043402694165706635
1757863704046364700,0.80736474609375,0.0012412113137543201,-0.057022374123334885,0.01414200197905302
1757863704056350500,0.8173505859375,0.008604318834841251,-0.04019039869308472,-0.023951321840286255
1757863704066336000,0.8273359375,-0.010249336250126362,-0.000482204370200634,-0.04118820279836655
1757863704076321800,0.83732177734375,-0.03606522083282471,0.04681101068854332,-0.03400246426463127
1757863704086306800,0.847306884765625,-0.056764766573905945,0.060895681381225586,-0.010392097756266594
1757863704096292000,0.8572919921875,-0.038000401109457016,0.01398143544793129,0.01544908620417118
1757863704106278000,0.86727783203125,-0.0027067747432738543,-0.023974169045686722,0.0283287912607193
1757863704116263000,0.877262939453125,0.015813380479812622,-0.049146898090839386,0.014512045308947563
1757863704126249000,0.8872490234375,0.031765107065439224,-0.04085478559136391,-0.00987823586910963
1757863704136233700,0.897233642578125,0.028161583468317986,-0.005986553151160479,-0.02567637339234352
1757863704146220000,0.907219970703125,0.0031179911457002163,0.028445467352867126,-0.02009679563343525
1757863704156205000,0.917205078125,-0.030437838286161423,0.06198611482977867,0.004329717718064785
1757863704166190800,0.92719091796875,-0.03995972126722336,0.061749786138534546,0.02685355767607689
1757863704176175900,0.93717578125,-0.010739783756434917,0.026285268366336823,0.029195275157690048
1757863704186162000,0.947161865234375,0.015174336731433868,-0.03388483077287674,0.012626663781702518
1757863704196147000,0.95714697265625,0.0289764367043972,-0.0471833273768425,-0.01353809516876936
1757863704206132000,0.967132080078125,0.019746020436286926,-0.028287507593631744,-0.025808611884713173
1757863704216117800,0.97711767578125,-0.008173761889338493,-0.009668281301856041,-0.011474412865936756
1757863704226102800,0.987102783203125,-0.01652873121201992,0.00789856631308794,0.01922411285340786
1757863704236089000,0.997089111328125,-0.005374080967158079,-0.018268056213855743,0.037603653967380524
1757863704246073900,1.007073974609375,0.023513680323958397,-0.05647207424044609,0.02767300419509411
1757863704256060000,1.017059814453125,0.05151442438364029,-0.059801291674375534,0.002201998606324196
1757863704266045000,1.027044921875,0.059592776000499725,-0.032652076333761215,-0.011356847360730171
1757863704276031000,1.037031005859375,0.042022306472063065,0.0065187630243599415,-0.004768452141433954
1757863704286016000,1.04701611328125,0.032622188329696655,0.01796582341194153,0.007979311048984528
1757863704296001800,1.057001708984375,0.03450584039092064,-0.002628134097903967,0.007295944727957249
1757863704305986800,1.06698681640625,0.03225481137633324,-0.02651694230735302,-0.006599484942853451
1757863704315971800,1.076971923828125,0.016480641439557076,-0.02062949165701866,-0.02190946415066719
1757863704325958000,1.0869580078125,-0.026110539212822914,0.011061369441449642,-0.027466677129268646
1757863704335943000,1.09694287109375,-0.06783881038427353,0.0322771780192852,-0.010734569281339645
1757863704345929000,1.106928955078125,-0.07206334173679352,0.02426128461956978,0.023306217044591904
1757863704355914000,1.1169140625,-0.043631963431835175,-0.01165623776614666,0.0445726253092289
1757863704365899800,1.126899658203125,0.004786253906786442,-0.05970153585076332,0.027422772720456123
1757863704375885000,1.136885009765625,0.053757790476083755,-0.06635916978120804,-0.009275319054722786
1757863704385870800,1.146870849609375,0.08843367546796799,-0.05243885889649391,-0.03298024460673332
1757863704395856000,1.15685595703125,0.08235234767198563,-0.03589183837175369,-0.03349290043115616
1757863704405842000,1.166842041015625,0.050350598990917206,0.004359596408903599,-0.01700233295559883
1757863704415826700,1.17682666015625,0.004335171077400446,0.04659759998321533,0.005351176485419273
1757863704425812000,1.18681201171875,-0.016597406938672066,0.04659613221883774,0.017444076016545296
1757863704435798000,1.196798095703125,-0.0066680763848125935,-0.0037000607699155807,0.0076745362021028996
1757863704445782800,1.20678271484375,0.00568653829395771,-0.03969475254416466,-0.018446283414959908
1757863704455768800,1.216768798828125,0.004635388497263193,-0.024701954796910286,-0.03622714430093765
1757863704465753900,1.22675390625,-0.012207617051899433,0.014866738580167294,-0.03541262075304985
1757863704475740000,1.236739990234375,-0.03336217254400253,0.04518656060099602,-0.021346870809793472
1757863704485725000,1.246724853515625,-0.03654961660504341,0.037263426929712296,0.003797226119786501
1757863704495711000,1.2567109375,-0.00736776040866971,0.00620777253061533,0.035338375717401505
1757863704505695700,1.26669580078125,0.04068773612380028,-0.016328662633895874,0.04146510362625122
1757863704515682000,1.27668212890625,0.07471255213022232,-0.049485016614198685,0.0225587897002697
1757863704525667000,1.2866669921875,0.08497685194015503,-0.05273308977484703,-0.0037411239463835955
1757863704535652900,1.29665283203125,0.08072138577699661,-0.020221484825015068,-0.018096094951033592
1757863704545638000,1.306637939453125,0.0476035475730896,0.017417341470718384,-0.017511796206235886
1757863704555623000,1.316622802734375,-0.013837440870702267,0.04800427705049515,-0.011562293395400047
1757863704565609000,1.32660888671875,-0.06583178043365479,0.10362304002046585,0.002721967175602913
1757863704575594000,1.336593994140625,-0.09039944410324097,0.14185617864131927,0.027032898738980293
1757863704585579800,1.346579833984375,-0.05802921578288078,0.09911813586950302,0.04899081960320473
1757863704595564800,1.356564697265625,0.019906330853700638,0.024300619959831238,0.05514059215784073
1757863704605551000,1.366551025390625,0.07719981670379639,-0.037236060947179794,0.03205123916268349
1757863704615535900,1.376535888671875,0.10498909652233124,-0.051195286214351654,-0.0005320024210959673
1757863704625522000,1.38652197265625,0.09117363393306732,-0.029976099729537964,-0.021525565534830093
1757863704635507000,1.3965068359375,0.04703280329704285,-0.0008373900782316923,-0.024690203368663788
1757863704645492700,1.40649267578125,-0.008482169359922409,0.03639177978038788,-0.02244594879448414
1757863704655478000,1.41647802734375,-0.06439896672964096,0.08151425421237946,-0.014768589287996292
1757863704665463000,1.426463134765625,-0.10362459719181061,0.11074715852737427,-0.010398097336292267
1757863704675448800,1.43644873046875,-0.09931214153766632,0.102127306163311,-0.003754309844225645
1757863704685433900,1.446433837890625,-0.05093695595860481,0.033613014966249466,0.003941155970096588
1757863704695420000,1.456419921875,0.018504435196518898,-0.03614475950598717,0.012089896947145462
1757863704705405000,1.466405029296875,0.07408736646175385,-0.06432586163282394,0.011092557571828365
1757863704715391000,1.476390869140625,0.10361942648887634,-0.07089481502771378,0.002912658266723156
1757863704725376000,1.4863759765625,0.10056084394454956,-0.05468288064002991,-0.008765831589698792
1757863704735361800,1.49636181640625,0.0745987519621849,-0.03207024559378624,-0.0064376965165138245
1757863704745346800,1.506346923828125,0.03775673732161522,-0.017653513699769974,0.0033929599449038506
1757863704755332900,1.516332763671875,-0.0021033259108662605,0.001184622524306178,0.017575623467564583
1757863704765318000,1.52631787109375,-0.038488589227199554,0.023779090493917465,0.021323375403881073
1757863704775304000,1.536303955078125,-0.05085844174027443,0.05024239048361778,0.010873929597437382
1757863704785288700,1.546288818359375,-0.044612009078264236,0.05965549126267433,-0.0018326921854168177
1757863704795274000,1.55627392578125,-0.029198694974184036,0.046621449291706085,-0.00023373030126094818
1757863704805260000,1.566260009765625,-0.009737534448504448,0.01024189218878746,0.014028964564204216
1757863704815244800,1.576244873046875,0.010146425105631351,-0.012688988819718361,0.026586301624774933
1757863704825230800,1.58623095703125,0.018561778590083122,-0.02105468325316906,0.026782965287566185
1757863704835216000,1.5962158203125,0.014907920733094215,-0.002690323628485203,0.015790767967700958
1757863704845202000,1.606201904296875,0.009025758132338524,0.0247312281280756,0.006005787290632725
1757863704855187000,1.61618701171875,0.0152002964168787,0.023799121379852295,0.011350751854479313
1757863704865172700,1.6261728515625,0.031692683696746826,-0.011834603734314442,0.027339717373251915
1757863704875157800,1.63615771484375,0.055861134082078934,-0.04421065375208855,0.0297863632440567
1757863704885144000,1.64614404296875,0.0678473636507988,-0.05557170510292053,0.013692467473447323
1757863704895129000,1.656129150390625,0.05327747389674187,-0.05018705874681473,-0.011302630417048931
1757863704905113900,1.66611376953125,0.01743113063275814,-0.020711125805974007,-0.02733232080936432
1757863704915100000,1.676099853515625,-0.024850280955433846,0.023102400824427605,-0.02132449671626091
1757863704925085000,1.6860849609375,-0.046664975583553314,0.0457228422164917,0.002266449388116598
1757863704935071000,1.696071044921875,-0.0496586374938488,0.05848604068160057,0.01823689416050911
1757863704945056000,1.706055908203125,-0.03788150101900101,0.05384165048599243,0.01366211287677288
1757863704955041800,1.716041748046875,-0.014724519103765488,0.03407646715641022,-0.0024156563449651003
1757863704965026800,1.72602685546875,0.02195204608142376,-0.011621025390923023,-0.009742018766701221
1757863704975013000,1.73601318359375,0.05698299780488014,-0.05253330245614052,-0.005825573578476906
1757863704984998000,1.745997802734375,0.06564196199178696,-0.07426971942186356,-0.0016356164123862982
1757863704994984000,1.75598388671875,0.05405321344733238,-0.05784359946846962,-0.010054667480289936
1757863705004969000,1.765968994140625,0.024757755920290947,-0.019708076491951942,-0.019565898925065994
1757863705014953700,1.77595361328125,-0.00940767116844654,0.019099241122603416,-0.01250053383409977
1757863705024940000,1.78593994140625,-0.016228128224611282,0.0303831584751606,-0.000004180474206805229
1757863705034925000,1.795925048828125,-0.012244303710758686,0.01896245963871479,0.007075833156704903
1757863705044910800,1.805910888671875,-0.006573503836989403,0.013487419113516808,-0.0021046074107289314
1757863705054895900,1.815895751953125,-0.011619395576417446,0.025073500350117683,-0.014870204031467438
1757863705064884200,1.82588427734375,-0.027928240597248077,0.04492953419685364,-0.019819296896457672
1757863705074869200,1.835869140625,-0.04067838937044144,0.0591268390417099,-0.007762100547552109
1757863705084855000,1.84585498046875,-0.04337932914495468,0.0421648807823658,0.016312362626194954
1757863705094840000,1.855840087890625,-0.033357586711645126,0.017775382846593857,0.026656348258256912
1757863705104826000,1.865826171875,-0.01591099426150322,0.010485803708434105,0.013992995955049992
1757863705114811100,1.87581103515625,-0.006425879430025816,0.02436513453722,-0.0019984873943030834
1757863705124796200,1.885796142578125,0.006151845213025808,0.023000238463282585,-0.005155765451490879
1757863705134782000,1.895781982421875,0.02453431487083435,0.00444759288802743,0.00826177280396223
1757863705144767000,1.90576708984375,0.02597050368785858,0.0034191622398793697,0.026522256433963776
1757863705154753300,1.915753173828125,0.0235478263348341,0.013646765612065792,0.024365361779928207
1757863705164738300,1.92573828125,0.018048053607344627,0.027591681107878685,0.007391956634819508
1757863705174724000,1.93572412109375,0.00011539261322468519,0.04008670151233673,-0.010775862261652946
1757863705184709000,1.945709228515625,-0.023583466187119484,0.059903476387262344,-0.017997806891798973
1757863705194695200,1.955695068359375,-0.04372388496994972,0.07419213652610779,-0.0077228001318871975
1757863705204680200,1.96568017578125,-0.03532914072275162,0.05645434930920601,0.019260473549365997
1757863705214666200,1.975666259765625,-0.013803340494632721,0.02151261270046234,0.03292515128850937
1757863705224651000,1.985651123046875,0.008764604106545448,-0.014557426795363426,0.02147449180483818
1757863705234637300,1.99563720703125,0.02190410904586315,-0.016941754147410393,-0.0040974486619234085
1757863705244622300,2.005622314453125,0.01811729557812214,-0.00036857975646853447,-0.02137923799455166
1757863705254607000,2.015607177734375,-0.001571986242197454,0.01143588125705719,-0.02319897525012493
1757863705264593200,2.02559326171875,-0.02656838856637478,0.030897822231054306,-0.01425405777990818
1757863705274578200,2.035578125,-0.05020953714847565,0.04818999394774437,-0.0006274620536714792
1757863705284564200,2.045564208984375,-0.04548872262239456,0.04789470508694649,0.020261958241462708
1757863705294549200,2.05554931640625,-0.02580289915204048,0.04580146074295044,0.03142007067799568
1757863705304535000,2.06553515625,0.004068372771143913,0.05395625904202461,0.026436885818839073
1757863705314520000,2.07552001953125,0.026693791151046753,0.0284905806183815,0.002417836571112275
1757863705324506000,2.085506103515625,0.03854547068476677,0.03776496648788452,-0.0005265399813652039
1757863705334491100,2.0954912109375,0.03296108916401863,0.0001568715088069439,0.010861935093998909
1757863705344477200,2.105477294921875,0.01964464597404003,-0.032953571528196335,0.033358726650476456
1757863705354462200,2.115462158203125,0.0069948965683579445,-0.012359881773591042,0.0350053571164608
1757863705364447200,2.125447265625,-0.013603379018604755,0.015683529898524284,0.021857324987649918
1757863705374433000,2.13543310546875,-0.0292502511292696,0.04975787550210953,0.003648228943347931
1757863705384418300,2.145418212890625,-0.03572847321629524,0.06600163131952286,-0.002277851104736328
1757863705394404000,2.155404052734375,-0.022161798551678658,0.03797745332121849,0.007645885925740004
1757863705404389000,2.16538916015625,0.0029940372332930565,-0.027945661917328835,0.021459832787513733
1757863705414375200,2.175375244140625,0.03036573901772499,-0.06866246461868286,0.02504870854318142
1757863705424360000,2.18535986328125,0.03155602514743805,-0.05631575733423233,0.019393621012568474
1757863705434346200,2.19534619140625,0.003440233413130045,0.004403248429298401,0.020310815423727036
1757863705444331300,2.205331298828125,-0.032938309013843536,0.06698398292064667,0.027360614389181137
1757863705454317000,2.215317138671875,-0.029780063778162003,0.06646466255187988,0.03292235732078552
1757863705464302000,2.225302001953125,0.006784758996218443,0.002993788802996278,0.028526943176984787
1757863705474288000,2.2352880859375,0.03757542744278908,-0.05963017791509628,0.013149050064384937
1757863705484273200,2.245273193359375,0.03709018975496292,-0.07012182474136353,-0.006031706463545561
1757863705494258200,2.255258056640625,0.009045504033565521,-0.026185262948274612,-0.02114328183233738
1757863705504244000,2.265243896484375,-0.03769657015800476,0.0377548485994339,-0.008919758722186089
1757863705514229000,2.27522900390625,-0.07663305103778839,0.07945196330547333,0.021657325327396393
1757863705524215300,2.28521533203125,-0.07338670641183853,0.07542677968740463,0.04230255261063576
1757863705534200000,2.295199951171875,-0.024904927238821983,0.01582975871860981,0.04563949257135391
1757863705544186000,2.30518603515625,0.029084470123052597,-0.051754411309957504,0.020919889211654663
1757863705554171100,2.315171142578125,0.05943332239985466,-0.07482084631919861,-0.010403413325548172
1757863705564157200,2.3251572265625,0.062028851360082626,-0.05538910627365112,-0.026398614048957825
1757863705574142200,2.33514208984375,0.037598345428705215,-0.012089570984244347,-0.014388291165232658
1757863705584128300,2.345128173828125,0.001096144551411271,0.03163326159119606,0.015257210470736027
1757863705594113000,2.355113037109375,-0.00908991415053606,0.022105002775788307,0.03791405260562897
1757863705604098000,2.36509814453125,0.006425617728382349,-0.027638539671897888,0.031426332890987396
1757863705614084400,2.37508447265625,0.019080160185694695,-0.06200370192527771,0.005449859891086817
1757863705624069000,2.385069091796875,0.013291445560753345,-0.04496033862233162,-0.014886447228491306
1757863705634055200,2.39505517578125,-0.010764622129499912,0.0030125121120363474,-0.016220156103372574
1757863705644040200,2.405040283203125,-0.03356701508164406,0.046009909361600876,0.001058715395629406
1757863705654026200,2.415026123046875,-0.034511104226112366,0.05880559980869293,0.02482769452035427
1757863705664011300,2.42501123046875,-0.01386403851211071,0.05096406862139702,0.04760115593671799
1757863705673997000,2.4349970703125,0.022456949576735497,0.009073609486222267,0.05866125971078873
1757863705683982000,2.444982177734375,0.06027457118034363,-0.029156912118196487,0.04822288826107979
1757863705693968100,2.454968017578125,0.06952612847089767,-0.03760339319705963,0.03439868614077568
1757863705703953200,2.464953125,0.05286208540201187,-0.016079748049378395,0.03219105303287506
1757863705713938200,2.474938232421875,0.02167993225157261,0.016397766768932343,0.0466376394033432
1757863705723924200,2.48492431640625,-0.003394057974219322,0.027878446504473686,0.07271423935890198
1757863705733909200,2.4949091796875,-0.012930571101605892,0.0186399407684803,0.09634633362293243
1757863705743895000,2.50489501953125,0.0016691627679392695,0.019167890772223473,0.10743295401334763
1757863705753880300,2.51488037109375,0.03426998108625412,0.005181499756872654,0.09781255573034286
1757863705763866000,2.5248662109375,0.06048496067523956,-0.002555927960202098,0.08934555947780609
1757863705773851100,2.53485107421875,0.06656442582607269,0.01322037260979414,0.09368650615215302
1757863705783837200,2.544837158203125,0.0638742595911026,0.04064064472913742,0.11021328717470169
1757863705793822000,2.554822021484375,0.06507960706949234,0.04431048780679703,0.130074605345726
1757863705803808300,2.564808349609375,0.07279317080974579,0.03206102177500725,0.1405504047870636
1757863705813793300,2.574793212890625,0.07803880423307419,0.021822767332196236,0.13420435786247253
1757863705823779000,2.584779052734375,0.07510489970445633,0.01911502704024315,0.12156340479850769
1757863705833764000,2.59476416015625,0.06912663578987122,0.015314161777496338,0.10784892737865448
1757863705843749000,2.6047490234375,0.06157112866640091,0.008038648404181004,0.10397948324680328
1757863705853735200,2.614735107421875,0.05327564850449562,-0.006240421906113625,0.10413075238466263
1757863705863720200,2.62472021484375,0.048196595162153244,-0.01587798446416855,0.10739339888095856
1757863705873706000,2.6347060546875,0.04021750018000603,-0.005315621383488178,0.11067920178174973
1757863705883691000,2.64469091796875,0.036539625376462936,0.010219315066933632,0.11363491415977478
1757863705893677300,2.65467724609375,0.04610836133360863,-0.005155646707862616,0.11370202898979187
1757863705903662000,2.664662109375,0.06531427055597305,-0.0318656824529171,0.10673319548368454
1757863705913648000,2.674648193359375,0.06385406106710434,-0.0317319892346859,0.09224479645490646
1757863705923633200,2.684633056640625,0.031832221895456314,-0.009700596332550049,0.08455159515142441
1757863705933619200,2.694619140625,-0.008623061701655388,0.03427724912762642,0.08075632899999619
1757863705943604200,2.704604248046875,-0.06154225394129753,0.058285828679800034,0.08482524007558823
1757863705953589200,2.71458935546875,-0.12154407054185867,0.0634896457195282,0.08188750594854355
1757863705963575000,2.724574951171875,-0.18971456587314606,0.08140867948532104,0.06982071697711945
1757863705973560000,2.73456005859375,-0.25016406178474426,0.10461253672838211,0.049106381833553314
1757863705983546400,2.74454638671875,-0.3107820451259613,0.1305614709854126,0.01616014912724495
1757863705993531100,2.75453125,-0.35316571593284607,0.18000517785549164,0.011183232069015503
1757863706003517200,2.76451708984375,-0.35860675573349,0.25572460889816284,0.04352305084466934
1757863706013502200,2.774502197265625,-0.2984464764595032,0.3245351016521454,0.11085548996925354
1757863706023488000,2.784488037109375,-0.18266882002353668,0.383518248796463,0.20167234539985657
1757863706033473300,2.794473388671875,-0.060052089393138885,0.3970809280872345,0.31285879015922546
1757863706043459000,2.804458984375,0.07139794528484344,0.4145900011062622,0.435500830411911
1757863706053444000,2.814444091796875,0.19541522860527039,0.44965317845344543,0.5767764449119568
1757863706063430100,2.82443017578125,0.29596301913261414,0.514492392539978,0.7164002656936646
1757863706073413400,2.834413330078125,0.3942938446998596,0.5953124165534973,0.8145348429679871
1757863706083398400,2.8443984375,0.4841390550136566,0.646282434463501,0.8663901686668396
1757863706093384200,2.85438427734375,0.5770367980003357,0.6368298530578613,0.9146008491516113
1757863706103369200,2.864369140625,0.6504743099212646,0.5972083806991577,0.9705730676651001
1757863706113355300,2.874355224609375,0.655673086643219,0.5400023460388184,1.034541368484497
1757863706123340300,2.88434033203125,0.6359388828277588,0.49717190861701965,1.0896337032318115
1757863706133326300,2.894326416015625,0.6346776485443115,0.4483737349510193,1.1133975982666016
1757863706143311400,2.904311279296875,0.6638914346694946,0.4245332181453705,1.1259064674377441
1757863706153297200,2.914297119140625,0.7221771478652954,0.3665407598018646,1.111491084098816
1757863706163282400,2.924282470703125,0.7763785123825073,0.23912164568901062,1.0806903839111328
1757863706173268200,2.934268310546875,0.8231156468391418,0.1533241868019104,1.0562063455581665
1757863706183253200,2.944253173828125,0.8261995315551758,0.11749815940856934,1.0529145002365112
1757863706193238300,2.95423828125,0.7949391007423401,0.12258639186620712,1.0828883647918701
1757863706203224000,2.96422412109375,0.7496833205223083,0.2046574205160141,1.1518738269805908
1757863706213209300,2.974209228515625,0.68992680311203,0.32750558853149414,1.2288665771484375
1757863706223195400,2.9841953125,0.6325086951255798,0.44426679611206055,1.2979921102523804
1757863706233180200,2.99418017578125,0.594979465007782,0.5243259072303772,1.350841999053955
1757863706243166200,3.004166259765625,0.5485917925834656,0.5469582676887512,1.382575273513794
1757863706253151200,3.014151123046875,0.5692616701126099,0.38016292452812195,1.3563306331634521
1757863706263137300,3.02413720703125,0.7062592506408691,0.16290448606014252,1.324495792388916
1757863706273122300,3.034122314453125,0.8242039680480957,0.0327768437564373,1.3183889389038086
1757863706283108400,3.0441083984375,0.8578779697418213,0.04304003715515137,1.3215504884719849
1757863706293093000,3.054093017578125,0.8301763534545898,0.09545078128576279,1.2993676662445068
1757863706303079400,3.064079345703125,0.7704458236694336,0.13556331396102905,1.2960948944091797
1757863706313064400,3.074064453125,0.7414767146110535,0.14005713164806366,1.2986496686935425
1757863706323049200,3.08404931640625,0.7237122654914856,0.14524853229522705,1.3024829626083374
1757863706333035300,3.09403515625,0.700367271900177,0.17457152903079987,1.294527292251587
1757863706343020300,3.104020263671875,0.6696216464042664,0.27053558826446533,1.284069538116455
1757863706353006300,3.11400634765625,0.631168782711029,0.44814687967300415,1.2568557262420654
1757863706362991400,3.123991455078125,0.5754793882369995,0.568115770816803,1.231505036354065
1757863706372977200,3.13397705078125,0.5578322410583496,0.6385531425476074,1.2326200008392334
1757863706382962200,3.143962158203125,0.5629165172576904,0.6340288519859314,1.2312753200531006
1757863706392948500,3.153948486328125,0.5773000121116638,0.5083513855934143,1.2006776332855225
1757863706402933200,3.163933349609375,0.6734135150909424,0.492654025554657,1.194677710533142
1757863706412919300,3.173919189453125,0.7921358942985535,0.5383847951889038,1.1752434968948364
1757863706422904300,3.183904296875,0.842471718788147,0.5362343192100525,1.1453558206558228
1757863706432890000,3.19389013671875,0.8172302842140198,0.5065158605575562,1.1619313955307007
1757863706442875400,3.20387548828125,0.7307165861129761,0.5283975601196289,1.2234312295913696
1757863706452860400,3.2138603515625,0.6505284905433655,0.4405723810195923,1.2390426397323608
1757863706462846200,3.22384619140625,0.6729711890220642,0.3774644732475281,1.253551721572876
1757863706472831200,3.233831298828125,0.7278474569320679,0.2900693714618683,1.2284282445907593
1757863706482817300,3.2438173828125,0.8303600549697876,0.30613696575164795,1.2255324125289917
1757863706492802300,3.25380224609375,0.8998603224754333,0.3584933876991272,1.2250075340270996
1757863706502788400,3.263788330078125,0.9057986736297607,0.39799490571022034,1.286084771156311
1757863706512773400,3.2737734375,0.8439313173294067,0.44670307636260986,1.2835392951965332
1757863706522759200,3.28375927734375,0.8050650954246521,0.4779841899871826,1.2729548215866089
1757863706532744200,3.293744140625,0.8577549457550049,0.40397709608078003,1.2173248529434204
1757863706542730200,3.303730224609375,0.9780042171478271,0.26123741269111633,1.112155556678772
1757863706552715300,3.31371533203125,1.0905646085739136,0.21453700959682465,0.9901809096336365
1757863706562701300,3.323701416015625,1.169248104095459,0.3085514008998871,0.8300798535346985
1757863706572686000,3.33368603515625,1.064436674118042,0.3595096468925476,0.6355359554290771
1757863706582671000,3.343671142578125,0.807096004486084,0.36924508213996887,0.4588354527950287
1757863706592657400,3.353657470703125,0.49477484822273254,0.4226393401622772,0.3269258737564087
1757863706602642200,3.36364208984375,0.14050114154815674,0.3636893928050995,0.24756835401058197
1757863706612628200,3.373628173828125,-0.10755953192710876,0.41813451051712036,0.2696954905986786
1757863706622613200,3.38361328125,-0.2732827067375183,0.40173131227493286,0.3155258297920227
1757863706632599300,3.393599365234375,-0.3191828429698944,0.2796059250831604,0.2999173104763031
1757863706642584300,3.403584228515625,-0.2592678964138031,0.10003651678562164,0.22806228697299957
1757863706652570400,3.4135703125,-0.15026605129241943,0.007432545535266399,0.17148929834365845
1757863706662555100,3.42355517578125,0.02163710445165634,0.05280832201242447,0.1419573575258255
1757863706672541400,3.43354150390625,0.09466604143381119,0.12557892501354218,0.12223026901483536
1757863706682526500,3.4435263671875,0.12037844210863113,0.23760882019996643,0.1107495129108429
1757863706692511200,3.45351123046875,0.1479773074388504,0.2231001853942871,0.08913663029670715
1757863706702497300,3.463497314453125,0.20052564144134521,0.04892103001475334,0.07560644298791885
1757863706712482300,3.473482421875,0.2337091565132141,-0.1578902155160904,0.046731650829315186
1757863706722468400,3.48346826171875,0.1940907984972,-0.30460378527641296,-0.007572991773486137
1757863706732453400,3.493453369140625,0.08309051394462585,-0.3623746633529663,-0.09991197288036346
1757863706742439200,3.503439208984375,-0.07000613957643509,-0.3567618727684021,-0.19712334871292114
1757863706752424200,3.513424072265625,-0.2911020517349243,-0.26084867119789124,-0.27660831809043884
1757863706762410200,3.52341015625,-0.5292559862136841,-0.18590717017650604,-0.3387911319732666
1757863706772395300,3.533395263671875,-0.6918760538101196,-0.1656426340341568,-0.40675342082977295
1757863706782381300,3.54338134765625,-0.7065982818603516,-0.27294325828552246,-0.48572173714637756
1757863706792366300,3.553366455078125,-0.5997104644775391,-0.4385724365711212,-0.5434632897377014
1757863706802352000,3.56335205078125,-0.45739153027534485,-0.6386690735816956,-0.5929116606712341
1757863706812337200,3.573337158203125,-0.3437480628490448,-0.7272823452949524,-0.5951740145683289
1757863706822322400,3.583322509765625,-0.2810460925102234,-0.6483404636383057,-0.5529385805130005
1757863706832308200,3.59330810546875,-0.3339258134365082,-0.44631892442703247,-0.49858957529067993
1757863706842293200,3.603293212890625,-0.4708646237850189,-0.27403756976127625,-0.47337719798088074
1757863706852279300,3.613279296875,-0.5644915103912354,-0.12821084260940552,-0.4938470423221588
1757863706862264300,3.623264404296875,-0.608279287815094,-0.13330379128456116,-0.5619043707847595
1757863706872250400,3.63325048828125,-0.6187777519226074,-0.15061433613300323,-0.6373085379600525
1757863706882235400,3.6432353515625,-0.612406313419342,-0.16139236092567444,-0.7101552486419678
1757863706892221200,3.65322119140625,-0.5737316012382507,-0.16338041424751282,-0.7634871602058411
1757863706902206200,3.663206298828125,-0.52448570728302,-0.15396998822689056,-0.8086245656013489
1757863706912192300,3.673192138671875,-0.5004556775093079,-0.13430307805538177,-0.8521246314048767
1757863706922177300,3.68317724609375,-0.5118443965911865,-0.0671379342675209,-0.8893007636070251
1757863706932162300,3.693162353515625,-0.5384496450424194,0.03338015452027321,-0.9109333753585815
1757863706942148000,3.703148193359375,-0.5561423301696777,0.11501079052686691,-0.9110792875289917
1757863706952133000,3.713133056640625,-0.5483198165893555,0.0833178386092186,-0.8995978832244873
1757863706962119400,3.723119384765625,-0.5018699765205383,0.03293360397219658,-0.8763160705566406
1757863706972104200,3.733104248046875,-0.4537605345249176,-0.026675662025809288,-0.8657385110855103
1757863706982090200,3.74309033203125,-0.42446187138557434,-0.09993430972099304,-0.8752835988998413
1757863706992075300,3.7530751953125,-0.4245888888835907,-0.1598956435918808,-0.8991702795028687
1757863707002061300,3.763061279296875,-0.4525534212589264,-0.1951705515384674,-0.9259065389633179
1757863707012046300,3.77304638671875,-0.4680841863155365,-0.2595628499984741,-0.9427193403244019
1757863707022032400,3.783032470703125,-0.48726850748062134,-0.3161233365535736,-0.939275324344635
1757863707032017200,3.79301708984375,-0.5032804608345032,-0.3692494034767151,-0.9094372987747192
1757863707042003500,3.80300341796875,-0.47920647263526917,-0.376092791557312,-0.8695340752601624
1757863707051988500,3.812988525390625,-0.43348851799964905,-0.337688148021698,-0.8233668804168701
1757863707061973200,3.82297314453125,-0.35817211866378784,-0.3048408329486847,-0.7951410412788391
1757863707071959600,3.83295947265625,-0.2882196605205536,-0.30061572790145874,-0.773841917514801
1757863707081944600,3.842944580078125,-0.24798130989074707,-0.3618960678577423,-0.7641034722328186
1757863707091930400,3.852930419921875,-0.22305439412593842,-0.44907891750335693,-0.7786493897438049
1757863707101915400,3.862915283203125,-0.24953803420066833,-0.550916850566864,-0.78631591796875
1757863707111901400,3.8729013671875,-0.3104908764362335,-0.6100331544876099,-0.7687922716140747
1757863707121886500,3.882886474609375,-0.38502058386802673,-0.628538191318512,-0.7348070740699768
1757863707131872500,3.89287255859375,-0.42599090933799744,-0.6328762173652649,-0.7057014107704163
1757863707141857300,3.902857177734375,-0.40844228863716125,-0.6365755796432495,-0.6964862942695618
1757863707151843600,3.912843505859375,-0.3545961081981659,-0.6569613218307495,-0.7002179622650146
1757863707161828600,3.92282861328125,-0.26563698053359985,-0.6542912721633911,-0.7118235230445862
1757863707171814400,3.932814453125,-0.18925409018993378,-0.6355290412902832,-0.7185874581336975
1757863707181799400,3.94279931640625,-0.13205872476100922,-0.5680590867996216,-0.7181679010391235
1757863707191785200,3.95278515625,-0.10337594896554947,-0.4638266861438751,-0.7055701017379761
1757863707201770500,3.9627705078125,-0.15154920518398285,-0.44888994097709656,-0.6939424872398376
1757863707211755500,3.972755615234375,-0.2344084084033966,-0.40136051177978516,-0.6775299310684204
1757863707221741300,3.9827412109375,-0.3199591636657715,-0.307979017496109,-0.6656906008720398
1757863707231726300,3.992726318359375,-0.3696766495704651,-0.21480993926525116,-0.6867868304252625
1757863707241712400,4.00271240234375,-0.384245365858078,-0.15870946645736694,-0.7301896214485168
1757863707251697700,4.01269775390625,-0.376289963722229,-0.14936284720897675,-0.7760705947875977
1757863707261683500,4.022683349609375,-0.3471163511276245,-0.14206737279891968,-0.8129087686538696
1757863707271668500,4.03266845703125,-0.30347940325737,-0.16643796861171722,-0.8425558805465698
1757863707281654300,4.042654296875,-0.2613082528114319,-0.19300448894500732,-0.8708382248878479
1757863707291639300,4.052639404296875,-0.2506689131259918,-0.19789324700832367,-0.8997926712036133
1757863707301625600,4.06262548828125,-0.2905058264732361,-0.14820167422294617,-0.9313967823982239
1757863707311610400,4.0726103515625,-0.32457616925239563,-0.06526684015989304,-0.9640207886695862
1757863707321596400,4.082596435546875,-0.3598715662956238,-0.03582950308918953,-0.9910253882408142
1757863707331581400,4.09258154296875,-0.3766784965991974,-0.03126750886440277,-0.9928179383277893
1757863707341566500,4.10256640625,-0.3735813498497009,-0.049280062317848206,-0.9926803708076477
1757863707351552500,4.112552490234375,-0.3630187213420868,-0.04785047844052315,-0.9899016618728638
1757863707361537500,4.12253759765625,-0.3604918122291565,-0.021591033786535263,-0.9915139079093933
1757863707371523300,4.1325234375,-0.3757959306240082,0.0046174004673957825,-0.96455979347229
1757863707381508400,4.14250830078125,-0.40225541591644287,0.03289193660020828,-0.9115890860557556
1757863707391494400,4.152494384765625,-0.45383524894714355,0.1038057953119278,-0.8382285833358765
1757863707401479400,4.1624794921875,-0.4998624622821808,0.2553509473800659,-0.7489243149757385
1757863707411465500,4.172465576171875,-0.5355700850486755,0.2892228960990906,-0.7084067463874817
1757863707421450500,4.182450439453125,-0.5138434171676636,0.19661995768547058,-0.7030256986618042
1757863707431436500,4.1924365234375,-0.43559202551841736,0.09207358211278915,-0.705278754234314
1757863707441421600,4.202421630859375,-0.34128260612487793,-0.016253342851996422,-0.7112250328063965
1757863707451406600,4.212406494140625,-0.24966560304164886,-0.11881380528211594,-0.7156980633735657
1757863707461392400,4.222392333984375,-0.18589603900909424,-0.175800159573555,-0.7088826298713684
1757863707471377400,4.23237744140625,-0.17410330474376678,-0.17581267654895782,-0.6877083778381348
1757863707481363500,4.242363525390625,-0.22103524208068848,-0.1575678288936615,-0.6544212102890015
1757863707491348500,4.252348388671875,-0.2652096152305603,-0.1492512971162796,-0.6158823370933533
1757863707501334500,4.26233447265625,-0.2479761689901352,-0.12316081672906876,-0.5646249651908875
1757863707511319300,4.2723193359375,-0.2173500806093216,-0.1843714416027069,-0.5416898131370544
1757863707521305600,4.2823056640625,-0.15860067307949066,-0.2713063955307007,-0.5544663071632385
1757863707531290600,4.29229052734375,-0.0868268832564354,-0.31724804639816284,-0.587091863155365
1757863707541276400,4.3022763671875,-0.04418941214680672,-0.34252509474754333,-0.6080489158630371
1757863707551261400,4.312261474609375,-0.03311438858509064,-0.31195202469825745,-0.5965872406959534
1757863707561247200,4.322247314453125,-0.06208494305610657,-0.23082713782787323,-0.5414360761642456
1757863707571232500,4.332232421875,-0.11200936138629913,-0.14315028488636017,-0.471644788980484
1757863707581218600,4.342218505859375,-0.13786791265010834,-0.08795461058616638,-0.4151375889778137
1757863707591203300,4.352203369140625,-0.12669222056865692,-0.09148836135864258,-0.38962289690971375
1757863707601188400,4.362188232421875,-0.07429766654968262,-0.13107791543006897,-0.3942139148712158
1757863707611174400,4.37217431640625,-0.01666153408586979,-0.16989508271217346,-0.41794562339782715
1757863707621159700,4.38215966796875,0.02758437767624855,-0.17371290922164917,-0.441425085067749
1757863707631145500,4.3921455078125,0.046804144978523254,-0.12585510313510895,-0.4281841218471527
1757863707641130500,4.402130615234375,0.040261078625917435,-0.057386480271816254,-0.3864375948905945
1757863707651116300,4.4121162109375,0.0044740536250174046,0.011849582195281982,-0.3423958420753479
1757863707661101300,4.422101318359375,-0.037538427859544754,0.04955802112817764,-0.31029212474823
1757863707671087600,4.432087646484375,-0.07580219209194183,0.0699482411146164,-0.3009263277053833
1757863707681072400,4.442072265625,-0.08998214453458786,0.04005086049437523,-0.29517239332199097
1757863707691058400,4.452058349609375,-0.060561403632164,-0.02192595787346363,-0.3034106194972992
1757863707701043500,4.46204345703125,0.014834705740213394,-0.09475186467170715,-0.3196692168712616
1757863707711029500,4.472029541015625,0.06812243163585663,-0.1126917153596878,-0.325577974319458
1757863707721014500,4.4820146484375,0.08277924358844757,-0.12159086763858795,-0.301808625459671
1757863707731000300,4.492000244140625,0.056099697947502136,-0.09421676397323608,-0.26428815722465515
1757863707740985300,4.5019853515625,-0.00011547689791768789,-0.03447690233588219,-0.21420340240001678
1757863707750970400,4.511970458984375,-0.06442175805568695,0.0377911701798439,-0.17476731538772583
1757863707760956400,4.521956298828125,-0.09638123959302902,0.06192135438323021,-0.1447855830192566
1757863707770941400,4.53194140625,-0.06691548973321915,0.057628605514764786,-0.13624483346939087
1757863707780927500,4.541927490234375,0.000827756361104548,0.011632021516561508,-0.13728703558444977
1757863707790912500,4.55191259765625,0.06259684264659882,-0.027315644547343254,-0.1578674167394638
1757863707800898600,4.561898681640625,0.09463292360305786,-0.03303861245512962,-0.1647500991821289
1757863707810883600,4.571883544921875,0.09459030628204346,0.010803943499922752,-0.1456264704465866
1757863707820869400,4.581869384765625,0.05227363854646683,0.06505268067121506,-0.0952402651309967
1757863707830854400,4.5918544921875,-0.00050009461119771,0.1506085842847824,-0.04491344839334488
1757863707840840400,4.60184033203125,-0.05906582623720169,0.18951749801635742,-0.023655811324715614
1757863707850825500,4.611825439453125,-0.08575735986232758,0.17674817144870758,-0.0318322479724884
1757863707860811500,4.6218115234375,-0.09445759654045105,0.14877444505691528,-0.04826037585735321
1757863707870796500,4.631796630859375,-0.09702834486961365,0.10538250207901001,-0.06483029574155807
1757863707880781300,4.64178125,-0.08783163875341415,0.06396418064832687,-0.0723169595003128
1757863707890767400,4.651767333984375,-0.0730188712477684,0.04295823350548744,-0.06751661002635956
1757863707900752600,4.661752685546875,-0.054767005145549774,0.04486372694373131,-0.048722296953201294
1757863707910738400,4.671738525390625,-0.03396318852901459,0.07708850502967834,-0.034945230931043625
1757863707920723500,4.681723388671875,-0.027144163846969604,0.08341789990663528,-0.02561257779598236
1757863707930709200,4.691709228515625,-0.0029035380575805902,0.08986567705869675,-0.025699930265545845
1757863707940694300,4.7016943359375,0.003956284839659929,0.08054348826408386,-0.023713739588856697
1757863707950680600,4.7116806640625,0.007981386035680771,0.07421474903821945,-0.024622410535812378
1757863707960665300,4.721665283203125,0.008593861013650894,0.06378321349620819,-0.024002430960536003
1757863707970651400,4.7316513671875,0.0017442107200622559,0.08165062218904495,-0.014245674014091492
1757863707980636400,4.741636474609375,-0.015384390018880367,0.1108810305595398,0.0016966728726401925
1757863707990622500,4.75162255859375,-0.033633701503276825,0.12960705161094666,0.02218623459339142
1757863708000607500,4.761607421875,-0.023641841486096382,0.1458667516708374,0.0374528132379055
1757863708010592500,4.771592529296875,0.009506791830062866,0.12305758148431778,0.04214663431048393
1757863708020578300,4.781578369140625,0.05310619994997978,0.07396674901247025,0.03793962672352791
1757863708030563300,4.791563232421875,0.0842374935746193,0.05027873069047928,0.03241729736328125
1757863708040549600,4.801549560546875,0.09340781718492508,0.052616044878959656,0.028564905747771263
1757863708050534400,4.811534423828125,0.07419417798519135,0.07136522978544235,0.03581056743860245
1757863708060520400,4.8215205078125,0.037959206849336624,0.09323617070913315,0.04821290820837021
1757863708070505500,4.83150537109375,-0.016016677021980286,0.13567312061786652,0.06553331017494202
1757863708080491500,4.841491455078125,-0.06509197503328323,0.13539192080497742,0.07881542295217514
1757863708090476500,4.8514765625,-0.0973692238330841,0.11457745730876923,0.07677064836025238
1757863708100462300,4.86146240234375,-0.09052952378988266,0.09932563453912735,0.07157668471336365
1757863708110447400,4.871447265625,-0.06919653713703156,0.0732351765036583,0.0692133978009224
1757863708120433400,4.881433349609375,-0.0219887662678957,0.042691733688116074,0.07012832164764404
1757863708130418400,4.89141845703125,0.022031689062714577,0.009036035276949406,0.05664953216910362
1757863708140404500,4.901404541015625,0.0393638089299202,-0.014467977918684483,0.04322028532624245
1757863708150389500,4.911389404296875,0.022450607270002365,0.0017173828091472387,0.028888484463095665
1757863708160374500,4.92137451171875,-0.019245071336627007,0.04936002194881439,0.024488279595971107
1757863708170360300,4.9313603515625,-0.0680600106716156,0.09145687520503998,0.031498782336711884
1757863708180345600,4.941345703125,-0.079585961997509,0.09567071497440338,0.04235396161675453
1757863708190331400,4.951331298828125,-0.06091267615556717,0.05563461408019066,0.04663978889584541
1757863708200316400,4.96131640625,-0.02199414186179638,-0.011122986674308777,0.02849379926919937
1757863708210302500,4.971302490234375,0.01266396977007389,-0.04488388076424599,0.001767913345247507
1757863708220287500,4.98128759765625,0.0285810437053442,-0.06702009588479996,-0.018315918743610382
1757863708230273500,4.9912734375,0.02052684687077999,-0.05162196233868599,-0.0106007419526577
1757863708240258600,5.001258544921875,-0.00807395949959755,-0.006572280079126358,0.012631744146347046
1757863708250244400,5.011244384765625,-0.035311706364154816,0.04448637738823891,0.03618314489722252
1757863708260229400,5.0212294921875,-0.05246908590197563,0.07220272719860077,0.04960882291197777
1757863708270215400,5.03121533203125,-0.04239674285054207,0.06264544278383255,0.047415975481271744
1757863708280200400,5.041200439453125,-0.009914949536323547,0.007500211708247662,0.037698082625865936
1757863708290186500,5.0511865234375,0.031631696969270706,-0.07409132272005081,0.03091261349618435
1757863708300171300,5.061171142578125,0.06200407072901726,-0.10793246328830719,0.029420699924230576
1757863708310156300,5.07115625,0.06996799260377884,-0.09354553371667862,0.03562160208821297
1757863708320142600,5.081142578125,0.053976405411958694,-0.04126350209116936,0.0482906848192215
1757863708330127400,5.09112744140625,0.022432861849665642,0.010067065246403217,0.06213965639472008
1757863708340113400,5.101113525390625,-0.004492543637752533,0.029119014739990234,0.06530973315238953
1757863708350098400,5.111098388671875,-0.014485522173345089,0.019500475376844406,0.052122022956609726
1757863708360084500,5.12108447265625,-0.009233827702701092,0.0036073224619030952,0.036594193428754807
1757863708370069500,5.131069580078125,0.0005692682461813092,-0.007365167140960693,0.03226469084620476
1757863708380055600,5.1410556640625,0.005801962688565254,-0.022243179380893707,0.03895043954253197
1757863708390040300,5.151040283203125,0.010793259367346764,-0.038472749292850494,0.04577931389212608
1757863708400026600,5.161026611328125,0.013708727434277534,-0.04020804539322853,0.05374789610505104
1757863708410011600,5.17101171875,0.009345936588943005,-0.01980876550078392,0.05920790880918503
1757863708419997400,5.18099755859375,-0.003829998429864645,-0.003683364251628518,0.06076958030462265
1757863708429982500,5.190982421875,-0.008862308226525784,0.01621098257601261,0.06312567740678787
1757863708439967500,5.200967529296875,-0.008129192516207695,0.03933406248688698,0.06340517848730087
1757863708449953500,5.21095361328125,0.0035229360219091177,0.032274022698402405,0.0664646178483963
1757863708459938600,5.2209384765625,0.023344306275248528,0.0209859237074852,0.0647125318646431
1757863708469924400,5.23092431640625,0.035668615251779556,-0.028146468102931976,0.05708737298846245
1757863708479909400,5.240909423828125,0.03903619199991226,-0.04935240000486374,0.04353826493024826
1757863708489895400,5.2508955078125,0.022029774263501167,-0.029239939525723457,0.0390673503279686
1757863708499880400,5.26088037109375,-0.0026396717876195908,0.006936092860996723,0.04313279688358307
1757863708509866500,5.270866455078125,-0.002480414928868413,0.025141995400190353,0.05267304182052612
1757863708519851500,5.2808515625,0.015988539904356003,0.007967611774802208,0.058365002274513245
1757863708529837300,5.29083740234375,0.045070260763168335,-0.027809560298919678,0.05876580625772476
1757863708539822300,5.300822265625,0.06600884348154068,-0.05019145831465721,0.04864700883626938
1757863708549808400,5.310808349609375,0.0704219713807106,-0.05637931451201439,0.03679221123456955
1757863708559793400,5.32079345703125,0.04907028377056122,-0.03676855191588402,0.03409523516893387
1757863708569779500,5.330779541015625,0.01966206170618534,0.0002318087499588728,0.046296507120132446
1757863708579764500,5.340764404296875,-0.0022697756066918373,0.025266194716095924,0.055392809212207794
1757863708589749200,5.350749267578125,-0.02067701332271099,0.02871818281710148,0.05077222362160683
1757863708599735600,5.360735595703125,-0.03179526701569557,0.04528452455997467,0.043736934661865234
1757863708609720600,5.370720458984375,-0.03317132219672203,0.059631507843732834,0.03947454318404198
1757863708619706400,5.380706298828125,-0.024815334007143974,0.04904564470052719,0.03672270476818085
1757863708629691400,5.39069140625,0.005083708092570305,0.026317698881030083,0.0358894020318985
1757863708639677400,5.400677490234375,0.04101091995835304,0.0009492652025073767,0.035886865109205246
1757863708649662500,5.410662353515625,0.05332085117697716,0.003681135829538107,0.035220541059970856
1757863708659648500,5.4206484375,0.041316919028759,0.015237370505928993,0.0334189236164093
1757863708669633300,5.43063330078125,0.017144735902547836,0.04090598225593567,0.03201650083065033
1757863708679619600,5.44061962890625,-0.005382994189858437,0.05948345735669136,0.03482799604535103
1757863708689604600,5.4506044921875,-0.02031587064266205,0.062027573585510254,0.031425539404153824
1757863708699590400,5.46059033203125,-0.024801770225167274,0.06034553423523903,0.026195108890533447
1757863708709575400,5.470575439453125,-0.022654464468359947,0.06103236600756645,0.025260871276259422
1757863708719560400,5.480560546875,-0.01968102715909481,0.05867737904191017,0.030568799003958702
1757863708729546500,5.49054638671875,-0.011132280342280865,0.07091113924980164,0.037868522107601166
1757863708739531500,5.500531494140625,-0.003733112709596753,0.07655785977840424,0.038442037999629974
1757863708749517600,5.510517578125,-0.00014796521281823516,0.06286095827817917,0.037910737097263336
1757863708759502300,5.52050244140625,0.006034294608980417,0.05421861261129379,0.030776523053646088
1757863708769488400,5.53048828125,-0.002120837103575468,0.051948003470897675,0.02237638086080551
1757863708779473700,5.5404736328125,-0.02280012145638466,0.04481722414493561,0.020822960883378983
1757863708789459500,5.55045947265625,-0.03978762775659561,0.06428785622119904,0.02232525125145912
1757863708799444500,5.560444580078125,-0.04773879796266556,0.07969533652067184,0.02177608571946621
1757863708809430300,5.57043017578125,-0.06954875588417053,0.0818125531077385,0.030171968042850494
1757863708819415300,5.580415283203125,-0.09541083872318268,0.08821959793567657,0.037092871963977814
1757863708829401600,5.590401611328125,-0.12735092639923096,0.0708717629313469,0.05435308441519737
1757863708839386400,5.600386474609375,-0.12388122081756592,0.04742654040455818,0.03127136081457138
1757863708849372400,5.610372314453125,-0.11301872134208679,0.057551346719264984,0.023645665496587753
1757863708859357400,5.620357421875,-0.09178659319877625,0.06327608227729797,0.023632589727640152
1757863708869342200,5.63034228515625,-0.06937103718519211,0.0585005022585392,0.022570520639419556
1757863708879328500,5.64032861328125,-0.03412420675158501,0.04677257686853409,0.016391988843679428
1757863708889313500,5.6503134765625,0.002117155585438013,0.04035568982362747,0.011036638170480728
1757863708899299300,5.66029931640625,0.007852521724998951,0.012542244046926498,0.005198347847908735
1757863708909284400,5.670284423828125,0.009640567936003208,-0.004171488806605339,0.004208451136946678
1757863708919270400,5.6802705078125,0.0028764773160219193,-0.005457686260342598,0.0064946310594677925
1757863708929255400,5.69025537109375,-0.0028937936294823885,0.00196134764701128,0.011838264763355255
1757863708939241500,5.700241455078125,0.0045995451509952545,0.012060998007655144,0.011301233433187008
1757863708949226500,5.7102265625,0.011724300682544708,0.025011951103806496,0.01402032095938921
1757863708959212500,5.720212646484375,0.014467195607721806,0.017950331792235374,0.015847917646169662
1757863708969197600,5.730197509765625,0.010674321092665195,0.008304363116621971,0.025147676467895508
