time,seconds_elapsed,z,y,x
1757614344734295000,20.051294921875,0.1211030483245849,-1.223366379737854,-0.2765674889087677
1757614344744251100,20.061251220703124,-0.4459406733512878,-1.2198222875595093,-0.2739977836608886
1757614344754206200,20.071206298828123,-0.8712792992591858,-1.0727171897888184,-0.2420992106199264
1757614344764162000,20.081162109375,-1.0086348056793213,-0.8222165703773499,-0.1676838397979736
1757614344774118100,20.0911181640625,-0.8923109173774719,-0.4709387719631195,-0.0603999271988868
1757614344784074000,20.10107397460937,-0.7432599067687988,-0.0555090717971324,0.054424125701189
1757614344794030000,20.111030029296877,-0.6380423307418823,0.343583345413208,0.1615280210971832
1757614344803986200,20.120986083984373,-0.5503221154212952,0.7488626837730408,0.2375170588493347
1757614344813941200,20.130941162109377,-0.4812123775482178,1.1352673768997192,0.2654314935207367
1757614344823897000,20.14089697265625,-0.4343061149120331,1.4802570343017578,0.2301781624555587
1757614344833853200,20.150853271484376,-0.4188637733459472,1.7458711862564087,0.1441318094730377
1757614344843809000,20.16080908203125,-0.4301750361919403,1.891535997390747,0.0161514766514301
1757614344853765400,20.170765380859372,-0.4557801187038421,1.8987749814987185,-0.153664693236351
1757614344863720200,20.18072021484375,-0.4667496681213379,1.7812169790267944,-0.3484759926795959
1757614344873676000,20.190676025390623,-0.4576663672924042,1.545904278755188,-0.5700164437294006
1757614344883632000,20.20063208007813,-0.375083863735199,1.2242224216461182,-0.8042997717857361
1757614344893588000,20.210587890625,-0.1677540242671966,0.881806492805481,-1.0522394180297852
1757614344903544000,20.2205439453125,0.1733146160840988,0.5399157404899597,-1.2807564735412598
1757614344913500200,20.230500244140625,0.6023287177085876,0.1870671957731247,-1.4296445846557615
1757614344923455000,20.240455078125,1.0523600578308103,-0.2105547338724136,-1.4628161191940308
1757614344933411000,20.2504111328125,1.4450230598449707,-0.716710090637207,-1.4592658281326294
1757614344943367000,20.260366943359376,1.7359167337417605,-1.3168926239013672,-1.53197181224823
1757614344953323000,20.27032299804688,1.9216381311416624,-1.9309719800949097,-1.6771100759506226
1757614344963279000,20.28027905273437,2.029611110687256,-2.475128173828125,-1.8485052585601809
1757614344973234200,20.29023413085937,2.1266443729400635,-2.8382022380828857,-2.036848306655884
1757614344983190000,20.30018994140625,2.3203141689300537,-2.967247724533081,-2.328315496444702
1757614344993146000,20.31014599609375,2.751296281814575,-2.943389177322388,-2.901745080947876
1757614345003102000,20.32010205078125,3.795661449432373,-3.1287574768066406,-3.900226354598999
1757614345013058300,20.330058349609374,5.2929768562316895,-3.300456047058105,-4.551441192626953
1757614345023014100,20.34001416015625,5.498320579528809,-3.061764478683472,-3.782442331314087
1757614345032969000,20.349968994140625,4.085941314697266,-2.40390944480896,-2.8445310592651367
1757614345042925000,20.359925048828124,2.0671515464782715,-1.380275845527649,-2.45353364944458
1757614345052881000,20.369880859375,0.513648509979248,-0.6487367153167725,-2.210002183914185
1757614345062837200,20.379837158203124,-0.1283131092786789,-0.3137795031070709,-1.9940942525863647
1757614345072793000,20.38979296875,-0.1269843727350235,-0.3073447346687317,-1.911233067512512
1757614345082748200,20.399748046875,0.0611716918647289,-0.5508063435554504,-1.858752012252808
1757614345092704000,20.4097041015625,0.2559959888458252,-0.935045599937439,-1.6821404695510864
1757614345102660000,20.41966015625,0.4391594231128692,-1.2737642526626587,-1.4632039070129397
1757614345112616000,20.429615966796877,0.5414336323738098,-1.5882937908172607,-1.2569940090179443
1757614345122572300,20.439572265625,0.4643058478832245,-1.8834620714187624,-1.0361100435256958
1757614345132528000,20.44952807617188,0.2024645954370498,-2.07049822807312,-0.7964890003204346
1757614345142483000,20.45948291015625,-0.1606853753328323,-2.122396230697632,-0.5330325961112976
1757614345152439000,20.46943896484375,-0.5464267134666443,-2.10282301902771,-0.2728657722473144
1757614345162395000,20.479394775390624,-0.9140409231185912,-2.075199604034424,-0.0565883219242095
1757614345172351200,20.489351318359372,-1.235637664794922,-2.0471351146698,0.0947634801268577
1757614345182307000,20.49930712890625,-1.4827837944030762,-2.00641131401062,0.1992169171571731
1757614345192262100,20.50926220703125,-1.6422098875045776,-1.953659415245056,0.2875541448593139
1757614345202218000,20.51921801757813,-1.695085883140564,-1.879191517829895,0.3554413020610809
1757614345212174000,20.529174072265626,-1.6334511041641235,-1.7561968564987185,0.405896246433258
1757614345222130200,20.539130126953125,-1.463725209236145,-1.5915879011154177,0.4586404263973236
1757614345232086300,20.549086181640625,-1.2249603271484375,-1.4591325521469116,0.5220625996589661
1757614345242041000,20.559041015625,-0.9561443328857422,-1.429822325706482,0.566676139831543
1757614345251997000,20.56899682617188,-0.6771062612533569,-1.4910852909088137,0.596290111541748
1757614345261953000,20.578953125,-0.419626235961914,-1.6147702932357788,0.6275162100791931
1757614345271909000,20.5889091796875,-0.217402383685112,-1.7250691652297974,0.7080875635147095
1757614345281865200,20.598865234375,-0.1145063489675521,-1.7289046049118042,0.8755596876144409
1757614345291821000,20.608821044921875,-0.1140655279159545,-1.5779844522476196,1.1207760572433472
1757614345301776100,20.618776123046874,-0.180076777935028,-1.2523261308670044,1.40604829788208
1757614345311732000,20.62873193359375,-0.2774560451507568,-0.8240311145782471,1.661562442779541
1757614345321688000,20.63868798828125,-0.4118252992630005,-0.3440251052379608,1.8438947200775144
1757614345331644200,20.64864404296875,-0.5714740753173828,0.1579069346189499,1.9473141431808472
1757614345341600300,20.658600341796877,-0.7633574604988098,0.657709002494812,1.97991955280304
1757614345351555000,20.66855517578125,-0.9667221307754515,1.137500524520874,1.9999290704727173
1757614345361511000,20.678510986328124,-1.1218435764312744,1.6442495584487915,2.070063591003418
1757614345371467000,20.688467041015624,-1.1995693445205688,2.1982643604278564,2.195373773574829
1757614345381423000,20.698423095703124,-1.192383885383606,2.761751651763916,2.3577330112457275
1757614345391379200,20.708379150390623,-1.0835241079330444,3.3459904193878174,2.518706560134888
1757614345401335000,20.7183349609375,-0.8474761843681335,4.01569128036499,2.5764732360839844
1757614345411290000,20.7282900390625,-0.4060543179512024,4.798900127410889,2.268808364868164
1757614345421246000,20.73824584960937,0.3871916532516479,5.387455463409424,1.5528093576431274
1757614345431202000,20.7482021484375,1.3213768005371094,5.522845268249512,1.2320562601089478
1757614345441158100,20.758158203125,1.2548041343688965,5.613504409790039,2.021512269973755
1757614345451114200,20.7681142578125,-0.2658089399337768,6.152983665466309,3.006154537200928
1757614345461069000,20.77806909179688,-2.2770283222198486,6.921103000640869,3.249844551086426
1757614345471025000,20.78802490234375,-3.7519588470458975,6.862024307250977,2.948434829711914
1757614345480981000,20.79798095703125,-4.284950733184815,5.767208576202393,2.3697454929351807
1757614345490937000,20.80793701171875,-3.9565699100494394,4.174222469329834,1.714081645011902
1757614345500893200,20.81789306640625,-3.0126583576202397,2.62268614768982,1.2138651609420776
1757614345510848000,20.827847900390623,-1.842026948928833,1.4727693796157837,0.9319607615470886
1757614345520804000,20.83780419921875,-0.8902332782745361,0.7829472422599792,0.7631056904792786
1757614345530760000,20.847760009765626,-0.4210333824157715,0.36586993932724,0.6294724345207214
1757614345540716300,20.85771630859375,-0.4075772166252136,0.1015061885118484,0.5335344672203064
1757614345550672100,20.867672119140625,-0.7253614664077759,0.0114919543266296,0.4642285406589508
1757614345560628200,20.877628173828125,-1.174960374832153,0.0799525082111358,0.413031131029129
1757614345570583000,20.8875830078125,-1.56768798828125,0.2076828181743621,0.3607471287250519
1757614345580539000,20.897538818359376,-1.7810274362564087,0.2820366621017456,0.2919304966926574
1757614345590495200,20.9074951171875,-1.806650161743164,0.2615470588207245,0.2165452539920807
1757614345600451000,20.917451171875,-1.712493062019348,0.1558009088039398,0.1651731431484222
1757614345610407200,20.9274072265625,-1.553125500679016,0.0348917767405509,0.1397157460451126
1757614345620362000,20.937362060546874,-1.3917664289474487,-0.0283697508275508,0.1455845534801483
1757614345630318000,20.94731811523437,-1.2498385906219482,-0.0084085315465927,0.1656746119260788
1757614345640274000,20.95727392578125,-1.1414209604263306,0.0994100794196128,0.1957568824291229
1757614345650230300,20.967230224609374,-1.0737324953079224,0.2978487610816955,0.2332284748554229
1757614345660186000,20.97718603515625,-1.018613576889038,0.5808916091918945,0.2606017589569092
1757614345670141000,20.987140869140624,-0.9674397110939026,0.9243177771568298,0.2694285213947296
1757614345680097000,20.997096923828124,-0.8879273533821106,1.2659090757369995,0.2492390871047973
1757614345690052900,21.007052978515624,-0.7622710466384888,1.5344386100769043,0.1872309744358062
1757614345700009200,21.01700927734375,-0.5698965191841125,1.6703308820724487,0.0789058282971382
1757614345709965000,21.026965087890623,-0.3089747130870819,1.641486406326294,-0.0856382995843887
1757614345719921200,21.036921142578127,0.0072812587022781,1.390677571296692,-0.2984275221824646
1757614345729876000,21.0468759765625,0.3696615397930145,0.914798378944397,-0.5248551368713379
1757614345739832000,21.05683203125,0.7591326236724854,0.2532947361469269,-0.7291361093521118
1757614345749788200,21.0667880859375,1.148268222808838,-0.5147932767868042,-0.9057125449180604
1757614345759744300,21.076744140625,1.544689416885376,-1.3088501691818235,-1.076313614845276
1757614345769700000,21.0867001953125,1.9449846744537356,-1.9764026403427124,-1.267603635787964
1757614345779655000,21.09665502929688,2.336146593093872,-2.388046741485596,-1.4784934520721436
1757614345789611000,21.106611083984376,2.73162841796875,-2.461043357849121,-1.7426477670669556
1757614345799567000,21.11656713867188,3.208045482635498,-2.2706730365753174,-2.2438299655914307
1757614345809523200,21.126523193359372,3.9554522037506095,-2.084317922592163,-3.1875250339508057
1757614345819479000,21.13647900390625,5.17601203918457,-2.271944284439087,-4.148221969604492
1757614345829434000,21.14643408203125,5.72068977355957,-2.4242076873779297,-3.75948715209961
1757614345839390000,21.15638989257813,4.580198764801025,-2.157560110092163,-2.58608627319336
1757614345849346000,21.166345947265626,2.3474199771881104,-1.230934977531433,-1.9584670066833496
1757614345859302100,21.17630224609375,0.3994339406490326,-0.4915665984153747,-1.7090559005737305
1757614345869258200,21.18625830078125,-0.4718232750892639,-0.4215435683727264,-1.617573380470276
1757614345879213000,21.196213134765625,-0.5288018584251404,-0.7951757311820984,-1.7499220371246338
1757614345889169000,21.2061689453125,-0.2005150765180587,-1.417938232421875,-1.9357376098632808
1757614345899125200,21.216125244140624,0.2316147536039352,-2.180274486541748,-1.913528680801392
1757614345909081300,21.226081298828124,0.6181964874267578,-2.7018167972564697,-1.736042022705078
1757614345919037400,21.236037353515623,0.7901677489280701,-2.948330879211426,-1.5360668897628784
1757614345928992500,21.245992431640627,0.68006432056427,-3.0543317794799805,-1.3594341278076172
1757614345938948400,21.2559482421875,0.3577355742454529,-3.050316095352173,-1.2231687307357788
1757614345948904400,21.265904541015622,-0.0401798747479915,-2.9592342376708984,-1.1032733917236328
1757614345958860300,21.2758603515625,-0.4290905892848968,-2.832289934158325,-0.9840437173843384
1757614345968816600,21.285816650390625,-0.7719941139221191,-2.7281274795532227,-0.8939995169639587
1757614345978772500,21.2957724609375,-1.0484172105789185,-2.677170753479004,-0.8394161462783813
1757614345988727300,21.30572729492188,-1.275524377822876,-2.6682662963867188,-0.7659922242164612
1757614345998683400,21.315683349609376,-1.4376158714294434,-2.6570987701416016,-0.6153292059898376
1757614346008639200,21.32563916015625,-1.518256902694702,-2.629429817199707,-0.44743612408638
1757614346018595600,21.335595703125,-1.524927020072937,-2.5498530864715576,-0.2981912493705749
1757614346028551400,21.345551513671875,-1.4783071279525757,-2.410311460494995,-0.1465485841035843
1757614346038506500,21.355506591796875,-1.3669108152389526,-2.1778335571289062,0.0230226013809442
1757614346048462300,21.36546240234375,-1.178982496261597,-1.8428313732147217,0.2037791609764099
1757614346058418400,21.37541845703125,-0.9337902665138244,-1.4108973741531372,0.394786387681961
1757614346068374300,21.38537426757813,-0.6537768840789795,-0.9206345081329346,0.5752925872802734
1757614346078330600,21.39533056640625,-0.4014498591423034,-0.4856838583946228,0.7305610179901123
1757614346088285400,21.405285400390625,-0.2122980207204818,-0.154654860496521,0.8534694314002991
1757614346098241300,21.4152412109375,-0.1117394566535949,0.094296358525753,0.9297471642494202
1757614346108197400,21.425197265625,-0.1025414913892746,0.2927581667900085,0.968954622745514
1757614346118153200,21.4351533203125,-0.1757541894912719,0.4242056906223297,0.9630929827690125
1757614346128109600,21.445109619140624,-0.3186468780040741,0.5212018489837646,0.9140899777412416
1757614346138064400,21.455064453125,-0.508776068687439,0.5967200398445129,0.8466762900352478
1757614346148020500,21.4650205078125,-0.7139118313789368,0.6541385054588318,0.8095029592514038
1757614346157976300,21.47497631835937,-0.8836334943771362,0.6828824877738953,0.8427775502204895
1757614346167932400,21.484932373046878,-0.9923340678215028,0.7242790460586548,0.9330233931541444
1757614346177888500,21.494888427734374,-0.9923460483551024,0.8212913870811462,1.0634183883666992
1757614346187844600,21.5048447265625,-0.8521361351013184,1.0897208452224731,1.1812829971313477
1757614346197799400,21.51479931640625,-0.4551810324192047,1.7347749471664429,1.0589696168899536
1757614346207755300,21.52475537109375,0.5677049160003662,2.57165789604187,0.312386691570282
1757614346217711400,21.53471142578125,1.8872158527374268,3.358642816543579,-0.0531966052949428
1757614346227667500,21.54466748046875,1.539934515953064,3.865626096725464,1.0813748836517334
1757614346237623600,21.55462353515625,-0.808500349521637,4.842940807342529,2.004659652709961
1757614346247578400,21.564578369140627,-3.2438948154449463,5.681853294372559,2.06176495552063
1757614346257534500,21.574534423828126,-4.34674882888794,5.924246788024902,1.5323342084884644
1757614346267490300,21.584490234375,-4.250822067260742,5.335008144378662,0.7919397950172424
1757614346277446400,21.5944462890625,-3.21928071975708,4.065591335296631,0.3677615821361542
1757614346287402500,21.604402587890625,-1.6347399950027466,2.707171678543091,0.2964698076248169
1757614346297357300,21.614357421875,-0.1172234416007995,1.7656254768371582,0.4512665867805481
1757614346307313400,21.6243134765625,0.7995150685310364,1.160104274749756,0.6068812012672424
1757614346317269200,21.634269287109376,0.9588783383369446,0.7121025919914246,0.6808366775512695
1757614346327225300,21.64422534179688,0.5510923266410828,0.4222056865692138,0.6743568181991577
1757614346337181400,21.654181396484372,-0.089466318488121,0.3387555181980133,0.6575208306312561
1757614346347136500,21.66413647460937,-0.6614607572555542,0.365545243024826,0.6453803777694702
1757614346357092400,21.67409228515625,-1.0110464096069336,0.4158408939838409,0.6454658508300781
1757614346367048400,21.68404833984375,-1.116308569908142,0.4608713686466217,0.6844139099121094
1757614346377004300,21.69400439453125,-1.0418788194656372,0.4824959635734558,0.7578667998313904
1757614346386960400,21.70396044921875,-0.8847410678863525,0.4823729693889618,0.8575371503829956
1757614346396915500,21.71391552734375,-0.722348690032959,0.4918215870857239,0.9463163018226624
1757614346406871300,21.723871337890625,-0.5989921689033508,0.5728554129600525,0.9971140623092652
1757614346416827400,21.733827392578124,-0.5251839756965637,0.7435193061828613,0.9973673224449158
1757614346426783200,21.743783203125,-0.4977862536907196,0.9559494256973268,0.9482166171073914
1757614346436739300,21.7537392578125,-0.5169026851654053,1.1579251289367676,0.8749064803123474
1757614346446694400,21.7636943359375,-0.5712172389030457,1.3113601207733154,0.8022782802581787
1757614346456650500,21.773650390625,-0.6355397701263428,1.392605900764465,0.744425356388092
1757614346466606300,21.7836064453125,-0.6724414825439453,1.3929187059402466,0.6922131180763245
1757614346476562400,21.7935625,-0.6592559218406677,1.3111450672149658,0.6279811263084412
1757614346486518300,21.803518310546878,-0.5742127895355225,1.1746670007705688,0.5429465770721436
1757614346496474600,21.813474609375,-0.416264146566391,1.036750316619873,0.4361253082752228
1757614346506429400,21.823429443359377,-0.2091099619865417,0.9098603129386902,0.2972491681575775
1757614346516385300,21.83338525390625,0.0207304209470748,0.7609469890594482,0.1545338183641433
1757614346526341400,21.84334130859375,0.2603307962417602,0.5071288347244263,0.026764104142785
1757614346536297200,21.853297119140624,0.4918505847454071,0.1261184215545654,-0.1248989179730415
1757614346546253600,21.863253662109376,0.7181046009063721,-0.3712027072906494,-0.3542910814285278
1757614346556208400,21.87320849609375,0.9473404288291932,-0.9267024397850036,-0.6597721576690674
1757614346566164500,21.88316455078125,1.1872986555099487,-1.4557589292526243,-1.004350662231445
1757614346576120300,21.89312036132813,1.4306505918502808,-1.8879228830337524,-1.358245611190796
1757614346586076400,21.903076416015622,1.6842044591903689,-2.140756130218506,-1.6909985542297363
1757614346596032300,21.9130322265625,1.9674772024154663,-2.1229143142700195,-1.990856409072876
1757614346605987300,21.9229873046875,2.3503081798553467,-1.8409851789474487,-2.394848108291626
1757614346615943400,21.932943359375,2.98376989364624,-1.425444483757019,-3.026363611221313
1757614346625899300,21.94289916992188,4.142915725708008,-1.227726697921753,-3.833088397979736
1757614346635855400,21.95285546875,5.230341911315918,-1.206193208694458,-3.849139451980591
1757614346645811200,21.96281127929688,4.692655563354492,-0.9284489750862122,-2.801356077194214
1757614346655766500,21.9727666015625,2.7290313243865967,-0.3205388188362121,-2.0618133544921875
1757614346665722400,21.98272241210937,0.7480034232139587,0.2353120893239975,-1.9717767238616943
1757614346675678500,21.992678466796875,-0.4094330072402954,0.3000612556934356,-2.0461297035217285
1757614346685634300,22.00263427734375,-0.7262569665908813,-0.0294380392879247,-2.1124486923217773
1757614346695590400,22.01259033203125,-0.6196324825286865,-0.5473464727401733,-2.1583845615386963
1757614346705545500,22.02254541015625,-0.375909686088562,-1.2158313989639282,-2.116531610488892
1757614346715501600,22.03250146484375,-0.0258137211203575,-1.8804240226745603,-2.0279541015625
1757614346725457400,22.04245751953125,0.3038879036903381,-2.3982536792755127,-1.9092669486999512
1757614346735413200,22.052413330078124,0.4253565371036529,-2.764369249343872,-1.762442946434021
1757614346745369300,22.062369384765624,0.2926885783672333,-2.9936554431915283,-1.6025559902191162
1757614346755324400,22.072324462890624,-0.0230590030550956,-3.0682218074798584,-1.4496791362762451
1757614346765280500,22.082280517578123,-0.4090946316719055,-2.9988033771514893,-1.299144268035889
1757614346775236400,22.092236328125,-0.7660373449325562,-2.831005334854126,-1.1514726877212524
1757614346785192400,22.1021923828125,-1.0367627143859863,-2.6532227993011475,-1.009878635406494
1757614346795148300,22.11214819335937,-1.20094895362854,-2.525294065475464,-0.8689307570457458
1757614346805103600,22.122103515625,-1.2694146633148191,-2.463948965072632,-0.7435269951820374
1757614346815059500,22.1320595703125,-1.2499922513961792,-2.4322078227996826,-0.6567039489746094
1757614346825015600,22.142015625,-1.1528139114379885,-2.3814902305603027,-0.6211661696434021
1757614346834971400,22.15197143554688,-0.986754834651947,-2.258169889450073,-0.6031211018562317
1757614346844927200,22.16192724609375,-0.7718177437782288,-2.058729410171509,-0.5718099474906921
1757614346854882600,22.171882568359376,-0.5149521231651306,-1.8070309162139893,-0.5226945877075195
1757614346864838400,22.18183837890625,-0.2252353131771087,-1.608015060424805,-0.4543347656726837
1757614346874794500,22.19179443359375,0.0497592464089393,-1.5478569269180298,-0.3411139547824859
1757614346884750300,22.201750244140623,0.2777105271816253,-1.5942035913467407,-0.1814627051353454
1757614346894706400,22.21170654296875,0.4242269992828369,-1.6776695251464844,0.0134820071980357
1757614346904661000,22.221660888671877,0.5011118650436401,-1.7285579442977903,0.1979961842298507
1757614346914617000,22.2316171875,0.5352085828781128,-1.7743645906448364,0.3119621574878692
1757614346924573000,22.241572998046877,0.5088920593261719,-1.8408972024917605,0.3423271477222442
1757614346934529000,22.251529052734377,0.3768130838871002,-1.955655694007873,0.3427876234054565
1757614346944484900,22.26148486328125,0.0922096222639083,-2.0529160499572754,0.3634785711765289
1757614346954440200,22.27144018554688,-0.3352474272251129,-2.0092055797576904,0.4327553808689117
1757614346964396000,22.28139599609375,-0.8208324313163757,-1.6691972017288208,0.591805636882782
1757614346974352100,22.29135205078125,-1.2417681217193604,-0.961374282836914,0.8401155471801758
1757614346984308000,22.301307861328127,-1.50352942943573,0.0954116210341453,1.1527129411697388
1757614346994264000,22.31126416015625,-1.5803896188735962,1.3938627243041992,1.5041372776031494
1757614347004219100,22.32121923828125,-1.4953107833862305,2.759464740753174,1.817332744598389
1757614347014175000,22.33117504882813,-1.2357749938964844,4.060538768768311,1.9107723236083984
1757614347024131000,22.341131103515625,-0.676285982131958,5.308218002319336,1.6403359174728394
1757614347034087000,22.3510869140625,0.2743788659572601,6.065228462219238,1.147296905517578
1757614347044043000,22.36104296875,0.8422154188156128,6.408755779266357,1.5528122186660769
1757614347053998000,22.370998046875,-0.0671584755182266,6.802480697631836,2.8446786403656006
1757614347063954200,22.3809541015625,-2.183596134185791,7.180352210998535,3.491323947906494
1757614347073910000,22.39090991210937,-3.81281328201294,6.893556118011475,3.239368438720703
1757614347083866000,22.4008662109375,-4.103888511657715,5.866561412811279,2.410897970199585
1757614347093822000,22.41082202148437,-3.4970147609710693,4.3001790046691895,1.569076418876648
1757614347103777300,22.42077734375,-2.311272621154785,2.572321891784668,1.1319628953933716
1757614347113733000,22.430733154296878,-0.9023556709289552,1.179039716720581,0.9334638118743896
1757614347123689000,22.44068896484375,0.2270210534334182,0.3966841399669647,0.793086588382721
1757614347133645000,22.45064501953125,0.7550787329673767,0.0266690514981746,0.6549345850944519
1757614347143601000,22.460600830078125,0.6606667041778564,-0.0699380040168762,0.5352274179458618
1757614347153557000,22.470556884765625,0.1320212185382843,0.0140517055988311,0.4395853281021118
1757614347163512000,22.480511962890624,-0.5065886378288269,0.159339353442192,0.3870984315872192
1757614347173468200,22.49046826171875,-0.9757539629936218,0.3012014031410217,0.3710446357727051
1757614347183424000,22.500424072265623,-1.1808428764343262,0.3856100142002105,0.3540909886360168
1757614347193380000,22.510380126953127,-1.1633765697479248,0.4134557843208313,0.3212963044643402
1757614347203335200,22.520335205078126,-1.0053778886795044,0.4307691156864166,0.3031443357467651
1757614347213291300,22.530291259765622,-0.7931455969810486,0.4344666302204132,0.2924373745918274
1757614347223247000,22.5402470703125,-0.5956842303276062,0.4335538744926452,0.2621924579143524
1757614347233203200,22.550203125,-0.450459361076355,0.4393949806690216,0.198281928896904
1757614347243159000,22.560158935546877,-0.3597691655158996,0.4844217300415039,0.1084876880049705
1757614347253114000,22.57011401367188,-0.3159370124340057,0.5861555337905884,0.0300027318298816
1757614347263070200,22.5800703125,-0.2977316677570343,0.7536184787750244,-0.0093801962211728
1757614347273026000,22.59002612304688,-0.2802357673645019,0.9762092232704164,-0.0006423648446798
1757614347282982100,22.599982177734372,-0.2529942989349365,1.2282079458236694,0.0502044595777988
1757614347292938000,22.60993798828125,-0.2128279656171798,1.4795993566513062,0.122228056192398
1757614347302893000,22.61989306640625,-0.1590557545423507,1.660892367362976,0.1936869025230407
1757614347312849200,22.62984912109375,-0.1181599795818328,1.6963523626327517,0.223291128873825
1757614347322805200,22.63980517578125,-0.0974959954619407,1.505650520324707,0.1784886121749878
1757614347332761000,22.64976098632813,-0.0763401091098785,1.0445066690444946,0.051392987370491
1757614347342717200,22.65971728515625,-0.0293595548719167,0.3305520117282867,-0.1259650290012359
1757614347352672000,22.669672119140625,0.0569353848695755,-0.586283802986145,-0.3309951424598694
1757614347362628000,22.679628173828124,0.1967981457710266,-1.523701548576355,-0.5747675895690918
1757614347372584200,22.689584228515624,0.402762770652771,-2.3528292179107666,-0.8284294009208679
1757614347382540000,22.6995400390625,0.6514543294906616,-2.99617338180542,-1.050304293632507
1757614347392496000,22.70949609375,0.9228200912475586,-3.404571056365967,-1.228750705718994
1757614347402451000,22.71945092773437,1.2263039350509644,-3.5330700874328613,-1.388003945350647
1757614347412407000,22.729406982421875,1.592685580253601,-3.397244453430176,-1.6244947910308838
1757614347422363100,22.73936303710937,2.1291184425354004,-3.155844688415528,-2.1139047145843506
1757614347432319200,22.7493193359375,2.930032968521118,-3.023832321166992,-2.710247039794922
1757614347442275000,22.759275146484374,3.607171535491944,-2.9579620361328125,-2.8305437564849854
1757614347452230000,22.76922998046875,3.633768081665039,-2.8062667846679688,-2.3563361167907715
1757614347462186000,22.77918603515625,2.9541423320770264,-2.473789930343628,-1.900126338005066
1757614347472142000,22.78914208984375,2.039568901062012,-1.9896626472473145,-1.7502821683883667
1757614347482098200,22.79909814453125,1.2772749662399292,-1.6711915731430054,-1.6796293258666992
1757614347492054000,22.809053955078124,0.7955538630485535,-1.5848382711410522,-1.6066832542419434
1757614347502009000,22.819009033203123,0.5438080430030823,-1.6329002380371094,-1.5395128726959229
1757614347511965000,22.82896484375,0.4472037255764007,-1.754054069519043,-1.4925826787948608
1757614347521921300,22.83892138671875,0.5086129307746887,-1.8882291316986084,-1.444114089012146
1757614347531877000,22.848877197265622,0.6505868434906006,-2.039858341217041,-1.3563075065612793
1757614347541833200,22.85883325195313,0.8196883201599121,-2.182608366012573,-1.2068835496902466
1757614347551788000,22.8687880859375,0.9147560000419616,-2.2846055030822754,-1.0287030935287476
1757614347561744000,22.878743896484377,0.865338146686554,-2.339099884033203,-0.8862872123718262
1757614347571700200,22.8887001953125,0.6535835266113281,-2.359768867492676,-0.7714613080024719
1757614347581656000,22.898656005859376,0.3347033858299255,-2.361916303634644,-0.6837279796600342
1757614347591612200,22.90861206054688,-0.0042320522479712,-2.3575856685638428,-0.6213995814323425
1757614347601567000,22.91856689453125,-0.300968199968338,-2.371540307998657,-0.581655740737915
1757614347611523000,22.92852319335937,-0.5300440192222595,-2.40679931640625,-0.5382163524627686
1757614347621479000,22.93847900390625,-0.6909208297729492,-2.459174394607544,-0.4649895429611206
1757614347631435300,22.94843530273437,-0.7739278078079224,-2.5395748615264893,-0.3532736599445343
1757614347641391000,22.95839111328125,-0.7879248857498169,-2.620495557785034,-0.2247771024703979
1757614347651346000,22.968345947265625,-0.7213261127471924,-2.5742969512939453,-0.0658287405967712
1757614347661302000,22.978302001953125,-0.5742522478103638,-2.379424810409546,0.115124687552452
1757614347671257900,22.9882578125,-0.3404704332351684,-2.0670008659362797,0.2915226221084595
1757614347681214200,22.998214111328124,-0.0555117353796958,-1.710675835609436,0.4170656204223633
1757614347691170000,23.008170166015624,0.2093175202608108,-1.4336791038513184,0.5112914443016052
1757614347701125000,23.018125,0.3938244581222534,-1.2715039253234863,0.6039687991142273
1757614347711081000,23.0280810546875,0.4497402012348175,-1.1979804039001465,0.6944265365600586
1757614347721037000,23.038037109375,0.369861364364624,-1.1401782035827637,0.7900772094726562
1757614347730993200,23.0479931640625,0.164068266749382,-1.029570460319519,0.9054357409477234
1757614347740949200,23.05794921875,-0.1457109451293945,-0.7977465987205505,1.0174630880355835
1757614347750904000,23.067904052734374,-0.5030933022499084,-0.4602351486682892,1.0756158828735352
1757614347760860000,23.07785986328125,-0.8519091010093689,-0.0459533780813217,1.0953569412231443
1757614347770816000,23.08781591796875,-1.1627886295318604,0.4455510973930359,1.1579060554504397
1757614347780772000,23.09777221679688,-1.3933541774749756,1.0805540084838867,1.330438256263733
1757614347790728200,23.107728271484376,-1.4672132730484009,1.985583782196045,1.5345463752746582
1757614347800683000,23.11768310546875,-1.2340070009231567,3.211408853530884,1.4937399625778198
1757614347810639000,23.12763916015625,-0.593899130821228,4.375308990478516,1.2477391958236694
1757614347820595000,23.137594970703127,-0.1528372764587402,4.953033924102783,1.572354078292847
1757614347830551000,23.147551025390623,-0.8713935613632202,5.1886820793151855,2.527383089065552
1757614347840507100,23.15750708007813,-2.351216554641724,5.390964508056641,2.7939908504486084
1757614347850462000,23.1674619140625,-3.591397523880005,5.158290863037109,2.0722079277038574
1757614347860418000,23.17741796875,-3.762981176376343,4.136691093444824,1.1359127759933472
1757614347870374000,23.187373779296877,-2.8572704792022705,2.6842103004455566,0.5748425126075745
1757614347880330000,23.197330078125,-1.3436903953552246,1.591948390007019,0.4591722190380096
1757614347890286000,23.2072861328125,-0.0060352478176355,1.0160595178604126,0.5620442628860474
1757614347900241200,23.2172412109375,0.6983615159988403,0.7396145462989807,0.7112144231796265
1757614347910197200,23.227197265625,0.6869759559631348,0.6493712067604065,0.8297677040100098
1757614347920153000,23.237153076171875,0.1885692179203033,0.6727347373962402,0.8204209208488464
1757614347930109200,23.24710913085937,-0.4523458182811737,0.8665952682495117,0.7276462316513062
1757614347940064300,23.25706420898437,-0.9573586583137512,1.0737630128860474,0.634488046169281
1757614347950020000,23.26702001953125,-1.2267658710479736,1.177558422088623,0.5690445899963379
1757614347959976200,23.27697607421875,-1.2943285703659058,1.120889663696289,0.4918584525585174
1757614347969932000,23.28693212890625,-1.2350633144378662,0.9529168605804444,0.4079395830631256
1757614347979888000,23.29688818359375,-1.13531756401062,0.7414423227310181,0.3467716574668884
1757614347989843200,23.30684326171875,-1.0392255783081057,0.5495562553405762,0.2975050210952759
1757614347999799300,23.31679931640625,-0.97268807888031,0.4308300912380218,0.26582732796669
1757614348009755100,23.326755126953124,-0.93107271194458,0.4139810800552368,0.2457279115915298
1757614348019711200,23.336711181640624,-0.9035604000091552,0.4933211505413055,0.2350121438503265
1757614348029667000,23.3466669921875,-0.8898478150367737,0.6726592183113098,0.2322909384965896
1757614348039622100,23.3566220703125,-0.8958284854888916,0.9334620237350464,0.2401070445775985
1757614348049578200,23.366578125,-0.9082662463188172,1.2469850778579712,0.2467681467533111
1757614348059534000,23.3765341796875,-0.9306679368019104,1.5764909982681274,0.2480974942445755
1757614348069490200,23.386490234375,-0.9584998488426208,1.875644326210022,0.2385623157024383
1757614348079446000,23.396446044921877,-0.9672871232032776,2.121086359024048,0.2405736446380615
1757614348089401300,23.4064013671875,-0.9377627968788148,2.3269693851470947,0.2551683187484741
1757614348099357200,23.416357177734376,-0.8370029330253601,2.4940755367279053,0.2543070614337921
1757614348109313300,23.42631323242188,-0.6515747308731079,2.571376085281372,0.235003650188446
1757614348119269000,23.43626904296875,-0.3790028393268585,2.519204378128052,0.1983632445335388
1757614348129225200,23.44622509765625,-0.0400737896561622,2.2539024353027344,0.1242972835898399
1757614348139180300,23.45618017578125,0.3216401040554046,1.782727837562561,0.0224516969174146
1757614348149136100,23.46613623046875,0.6985748410224915,1.1152485609054563,-0.1127194389700889
1757614348159092200,23.47609228515625,1.0607075691223145,0.2918599843978882,-0.3079606294631958
1757614348169048000,23.48604809570313,1.3903651237487793,-0.6089723110198975,-0.5515133738517761
1757614348179004200,23.496004150390625,1.6687811613082886,-1.460069179534912,-0.8150908946990967
1757614348188959200,23.505959228515625,1.9415667057037356,-2.082817554473877,-1.0553643703460691
1757614348198915300,23.515915283203125,2.2484161853790283,-2.36709976196289,-1.2663934230804443
1757614348208871200,23.52587109375,2.642239809036255,-2.276982307434082,-1.577380895614624
1757614348218827300,23.5358271484375,3.2270047664642334,-1.9150208234786987,-2.211951971054077
1757614348228783000,23.545783203125,4.355336666107178,-1.629483342170715,-3.149810552597046
1757614348238738200,23.55573828125,5.787414073944092,-1.402172565460205,-3.408670663833618
1757614348248694300,23.5656943359375,5.776253700256348,-0.9577375650405884,-2.1838746070861816
1757614348258650000,23.57565014648437,3.924853801727295,-0.0257834605872631,-1.1272597312927246
1757614348268606200,23.585606201171878,1.477122187614441,1.0812945365905762,-0.7958733439445496
1757614348278562000,23.59556201171875,-0.1496535390615463,1.7453334331512451,-0.7946882247924805
1757614348288517000,23.60551708984375,-0.7247712016105652,1.709089756011963,-0.9831076860427856
1757614348298473200,23.61547314453125,-0.634087324142456,1.1597882509231567,-1.1907767057418823
1757614348308429300,23.62542919921875,-0.3385248780250549,0.2547725141048431,-1.2404203414916992
1757614348318385200,23.63538525390625,-0.0905858650803566,-0.615855872631073,-1.10255229473114
1757614348328340200,23.64534033203125,0.0408533848822116,-1.2517715692520142,-0.9731106162071228
1757614348338296000,23.655296142578123,0.1347342878580093,-1.7220675945281982,-0.8671814799308777
1757614348348252400,23.66525244140625,0.0942270830273628,-2.0361406803131104,-0.7926452159881592
1757614348358208300,23.675208251953126,-0.117048867046833,-2.234985828399658,-0.7649214267730713
1757614348368164000,23.6851640625,-0.4473743140697479,-2.392158031463623,-0.7651224732398987
1757614348378119200,23.695119140625,-0.8253175020217896,-2.5348153114318848,-0.7846081256866455
1757614348388075000,23.705074951171877,-1.1875969171524048,-2.675861358642578,-0.7703841924667358
1757614348398031400,23.71503125,-1.4612668752670288,-2.8484654426574707,-0.6858070492744446
1757614348407987200,23.7249873046875,-1.6019723415374756,-2.9991447925567627,-0.5736613273620605
1757614348417943300,23.734943359375,-1.6135526895523071,-3.1077206134796143,-0.4489860534667969
1757614348427898000,23.744898193359376,-1.5014666318893433,-3.156219005584717,-0.3167957961559295
1757614348437854200,23.754854248046875,-1.3016496896743774,-3.0786921977996826,-0.181432768702507
1757614348447810000,23.76481005859375,-1.0362204313278198,-2.7949986457824707,-0.0399896167218685
1757614348457766400,23.774766357421875,-0.7265946269035339,-2.306481122970581,0.1321024745702743
1757614348467722200,23.78472216796875,-0.4011813998222351,-1.7176684141159058,0.3123944699764251
1757614348477677000,23.79467700195313,-0.1073815673589706,-1.1725375652313232,0.4943106770515442
1757614348487633200,23.804633056640625,0.1027730107307434,-0.7934001684188843,0.6451009511947632
1757614348497589000,23.814589111328125,0.2053250223398208,-0.6083751320838928,0.7554898262023926
1757614348507545300,23.82454541015625,0.1887223422527313,-0.547226071357727,0.8654999732971191
1757614348517501200,23.834501220703125,0.0583628565073013,-0.496512234210968,1.0221624374389648
1757614348527456300,23.844456298828124,-0.1532252877950668,-0.3337520956993103,1.2172012329101562
1757614348537412000,23.854412109375,-0.4230870604515075,-0.0277580041438341,1.4200685024261477
1757614348547368200,23.8643681640625,-0.7102231979370117,0.354862630367279,1.6331610679626465
1757614348557324300,23.87432421875,-0.998789608478546,0.7192355990409851,1.8158471584320068
1757614348567280400,23.8842802734375,-1.2767362594604492,1.061061143875122,1.967617750167847
1757614348577235200,23.894235107421878,-1.482743263244629,1.3786332607269287,2.1149890422821045
1757614348587191000,23.90419091796875,-1.5337799787521362,1.7648839950561523,2.2631173133850098
1757614348597147100,23.914147216796877,-1.4149495363235474,2.367969274520874,2.449991464614868
1757614348607103200,23.924103271484373,-1.174937725067139,3.234004259109497,2.4488298892974854
1757614348617058300,23.934058349609376,-0.7167127132415771,4.1076836585998535,2.089699506759644
1757614348627014100,23.94401416015625,0.033756535500288,4.534223556518555,1.7658603191375732
1757614348636970200,23.95397021484375,0.417168527841568,4.7844061851501465,2.191279888153076
1757614348646926000,23.963926025390624,-0.6143778562545776,5.462146282196045,2.830193042755127
1757614348656882200,23.973882080078123,-2.488637208938598,6.315857410430908,2.644826889038086
1757614348666837200,23.983837158203126,-3.7134175300598153,6.112696647644043,1.9484754800796509
1757614348676793000,23.99379296875,-3.906808853149414,4.913476467132568,1.1752945184707642
1757614348686749200,24.00374926757813,-3.124483585357666,3.2966864109039307,0.6381492614746094
1757614348696705000,24.013705078125,-1.8054111003875728,1.872307062149048,0.3305433690547943
1757614348706661000,24.0236611328125,-0.6142013072967529,0.9367215633392334,0.2187286913394928
1757614348716616200,24.0336162109375,0.0966351553797721,0.2637433707714081,0.1339281350374221
1757614348726572300,24.043572265625,0.3084512650966644,-0.2202398180961609,-0.015714343637228
1757614348736528100,24.05352807617188,0.116406463086605,-0.4537955820560455,-0.1905591189861297
1757614348746484200,24.063484130859376,-0.2658863067626953,-0.4228102266788482,-0.3181381225585937
1757614348756440000,24.073440185546875,-0.6325908303260803,-0.251593679189682,-0.3681709766387939
1757614348766395100,24.08339501953125,-0.8681802153587341,-0.0946850329637527,-0.3657483160495758
1757614348776351200,24.09335131835937,-0.9468210339546204,-0.0494489930570125,-0.3380837738513946
1757614348786307000,24.10330712890625,-0.8980878591537476,-0.1201340854167938,-0.2949086129665375
1757614348796263200,24.11326318359375,-0.7816348671913147,-0.2504979074001312,-0.2514573037624359
1757614348806218200,24.12321826171875,-0.6409466862678528,-0.3949797451496124,-0.2252917438745498
1757614348816174300,24.13317431640625,-0.4949744343757629,-0.5063621997833252,-0.2215084284543991
1757614348826130200,24.143130126953125,-0.3685691058635711,-0.5593223571777344,-0.2358559370040893
1757614348836086300,24.153086181640624,-0.2866513133049011,-0.5603293180465698,-0.2475602775812149
1757614348846042000,24.1630419921875,-0.2552217543125152,-0.4990862011909485,-0.2445975095033645
1757614348855997200,24.1729970703125,-0.2719005644321441,-0.3781063556671142,-0.2196749895811081
1757614348865953300,24.182953369140623,-0.3125265538692474,-0.1692506074905395,-0.1742188334465026
1757614348875909000,24.1929091796875,-0.3516581356525421,0.1068676114082336,-0.0987124443054199
1757614348885865200,24.202865234375,-0.3683615028858185,0.4141599237918854,0.0052477768622338
1757614348895821000,24.212821044921878,-0.3506824076175689,0.7138360738754272,0.1369169056415558
1757614348905776400,24.2227763671875,-0.2955464720726013,0.9431081414222716,0.2567306458950043
1757614348915732200,24.232732177734373,-0.2479166686534881,1.058622121810913,0.3064822852611542
1757614348925688300,24.24268823242188,-0.1575702577829361,0.9470218420028688,0.2153363823890686
1757614348935644200,24.25264404296875,0.0021217328030616,0.5487569570541382,0.0013903975486755
1757614348945600300,24.26260034179688,0.2373249232769012,-0.1238259896636009,-0.3008019626140594
1757614348955555300,24.27255541992188,0.5702008008956909,-0.9963854551315308,-0.6586715579032898
1757614348965511200,24.28251123046875,1.0226775407791138,-1.886844277381897,-1.0740909576416016
1757614348975467300,24.29246728515625,1.5850366353988647,-2.610646963119507,-1.5550979375839231
1757614348985423000,24.302423095703126,2.1726326942443848,-3.103407382965088,-2.076043605804444
1757614348995378200,24.31237817382813,2.730459690093994,-3.289970636367798,-2.5839052200317383
1757614349005334000,24.322333984375,3.2600834369659424,-3.1373400688171387,-3.1710474491119385
1757614349015290400,24.332290283203125,3.846104621887207,-2.823336362838745,-3.887793779373169
1757614349025246200,24.34224609375,4.6354265213012695,-2.6575145721435547,-4.563470363616943
1757614349035202300,24.352202392578125,5.316954135894775,-2.524547815322876,-4.551798343658447
1757614349045157000,24.3621572265625,4.799166679382324,-2.0891153812408447,-3.7064828872680655
1757614349055113000,24.372113037109376,3.135506391525269,-1.2749223709106443,-2.9822165966033936
1757614349065069300,24.3820693359375,1.477067232131958,-0.5355190634727478,-2.778855562210083
1757614349075025200,24.39202514648437,0.641543984413147,-0.2177349030971527,-2.7453086376190186
1757614349084981200,24.401981201171875,0.4789462685585022,-0.3119841516017914,-2.6629464626312256
1757614349094936000,24.41193603515625,0.615849494934082,-0.638321578502655,-2.625680923461914
1757614349104892200,24.42189208984375,0.7821641564369202,-1.1018439531326294,-2.560795783996582
1757614349114848300,24.43184814453125,0.8461636304855347,-1.5116527080535889,-2.375173330307007
1757614349124804400,24.441804443359374,0.7773131728172302,-1.867435097694397,-2.1553523540496826
1757614349134760200,24.45176025390625,0.6039402484893799,-2.1483495235443115,-1.922181487083435
1757614349144715000,24.461715087890624,0.3394532203674316,-2.289469718933105,-1.6799060106277466
1757614349154671000,24.471671142578124,0.0137211885303258,-2.304315090179444,-1.4498289823532104
1757614349164627200,24.481627197265624,-0.3198743462562561,-2.248806953430176,-1.2408515214920044
1757614349174583300,24.491583251953124,-0.6142778396606445,-2.1828534603118896,-1.0546423196792605
1757614349184538000,24.5015380859375,-0.8382875323295593,-2.1545960903167725,-0.8896359801292419
1757614349194494200,24.511494140625,-0.9871718287467957,-2.1403400897979736,-0.7496731877326965
1757614349204450000,24.521449951171878,-1.0530807971954346,-2.1469788551330566,-0.641982913017273
1757614349214406100,24.53140625,-1.0550594329833984,-2.179443836212158,-0.5739583373069763
1757614349224362200,24.5413623046875,-1.0356853008270264,-2.253704786300659,-0.5309147238731384
1757614349234317000,24.55131713867188,-1.0269354581832886,-2.32462215423584,-0.4664453864097595
1757614349244273200,24.561273193359376,-1.0202925205230713,-2.345153331756592,-0.3277522325515747
1757614349254229000,24.57122900390625,-0.9997793436050416,-2.350353717803955,-0.093737743794918
1757614349264185000,24.58118505859375,-0.9388813972473145,-2.3477182388305664,0.1801523864269256
1757614349274141200,24.59114111328125,-0.8158389925956726,-2.2828245162963867,0.4634882807731628
1757614349284096300,24.60109619140625,-0.6277271509170532,-2.170839548110962,0.7084879279136658
1757614349294052000,24.611052001953126,-0.4247112870216369,-2.07598090171814,0.8819811940193176
1757614349304008200,24.62100830078125,-0.2446520328521728,-2.0130507946014404,0.9639219045639038
1757614349313964000,24.63096411132813,-0.1374620944261551,-1.9688860177993772,0.9636929631233216
1757614349323919400,24.64091943359375,-0.1607059091329574,-1.917324185371399,0.9490634202957152
1757614349333875200,24.650875244140625,-0.3551403284072876,-1.817438006401062,0.9749095439910888
1757614349343831000,24.6608310546875,-0.6969637274742126,-1.619494080543518,1.0301365852355957
1757614349353787100,24.670787109375,-1.1039471626281738,-1.2648462057113647,1.1081551313400269
1757614349363743000,24.68074291992188,-1.4747544527053833,-0.7546409368515015,1.2424410581588743
1757614349373698300,24.6906982421875,-1.729401469230652,-0.0864559859037399,1.4535378217697144
1757614349383654100,24.70065405273437,-1.810992956161499,0.744387686252594,1.7391009330749512
1757614349393610200,24.7106103515625,-1.7649697065353394,1.7712863683700562,2.103549003601074
1757614349403566000,24.72056616210937,-1.6260110139846802,2.930795669555664,2.403266668319702
1757614349413522200,24.730522216796874,-1.3029788732528689,4.125334739685059,2.437707901000977
1757614349423477200,24.740477294921877,-0.726355254650116,5.137908458709717,2.2910327911376958
1757614349433433300,24.750433349609374,-0.3119298815727234,5.847080230712891,2.5759594440460205
1757614349443389200,24.76038916015625,-0.8830854892730713,6.524459838867188,3.454620122909546
1757614349453345000,24.770344970703125,-2.244863986968994,7.128125190734863,3.804777145385742
1757614349463301000,24.780301025390624,-3.440460205078125,7.253138065338135,3.3385045528411865
1757614349473256200,24.790256103515624,-3.7888920307159424,6.684322357177734,2.566699981689453
1757614349483212300,24.80021240234375,-3.247997283935547,5.616680145263672,1.8041837215423584
1757614349493168000,24.810168212890623,-2.153387546539306,4.294533729553223,1.2690902948379517
1757614349503124200,24.820124267578127,-0.9137481451034546,2.92912220954895,0.983428418636322
1757614349513080000,24.830080078125,-0.0288007035851478,1.749262452125549,0.826882004737854
1757614349523035400,24.840035400390622,0.2372168749570846,0.8697398900985718,0.6815096139907837
1757614349532991200,24.8499912109375,-0.0303881242871284,0.4114634990692138,0.5139754414558411
1757614349542947300,24.859947265625,-0.5781444311141968,0.3363615572452545,0.3858480751514435
1757614349552903200,24.86990307617188,-1.1416571140289309,0.4806718826293945,0.3292313814163208
1757614349562858000,24.87985791015625,-1.541456937789917,0.6668031215667725,0.3016615509986877
1757614349572814300,24.889814453125,-1.7065855264663696,0.8250923156738281,0.2821419537067413
1757614349582770200,24.89977026367188,-1.6705726385116575,0.9853938221931458,0.2798875868320465
1757614349592726300,24.909726318359372,-1.4944376945495603,1.1542052030563354,0.3121725916862488
1757614349602682000,24.91968212890625,-1.2841182947158811,1.3191232681274414,0.3668398261070251
1757614349612637200,24.92963720703125,-1.0790482759475708,1.4597771167755127,0.421199232339859
1757614349622593300,24.93959326171875,-0.914125919342041,1.5457870960235596,0.4628966152667999
1757614349632549400,24.94954931640625,-0.8306443691253662,1.559953212738037,0.4733234345912933
1757614349642505200,24.959505126953125,-0.8604685664176941,1.5040537118911743,0.4768862128257751
1757614349652461300,24.96946142578125,-1.006893515586853,1.398372769355774,0.506218671798706
1757614349662416100,24.979416015625,-1.2321138381958008,1.2966299057006836,0.5558959245681763
1757614349672372200,24.989372314453124,-1.484148383140564,1.2598637342453003,0.5987880825996399
1757614349682328300,24.999328369140624,-1.7341454029083252,1.303741455078125,0.5912089943885803
1757614349692284200,25.0092841796875,-1.967653512954712,1.3853623867034912,0.4964171648025512
1757614349702239200,25.0192392578125,-2.111434936523437,1.3990150690078735,0.3024231791496277
1757614349712195000,25.02919506835937,-2.0836873054504395,1.211419701576233,0.0388401634991169
1757614349722151200,25.039151123046874,-1.776071548461914,0.7219930291175842,-0.2472528368234634
