time,seconds_elapsed,z,y,x
1758278184291014000,184.3710139160156,-0.9612140988856552,-0.5351823969781399,3.9901097928687927
1758278184301098800,184.3810986328125,-1.327638012048602,0.2090197670549154,3.0896944460779427
1758278184311182800,184.39118286132813,-1.753146566864848,0.8318769403547048,2.3031055310837925
1758278184321268000,184.40126806640623,-1.9140438157856463,1.277463822081685,1.6709458380401134
1758278184331352000,184.4113520507813,-1.9481132586479184,1.517792335113883,0.898144917640835
1758278184341437000,184.42143701171875,-1.950166684046388,1.7166554498136042,0.0225397485882043
1758278184351521000,184.43152099609372,-2.0964672523379324,1.8741168790668248,-0.7804720395490526
1758278184361606000,184.44160595703124,-2.065650673791766,1.901002547904849,-1.4405296472132203
1758278184371690000,184.45168994140624,-1.953560418137908,1.654038542380929,-1.843169075356424
1758278184381774800,184.46177490234376,-1.932614368481934,1.063044241809845,-1.986315271270275
1758278184391859000,184.4718588867188,-1.885752956324816,0.2459013447284698,-1.81252522302866
1758278184401943800,184.48194384765625,-1.7806617657780646,-0.6601397329896688,-1.2996817913696168
1758278184412028000,184.49202783203123,-1.5636805183246731,-1.4831617512375117,-0.5989268471360206
1758278184422113000,184.50211303710935,-1.2454688474059104,-2.0128677626311777,0.0979410265311598
1758278184432196900,184.51219677734372,-0.7765241787061095,-2.089040901729464,0.6883693637825549
1758278184442282000,184.52228198242187,-0.2946247513651848,-1.7693512672126293,1.0824458385027944
1758278184452365800,184.53236572265624,0.0871840701952576,-1.17055243037045,1.2566209405392408
1758278184462451000,184.5424509277344,0.268045956519246,-0.4309311643868684,1.069439934196323
1758278184472534800,184.5525346679688,0.2913146039038896,0.323401348516345,0.592015314181894
1758278184482620000,184.56261987304688,0.196819626173377,1.065766944772005,0.0945500689186155
1758278184492704000,184.5727041015625,-0.1366685243323445,1.5731506497204302,-0.2631016319848597
1758278184502789000,184.5827890625,-0.5307851849325,1.8390093253284687,-0.3340156815111637
1758278184512873000,184.592873046875,-0.8586300688542425,1.888307901504636,-0.0144366677619516
1758278184522958000,184.6029580078125,-0.979254782488942,1.7224936544477938,0.5497721364099531
1758278184533042000,184.6130419921875,-1.056445574197173,1.5552841536402702,1.3494703430198132
1758278184543126800,184.6231267089844,-1.1990366204462946,1.2777695270299911,2.152152314680815
1758278184553211000,184.6332109375,-1.3911013071775435,0.8448901511847973,2.826150184892118
1758278184563295000,184.643294921875,-1.4572785374403,0.303779533201456,3.302910495778918
1758278184573380000,184.65338012695312,-1.4455185415416956,-0.4011111956626176,3.378594390055537
1758278184583464000,184.6634638671875,-1.3148387362301348,-0.9675012163311244,3.1748584086224434
1758278184593549000,184.6735490722656,-0.8778390655845403,-1.255714347088337,2.7906092081725595
1758278184603633000,184.6836328125,-0.5141296720772981,-1.484580385863781,2.282693734434992
1758278184613718000,184.6937180175781,-0.3190373080879449,-1.713161177957058,1.6703770982414483
1758278184623801900,184.7038017578125,-0.3045464259207248,-1.978279848852753,1.0562839538946749
1758278184633886700,184.71388671875,-0.4532762671858072,-2.1052192985922096,0.4305731447294354
1758278184643971000,184.72397119140624,-0.8158230466544628,-2.179274714884162,-0.2495703886300325
1758278184654056000,184.73405590820312,-1.2256862885713578,-1.9954139390051364,-0.8460121409520507
1758278184664140000,184.7441401367188,-1.6998901929736137,-1.5547200900167226,-1.3991782306492329
1758278184674225000,184.75422485351564,-2.1683336341530084,-0.8589332895845174,-1.7402552288487552
1758278184684309000,184.76430908203125,-2.6070319254100323,-0.009166472274065,-1.945001848629117
1758278184694393900,184.77439379882813,-3.0372061339497565,1.2428256394207478,-2.1107629041939973
1758278184704478000,184.7844780273437,-3.5837218258470296,3.035735476875305,-2.179186744339764
1758278184714562800,184.79456274414065,-4.106485470756888,5.003019299939274,-2.166456734365225
1758278184724647200,184.80464721679687,-4.405304751202464,6.891675576490163,-1.880675799190998
1758278184734732000,184.81473193359372,-4.486890562999248,7.832965077722072,-1.526639658436179
1758278184744815900,184.82481591796875,-3.913074776244163,7.43592799963057,-1.3145745323359963
1758278184754901000,184.83490087890624,-2.955266686409712,6.696589057719707,-1.6663941660851238
1758278184764984800,184.84498486328124,-2.057128929162025,6.35763884241581,-2.2944489080280066
1758278184775070000,184.85507006835937,-1.3355461548246443,5.843938793927431,-2.8772458736181257
1758278184785153800,184.86515380859376,-0.6636690761595964,5.011223649182916,-3.2485669111728668
1758278184795239000,184.8752390136719,-0.4160544977724552,4.118320285457372,-3.042655631527305
1758278184805323000,184.8853229980469,-0.7264566639840603,2.810198874783516,-2.2815298052221533
1758278184815407000,184.8954069824219,-1.1529479462273418,1.2023124272465706,-2.144352454584837
1758278184825492000,184.90549194335935,-1.60012355845049,-0.0881353795707225,-2.9566958424299954
1758278184835575800,184.9155759277344,-1.691055875263363,-0.6990069315224886,-4.099360148921608
1758278184845661000,184.92566088867187,-1.1259173159606757,-0.7365496034532785,-4.985938985800743
1758278184855744800,184.93574487304687,-0.5175627152658999,-0.5783908395856618,-5.220148139169812
1758278184865830000,184.9458298339844,-0.2000013249494135,-0.4594353743374347,-4.713908343559504
1758278184875914000,184.9559140625,-0.0528543689616024,-0.2898696657925844,-4.070426899904012
1758278184885998800,184.96599877929688,-0.0758477065362036,0.1493254690706729,-3.520802720597386
1758278184896083000,184.9760830078125,-0.084020345467329,0.9527484683573244,-2.9990684187352654
1758278184906168000,184.98616796875,-0.0807781486757099,2.072781840845942,-2.497375034382939
1758278184916252000,184.996251953125,-0.2616435421310365,3.3750825825423,-1.8846236600339408
1758278184926337000,185.0063369140625,-0.5448924746096134,4.742926932772994,-1.0458066912829875
1758278184936420900,185.0164208984375,-0.6737790398288518,5.581455147710442,-0.2019201641827821
1758278184946506000,185.02650610351563,-0.3669493983417749,5.222889546832442,0.2613385678350925
1758278184956589800,185.03658984375,0.346654213809967,3.919723712739348,0.1265700319051742
1758278184966675000,185.0466750488281,1.1456108082722871,2.649564076191187,-0.4168126226633787
1758278184976759000,185.05675903320312,1.678800058671832,2.029993669477105,-1.0245984835594892
1758278184986844000,185.0668439941406,1.5800304723620413,2.041200707668066,-1.38411393250823
1758278184996928000,185.0769279785156,1.1848510779011994,2.3184534684717653,-1.454029764777422
1758278185007012900,185.08701293945316,0.7338344992756843,2.550494630151987,-1.3641367278844116
1758278185017097000,185.09709692382813,0.3010772885054349,2.5815099461406468,-1.1456310473427176
1758278185027180800,185.10718090820316,-0.0267868846386671,2.437830958524346,-0.8497492816537618
1758278185037266000,185.11726586914065,-0.2593418410599231,2.1775445300906897,-0.4584662370443343
1758278185047350000,185.12735009765623,-0.4274935911536216,1.8145213652819396,-0.1094262971416115
1758278185057435100,185.13743505859372,-0.5105728563785553,1.3461118263721463,0.2038943868651986
1758278185067519000,185.14751904296875,-0.45650450851731,0.7482423793345689,0.3206730925962329
1758278185077603800,185.15760375976564,-0.3146680800277739,0.2192740345656871,0.2759814256936311
1758278185087688000,185.16768798828124,-0.2814339189458638,-0.2440162616342306,0.1113002743199467
1758278185097772800,185.17777270507813,-0.3758680333346128,-0.7375391990125179,-0.1187178571000695
1758278185107856000,185.18785595703125,-0.595556566985324,-1.247825055143237,-0.2842018492892384
1758278185117941000,185.19794091796877,-0.8701135128337889,-1.7674217604547735,-0.4866267481237649
1758278185128024800,185.2080249023437,-1.055612703569606,-2.238895947632193,-0.7271949151307344
1758278185138110000,185.21810986328128,-1.0604565634042025,-2.618235456469655,-1.0912686119057238
1758278185148193800,185.22819384765623,-1.0094599511384963,-2.8204724315166474,-1.45119410296008
1758278185158279000,185.23827880859372,-1.0068663544487209,-2.8330782305896283,-1.8295237041026355
1758278185168362800,185.24836279296875,-0.9106944564819336,-2.621922620549798,-2.039238175423443
1758278185178448000,185.25844775390624,-0.8714666810084134,-2.25408357989192,-2.111689517519623
1758278185188532000,185.26853198242188,-0.7849615329880267,-1.7856266947090624,-1.9747741788193585
1758278185198616800,185.27861694335937,-0.7139091709695756,-1.2298778950423002,-1.6342065914466977
1758278185208701000,185.2887009277344,-0.7761888092719018,-0.6497416730940342,-1.1627543969053775
1758278185218785800,185.2987858886719,-0.8214373794049024,-0.013228314885497,-0.5271924942027777
1758278185228870000,185.3088698730469,-1.0802572424173351,0.6337012233972549,0.1612182245034724
1758278185238953700,185.31895361328125,-1.4278316398121416,1.28789870685637,1.063740261249989
1758278185249038800,185.32903881835935,-1.7840730355262755,1.928669722509384,2.0506123868748545
1758278185259123000,185.339123046875,-2.28066120569408,2.3320248977065083,3.127642776200175
1758278185269208000,185.3492080078125,-2.5197224752694365,2.499855745282769,4.3561739328086375
1758278185279292000,185.3592919921875,-2.7460397063449022,2.376093756535649,5.281442273566126
1758278185289376800,185.3693767089844,-3.063206252124905,2.000041014283896,5.929197741279006
1758278185299460900,185.3794609375,-3.174679837185144,1.5371166287869211,6.376588457557559
1758278185309545700,185.38954565429688,-2.967975653596222,1.0832675301492214,6.485163983088731
1758278185319629800,185.3996298828125,-2.62857681774199,0.7565542806059121,6.540077476537228
1758278185329714700,185.40971459960937,-2.327812248447537,0.5387736994683742,6.524870555055141
1758278185339799000,185.4197990722656,-2.1650468675673005,0.3365677040815353,6.38501550964117
1758278185349884000,185.4298837890625,-1.9929723910719157,0.098293200969696,6.177275261002778
1758278185359968000,185.4399680175781,-1.8349121191427111,-0.1769967353284358,5.905135897690057
1758278185370052900,185.45005297851563,-1.6930013102427124,-0.363636912792921,5.421929187142848
1758278185380137000,185.46013696289063,-1.6952379832535982,-0.4889098906248807,4.744667054438591
1758278185390221800,185.4702219238281,-1.7069459567040204,-0.4647334807455539,3.992048651976883
1758278185400305700,185.4803056640625,-1.6338041481256484,-0.2706540931910276,3.10499255297482
1758278185410390000,185.4903901367188,-1.518666779860854,0.1065028109103441,2.240605674159527
1758278185420475000,185.5004748535156,-1.3702420590221882,0.6406640481472015,1.4684522578835486
1758278185430559000,185.51055908203125,-1.2212389537736772,1.2608680765897036,0.8517392864271998
1758278185440643800,185.52064379882813,-0.9602277181968092,1.637460332545638,0.4672688444420695
1758278185450728000,185.5307280273437,-0.4236979982629418,1.473158828139305,0.224630593162775
1758278185460812800,185.54081274414065,0.1842167497098445,0.7338280695348978,0.0482335772931575
1758278185470897000,185.55089697265623,0.6476175205469131,-0.3319277693212032,-0.0552399489238858
1758278185480981800,185.56098168945311,0.9521560554221272,-1.3228706515163182,-0.1284612524792552
1758278185491065900,185.57106591796875,1.2702262720435855,-2.0316998888731,-0.2132981750264763
1758278185501150700,185.58115063476563,1.4458952658995985,-2.373440027156472,-0.301485577045381
1758278185511234800,185.59123486328124,1.4283511336416006,-2.33716985937953,-0.4481032484620809
1758278185521320000,185.6013198242188,1.3777327070385217,-1.8846832812666887,-0.4297118517249822
1758278185531403800,185.61140380859376,1.3374831142365933,-1.025679849055409,-0.244283972659707
1758278185541489000,185.62148901367183,1.2388219567373395,0.1489092894852161,0.0130190560489892
1758278185551572700,185.63157275390623,1.087051140341163,1.551019481933117,0.2249608480304479
1758278185561657900,185.6416579589844,0.8448942428380251,2.973855651545525,0.461061221973598
1758278185571741700,185.65174169921875,0.3924313378617167,4.213122137179971,0.7548344710759818
1758278185581825800,185.66182568359372,-0.0120300450116395,5.143450099414586,1.131871986581385
1758278185591911000,185.67191088867187,-0.2183078198820352,5.499024117261171,1.4933739331722258
1758278185601994800,185.68199487304688,-0.3311147724378854,5.191264574512839,1.9314552615746852
1758278185612079900,185.6920798339844,-0.2227923448849469,4.361684220662712,2.491350075004995
1758278185622163700,185.70216381835937,0.0809773245096206,3.479871575272083,2.9360207186698912
1758278185632248800,185.71224877929689,0.4728811313658952,2.7757693664371965,3.159968590265512
1758278185642332700,185.7223327636719,0.8432949909478425,2.1639707627683875,3.1459394803911445
1758278185652417800,185.73241772460935,1.0086556490182876,1.596014223435521,2.9053762818202373
1758278185662502000,185.742501953125,1.3693454024434089,1.135215744051337,2.500399935162067
1758278185672587000,185.7525869140625,1.6612345913648603,0.6643143883258104,2.127921836526692
1758278185682670800,185.7626708984375,1.458820506185293,-0.0137093764007091,1.9501774977013469
1758278185692756000,185.772755859375,1.095493389993906,-0.6412433093398809,1.6677879585310815
1758278185702839800,185.78283984375,0.6449211210697889,-1.2365414445847271,1.192538636729121
1758278185712925000,185.79292504882807,0.0598538633269723,-1.7633137406140564,0.6753221045523882
1758278185723008800,185.8030087890625,-0.7235732175022364,-2.089636529535055,0.1157283198952674
1758278185733093600,185.81309375,-1.5331857190787792,-2.2108026565700767,-0.4905047586008906
1758278185743178000,185.8231779785156,-2.2611112865716216,-2.1949901704102754,-0.858368933700025
1758278185753261800,185.83326171875,-2.8425480697244403,-2.0208406412065028,-1.144569263330102
1758278185763347000,185.8433469238281,-3.1406986571282145,-1.8355524628728628,-1.6147537029579282
1758278185773430800,185.8534306640625,-3.1063790388971566,-1.4914982024282215,-2.159699076798558
1758278185783516000,185.86351586914063,-3.336444516590237,-0.9862222834140062,-2.730019422653317
1758278185793599700,185.87359985351563,-3.483518115080893,-0.3216466138035059,-3.1726708354502917
1758278185803684900,185.88368481445312,-3.3766111072838303,0.4685352111160755,-3.23811624430716
1758278185813769000,185.8937690429688,-3.2671874404907224,1.358513042783737,-2.92638078366518
1758278185823853800,185.90385375976564,-3.2588281929463148,2.250229827073216,-2.304142619046569
1758278185833938000,185.91393798828125,-3.045136926949024,2.9970494801282883,-1.650412753099203
1758278185844022800,185.92402270507813,-2.571796361377835,3.349365957483649,-1.457364462158084
1758278185854107000,185.9341069335937,-1.8940099125385284,3.3468864156275986,-1.7303297549009322
1758278185864191700,185.94419165039065,-1.5220827257841825,3.147149440702796,-1.9659855999469755
1758278185874275800,185.95427587890623,-1.1050042917914689,2.891681226205826,-2.244641213285923
1758278185884360700,185.9643605957031,-0.1976081462025642,2.787951971662044,-2.5678011542618275
1758278185894445000,185.9744450683594,0.6419952967509627,2.517676064133644,-2.959088875046372
1758278185904529000,185.98452880859372,1.069737601968646,2.0223872861266137,-3.3038539141088723
1758278185914614000,185.99461401367188,1.2418863127440214,1.4653887786597013,-3.5850440143615003
1758278185924697900,186.00469775390624,0.8548898594126105,1.0526526116549968,-3.8657103830009696
1758278185934782700,186.01478271484376,0.2008943282663822,0.9142658852279184,-4.084273638948798
1758278185944866800,186.0248666992188,-0.3901365049228072,1.2539052518397569,-4.19365288207829
1758278185954951700,186.03495166015625,-0.7663947066187858,2.102481982582808,-4.222407267397642
1758278185965036000,186.0450361328125,-1.039541201147437,3.185754773429036,-4.03635745704174
1758278185975121000,186.05512084960935,-1.25655693539232,4.225073856258392,-3.576702886995673
1758278185985205000,186.065205078125,-1.3924948073625565,5.149711497896909,-2.9889935994446275
1758278185995289900,186.07528979492187,-1.406927237340808,5.755995722058415,-2.3691695102304218
1758278186005374000,186.0853740234375,-1.2003345513023436,5.835377301809191,-1.8382757503569125
1758278186015458800,186.0954587402344,-0.690800974843651,5.146306657889485,-1.5279466493815184
1758278186025542700,186.10554272460936,0.03088438308537,3.8105128119140863,-1.477304841902852
1758278186035627800,186.11562768554688,0.7468193607941269,2.438784898248315,-1.7335960632205007
1758278186045712000,186.1257119140625,1.2393598630063234,1.506770005840063,-2.084959185373783
1758278186055796000,186.1357958984375,1.42575936358273,1.0277999099493027,-2.38305862711221
1758278186065880800,186.145880859375,1.356201697101444,1.0393693517118692,-2.4381445545181637
1758278186075965000,186.15596484375,1.0632038162857294,1.4294810144543646,-2.139368528692424
1758278186086049800,186.1660498046875,0.5871142442673445,1.8781015647888184,-1.7869135196492074
1758278186096134000,186.1761337890625,0.1004296284765005,2.368487373185157,-1.3782307196885346
1758278186106218800,186.18621875,-0.4047767324328422,2.786389544650912,-0.701367230913043
1758278186116302800,186.196302734375,-0.8215919854447246,2.8294962804496286,0.0453106755837798
1758278186126387700,186.2063876953125,-1.135109361067414,2.4863240635365247,0.7265747374057769
1758278186136471800,186.21647192382807,-1.2621768211007118,1.8673323334932328,1.2759230223804712
1758278186146556700,186.226556640625,-1.3503829278200865,1.1865227374404668,1.7598136235386133
1758278186156640800,186.2366408691406,-1.4733382763594387,0.4558452408909797,2.1605171151831746
1758278186166725600,186.2467255859375,-1.503748612192273,-0.2906383120775223,2.40532598849982
1758278186176809700,186.25680981445316,-1.510100611567497,-1.0256985537558794,2.591172677499056
1758278186186893800,186.2668937988281,-1.4881196659058331,-1.737829170745611,2.63780817194581
1758278186196978700,186.27697875976563,-1.405101921609789,-2.2988778303861617,2.5911791072398422
1758278186207062800,186.28706274414063,-1.3947833566911518,-2.633533563366532,2.518215577837825
1758278186217148000,186.29714794921875,-1.4697206703841683,-2.781535674878955,2.341275979524106
1758278186227231700,186.30723168945312,-1.6253028617620466,-2.793597868594527,2.0313617429599167
1758278186237316600,186.31731665039064,-1.7332601092644035,-2.64610721373558,1.5116541246198116
1758278186247400700,186.32740063476564,-1.577986253183335,-2.338260577225685,0.9083381026141344
1758278186257485600,186.33748559570316,-1.051539828107506,-2.0588936007469893,0.2229227663315832
1758278186267569700,186.34756958007813,-0.38105800319314,-1.7616963685452938,-0.4791478636104613
1758278186277654500,186.3576545410156,0.1184321720264851,-1.480876270648837,-1.1040585353739558
1758278186287739000,186.3677387695313,0.4334598060816526,-1.0745300969421865,-1.536397374601662
1758278186297823700,186.37782373046875,0.5074567701846361,-0.4842541737735271,-1.749866230019927
1758278186307907800,186.3879079589844,0.537958145301789,0.1140314528495073,-1.5010288318395617
1758278186317992700,186.39799267578124,0.296711202250421,0.7190221300691366,-0.845302823638916
1758278186328076800,186.40807690429688,-0.1819166560739278,1.242153439247608,0.1494288563799113
1758278186338160600,186.41816064453124,-0.6526417784497142,1.5982640481889248,1.2724033238217234
1758278186348245500,186.4282456054688,-1.1327867633387445,1.8671067080438133,2.417813860281557
1758278186358329900,186.4383298339844,-1.5022183338850736,2.0163561892688278,3.5666844740673898
1758278186368414700,186.4484147949219,-1.7777084689304232,2.0871943970799447,4.589168449690938
1758278186378498800,186.4584987792969,-2.062558260734379,1.9919412944585084,5.478018738633394
1758278186388583700,186.4685837402344,-2.5386954712867738,1.5555968728512524,6.246752117332815
1758278186398667800,186.47866772460935,-2.836414097014069,0.9255418970018624,6.783260794478655
1758278186408752600,186.48875268554687,-2.7055039900779723,0.2870171989709139,6.985967725124954
1758278186418836700,186.49883666992187,-2.172144132351875,-0.1305886198967695,7.020529335418344
1758278186428921600,186.50892163085936,-1.7486510090112686,-0.3317717019766569,7.017500927507877
1758278186439005700,186.5190056152344,-1.5016045859009026,-0.2519032154917717,7.045235322129726
1758278186449089800,186.52908984375,-1.4500582307979464,-0.084236618566513,6.925272725665569
1758278186459174700,186.53917456054688,-1.420987326875329,-0.0430313324749469,6.445793511208891
1758278186469258800,186.5492587890625,-1.4794333783641456,-0.1490378843009472,5.5980959013879295
1758278186479343600,186.55934350585937,-1.5647060619801283,-0.3175987997174263,4.67654044367373
1758278186489427700,186.569427734375,-1.5291601168245077,-0.3927490255087614,3.7719478111982334
1758278186499512600,186.5795126953125,-1.4061346256583929,-0.2347697098612785,2.7893355349749327
1758278186509597000,186.5895969238281,-0.8482292324796319,0.2490373046666383,1.7651260507330298
1758278186519681800,186.59968188476563,-0.1190998421549797,0.9680126729846,0.988762907807529
1758278186529765600,186.609765625,0.618159955394268,1.6979098328113555,0.354117973819375
1758278186539850800,186.6198508300781,1.1935182954162358,2.101718012472987,-0.2664972657725215
1758278186549934600,186.6299345703125,1.5635551383793354,2.0897458351284266,-0.6449278430715203
1758278186560019700,186.6400197753906,1.902512952467799,1.7340362082034348,-0.726688426913321
1758278186570103600,186.650103515625,2.1280472164720297,1.0338684162080287,-0.5173471728190779
1758278186580188000,186.66018798828125,2.1808348038077354,0.129418407073617,0.0238408943146467
1758278186590272800,186.67027270507813,2.1172487590819595,-0.6846691940903663,0.8042889684662222
1758278186600356900,186.6803569335937,1.912177729652822,-1.2563894698709248,1.5077727531418204
1758278186610441700,186.69044165039065,1.6246610567271709,-1.5008528907507657,1.9822630732700228
1758278186620525800,186.70052587890623,1.3474103417500851,-1.307524029302597,2.119965616825223
1758278186630610700,186.71061059570312,0.9808291921988128,-0.6804109521239996,1.8063097095146772
1758278186640694500,186.7206945800781,0.5493259270124137,0.2134931130766868,1.1876961651340123
1758278186650779600,186.73077954101564,0.0994005776897072,1.1338701746612787,0.4564674644425511
1758278186660863700,186.74086376953124,-0.3431199022039771,2.079037978631258,-0.1570439344935119
1758278186670948900,186.75094897460937,-0.8750660937398672,2.8721231237769125,-0.507737486822158
1758278186681032700,186.7610327148437,-1.3085913662731647,3.479568208411336,-0.5071335295796394
1758278186691116800,186.77111669921877,-1.67798289707005,3.813638250458241,-0.2237168393187224
1758278186701201700,186.78120166015623,-1.8880659094423051,3.798727097052336,0.3611101707942784
1758278186711285800,186.79128564453129,-1.8598264879077675,3.7039673309057943,1.0408753723606468
1758278186721370600,186.80137060546875,-1.843537762538344,3.367358125770092,1.4748295378305016
1758278186731454700,186.8114548339844,-1.7666443463414907,2.71526258302629,1.6722383620686827
1758278186741539800,186.82153979492188,-1.550256680867076,1.9518232190817597,1.7713272434607148
1758278186751623700,186.83162377929688,-1.2066560824740675,1.0939017368882893,1.4860226936265826
1758278186761708800,186.8417087402344,-0.9842677152801304,0.1943997055500745,0.926520825036615
1758278186771792600,186.85179272460937,-0.6714139911979436,-0.5492728816509247,0.4150130258955061
1758278186781877800,186.8618776855469,-0.4207476605573669,-1.1054062967211007,0.1143367194063961
1758278186791961600,186.8719616699219,-0.3633166313299909,-1.575312796190381,-0.0612841975241899
1758278186802045700,186.8820456542969,-0.1950309891909361,-2.033352332255244,-0.2949894930243492
1758278186812130800,186.892130859375,-0.151369578651525,-2.314368244984746,-0.4681885896354913
1758278186822214700,186.90221459960935,-0.3211497701972722,-2.5796494129657743,-0.6781400845825671
1758278186832299800,186.9122998046875,-0.4329325673371553,-2.705830737814307,-0.9041142013087868
1758278186842383600,186.92238354492187,-0.5889555247524753,-2.875552513703704,-1.2570435498654842
1758278186852468700,186.93246875,-0.4601747945278883,-2.9518372964829203,-1.559379898521304
1758278186862552600,186.9425524902344,-0.364966700091958,-2.8627713580638168,-1.810243834093213
1758278186872637700,186.9526376953125,-0.4206307196468115,-2.6544401577949523,-2.120169614964724
1758278186882721500,186.96272143554688,-0.4444266057759523,-2.091126475831866,-2.34199859471023
1758278186892806700,186.972806640625,-0.4920569564789533,-1.305338501957059,-2.5448779593139887
1758278186902890800,186.98289086914065,-0.6812837163705379,-0.069368719780445,-2.5674574553906915
1758278186912976000,186.9929758300781,-0.9543437016595154,1.3268705348074434,-2.3400176500260828
1758278186923059700,187.00305981445317,-1.0882138274449855,2.892805261799693,-1.8141449331849813
1758278186933143600,187.0131435546875,-1.420461257174611,4.4691497391253705,-1.293912852579355
1758278186943228700,187.02322875976563,-1.6767038170449435,5.758536638712883,-1.067134141471982
1758278186953312500,187.0333125,-1.6602221994519233,6.388858741065859,-1.228071137881279
1758278186963397600,187.0433977050781,-1.8837796104252336,6.055419398137927,-1.4147323581337927
1758278186973481700,187.05348168945312,-2.359374092403054,4.674745376950503,-1.6951713477581738
1758278186983566800,187.06356689453125,-2.286286644360423,3.126257459321618,-2.006516932299733
1758278186993650700,187.0736506347656,-1.5782878664784132,2.093568023765087,-2.525076695778966
1758278187003735800,187.0837358398437,-0.7624129435062408,1.4769342550247906,-3.1108669979661703
1758278187013819600,187.09381958007813,-0.2057619343027472,1.077719832894206,-3.5908413024634123
1758278187023904800,187.10390478515623,0.0897398921579122,0.915486951455474,-3.7700147973090408
1758278187033988600,187.11398852539065,0.0402618677616119,0.8573860601425171,-3.821857797271013
1758278187044072700,187.12407275390623,-0.0332563729137182,0.9668763624310492,-4.020944199332595
1758278187054157800,187.13415771484372,-0.0709570118851959,1.512094415733218,-4.285902126708627
1758278187064241700,187.14424169921875,-0.1043881568439304,2.473216160160303,-4.262991791242361
1758278187074326800,187.15432690429688,-0.2055332401134073,3.575342704558372,-3.834480547478795
1758278187084410600,187.16441064453124,-0.3714071084029972,4.479057969677448,-3.215277805033326
1758278187094495700,187.17449584960937,-0.3662690148621797,5.283686253100633,-2.421838439622521
1758278187104579600,187.1845795898437,-0.2270914303183555,5.904734915673733,-1.3604869732052087
1758278187114664700,187.19466479492183,-0.0855136527650058,5.957801904472708,-0.3351479004114866
1758278187124748800,187.2047487792969,0.0943716436117887,5.034619137817621,0.0399853889077901
1758278187134834000,187.214833984375,0.4522824338428676,3.6037978146702048,-0.1716933682233095
1758278187144917800,187.22491772460936,0.907425079422444,2.515288292214274,-0.6742027451336383
1758278187155001900,187.235001953125,1.0627858831346035,1.9788760611802336,-1.068728717187047
1758278187165086700,187.24508666992188,0.8505997610032557,1.9869646750897167,-1.0310907681882382
1758278187175170800,187.2551708984375,0.3915435952417552,2.4100942258149383,-0.605336129656434
1758278187185255700,187.2652556152344,-0.2228070309974253,2.909932922211289,0.1459574539422989
1758278187195340000,187.2753400878906,-0.8573394445218145,3.0377994236677885,0.8535466281101107
1758278187205425000,187.2854248046875,-1.3185979426331818,2.7681998079657557,1.2808958423569798
1758278187215508700,187.2955087890625,-1.5635785192549227,2.2746143267452714,1.3920578772500156
1758278187225593900,187.30559375,-1.5904384691298008,1.609977282336354,1.1839160620734095
1758278187235677700,187.315677734375,-1.3752378214828669,0.9731722477048634,0.8576426652520894
1758278187245761800,187.32576171875,-1.2037895140618085,0.3980243355631828,0.5871697738468646
1758278187255846700,187.3358466796875,-1.0654267530322077,-0.1559977864414453,0.4142477406114339
1758278187265931000,187.34593090820312,-1.0322134886078536,-0.7809685908943415,0.193509186451137
1758278187276015900,187.35601586914063,-0.9197662362098692,-1.431045195031166,-0.1300055593118071
1758278187286100000,187.36609985351564,-0.6244387434028089,-1.8891478594601157,-0.4376356304615735
1758278187296184800,187.37618481445315,-0.6245289789695292,-2.222875956201553,-0.843586959631741
1758278187306268700,187.3862685546875,-0.7665606377702205,-2.2812124098360536,-1.1827671842992304
1758278187316353800,187.3963537597656,-1.017722752571106,-1.996933111396432,-1.5179016407072543
1758278187326437600,187.40643774414065,-1.401731422263384,-1.6481594212144612,-2.113674407726526
1758278187336522800,187.4165227050781,-1.4018682003855705,-1.1787614557892083,-2.7423186399951573
1758278187346606800,187.42660693359372,-1.2185277220536022,-0.7131944468289614,-3.161938721294701
1758278187356691000,187.43669091796875,-1.0340127931147811,-0.4273158964991569,-3.1169092007398604
1758278187366775800,187.44677587890624,-0.9650544077008962,-0.1835270138800144,-2.5277269180268047
1758278187376860000,187.45685986328124,-1.0504466260433196,0.0536176084190607,-1.624496075423807
1758278187386944800,187.4669448242188,-1.31400871514678,0.525004701834917,-0.4021291405335068
1758278187397028900,187.47702880859376,-1.7246815198808907,1.26712246080935,0.9063345077067612
1758278187407113700,187.48711376953125,-2.062141204366088,2.099815393722057,2.342300792527199
1758278187417197800,187.49719775390625,-2.717738617751002,2.7589158467918637,3.669117551320791
1758278187427282700,187.5072827148437,-3.37863559884876,3.1391005742818114,4.9611476588934655
1758278187437366800,187.51736669921877,-3.7139123863369226,3.2664152870744463,6.211180453214049
1758278187447451000,187.5274509277344,-3.767089849773049,2.8673744679450985,7.751914687976241
1758278187457535700,187.5375356445313,-3.723002870765328,1.7375392478883265,8.949672520658373
1758278187467619800,187.54761987304687,-3.486792606706917,0.2209299850791692,9.57182709864676
1758278187477704700,187.55770458984372,-3.170288031966984,-1.250968029344082,9.704717565745115
1758278187487788800,187.56778881835936,-2.9370871788576243,-2.2067472436994318,8.98985197083354
1758278187497873700,187.57787377929688,-2.693115048626065,-2.445468321534991,7.870700057354569
1758278187507957800,187.58795776367188,-2.419742344126105,-2.1855548180669544,6.549447362428904
1758278187518043000,187.59804296875,-2.2408055806458,-1.6990794611126183,5.212025622990727
1758278187528126700,187.6081267089844,-2.0429355686366555,-1.0085866754353046,4.097323966918886
1758278187538211800,187.6182119140625,-1.684525450581312,-0.0277104292243719,3.128112731799483
1758278187548295700,187.6282956542969,-1.1764590240657329,1.1667933700978754,2.234270333658159
1758278187558379800,187.6383798828125,-0.739799545159936,2.1224597717285154,1.3304606682538986
1758278187568464600,187.64846459960935,-0.3196113085836172,2.549038586124777,0.5146276847273111
1758278187578549000,187.65854907226563,0.0626993250191211,2.4356629668354985,0.0257755156390368
1758278187588633900,187.6686337890625,0.3172264592736959,2.090209360986948,0.01351421915479
1758278187598717700,187.6787177734375,0.2791699926018715,1.6949457223087547,0.6144056443620473
1758278187608802800,187.688802734375,-0.0220130943655967,1.0776222177386283,1.5245599295526742
1758278187618886700,187.69888671875,-0.3547603633761406,0.2128548151731491,2.3453525813132523
1758278187628971800,187.7089716796875,-0.4945914433926344,-0.7249795771688222,2.85021407430768
1758278187639055600,187.7190556640625,-0.5313555321663618,-1.6153548837214708,2.931854831162095
1758278187649140000,187.72913989257813,-0.4421113145709037,-2.4128075764268635,2.639240250575542
1758278187659224800,187.7392248535156,-0.2818611313819885,-2.9378666387975216,2.059279969716072
1758278187669309000,187.74930883789065,-0.0952928501099348,-3.0661493198394774,1.352461195398867
1758278187679393800,187.7593937988281,0.0852700532674789,-2.7457839780181645,0.6197648333076388
1758278187689478000,187.76947778320311,0.2126712752997875,-1.9639052865415807,-0.0437973484113812
1758278187699562800,187.77956274414063,0.2652636323243379,-0.8185358127444982,-0.6289356894958764
1758278187709646600,187.789646484375,0.1166077330783009,0.5239332732111215,-1.1601623345855625
1758278187719731700,187.79973168945315,-0.1680874526858329,1.8553104717880489,-1.6529570307545365
1758278187729815800,187.8098159179688,-0.5183139720246196,3.0201696589529514,-1.9811418141551316
1758278187739900000,187.81989990234376,-0.8193784010484814,3.8545261411637055,-2.063026755028963
1758278187749984800,187.82998486328125,-1.1163044150933623,4.251602382221818,-1.7588352800257503
1758278187760068900,187.84006884765623,-1.4099094680219888,4.154862255913019,-1.1582361157633363
1758278187770153700,187.85015380859372,-1.6506892319530249,3.670353815117478,-0.3647416956970468
1758278187780237800,187.86023779296875,-1.7444269615754484,2.98156549527049,0.5769203286416829
1758278187790322700,187.87032275390624,-1.7436363957196472,2.138550490307808,1.300062022858858
1758278187800406800,187.88040673828124,-1.3639697007544338,1.2896458427846431,1.7693093277670442
1758278187810492000,187.89049194335936,-0.918955504348874,0.5318102901965379,1.8989853628635405
1758278187820575700,187.90057568359376,-0.5069517432719469,-0.1291775840550661,1.7529840697795152
1758278187830660900,187.91066088867188,-0.1844821226477623,-0.7140665534883737,1.39027377031222
1758278187840744700,187.92074462890625,-0.0669505527228117,-1.2323264572381971,0.9970208869345486
1758278187850828800,187.9308288574219,-0.1218931261353194,-1.699999498566985,0.6281301452666521
1758278187860913700,187.94091357421877,-0.3192752815622836,-2.1102964557260275,0.3163438312202692
1758278187870998000,187.950998046875,-0.5802665703296661,-2.3916847088992594,0.0871136353075504
1758278187881083000,187.96108276367187,-0.8425999944210052,-2.557219554492831,-0.180733876030147
1758278187891166700,187.97116674804687,-1.0999018540859222,-2.6238129643410444,-0.4000599330440163
1758278187901251800,187.981251953125,-1.2731085494816303,-2.538983640578389,-0.6127092887729406
1758278187911335700,187.9913356933594,-1.4255442595273256,-2.328886015158892,-0.7587211032509803
1758278187921419800,188.0014196777344,-1.5502081655502318,-2.001956492516398,-0.8722536666676401
1758278187931504600,188.01150463867188,-1.7316519434154032,-1.6394973913311957,-0.9612485856771468
1758278187941589000,188.02158911132813,-1.894991324791312,-1.1782499991357325,-1.1218035970315337
1758278187951673900,188.031673828125,-1.98619369071722,-0.4196136515587568,-1.421399414807558
1758278187961758000,188.04175805664065,-2.3154577937871217,0.4395604610443115,-1.6322393830269577
1758278187971842800,188.0518427734375,-2.7911498909205195,1.2841612738937138,-1.6305781718164682
1758278187981927000,188.06192700195317,-3.11377674793303,2.1755729377567765,-1.4503472768723964
1758278187992011800,188.07201171875,-3.237219003206491,3.118257108217477,-1.3681588230073451
1758278188002095600,188.082095703125,-3.2075013258129355,3.9021757810890674,-1.595728976753354
1758278188012180700,188.0921806640625,-3.0235534561723467,4.651239998200536,-2.094651727348566
1758278188022264800,188.1022648925781,-2.811826183724403,5.037803028550743,-2.7570301791757346
1758278188032349000,188.11234887695312,-2.72055893586874,4.42545380526185,-3.017708821797371
1758278188042433800,188.1224338378906,-2.4699744017601013,3.0289111838132143,-2.761783511182666
1758278188052518000,188.1325178222656,-1.6311539258778094,1.9621587351351972,-2.972711742207408
1758278188062602800,188.14260278320316,-0.539852142354846,1.2472399487316608,-3.3752754747658966
1758278188072686800,188.15268676757813,0.312944251909852,0.8251362339228391,-3.6391625580400224
1758278188082771700,188.1627717285156,0.94566990827322,0.6524123536080122,-3.65418126347363
1758278188092855800,188.17285571289065,1.3254191669553517,0.698942634114623,-3.563420211574435
1758278188102940700,188.1829406738281,1.4400895022302864,1.0830383975684643,-3.578869125118852
1758278188113024800,188.19302465820311,1.3436455823890865,2.0253917286396024,-3.5553923879414797
1758278188123108600,188.2031086425781,1.1300847378384322,3.466438093203306,-3.327559783867001
1758278188133193700,188.21319384765624,0.7664099041879177,4.957056590187549,-2.8098727115690707
1758278188143277600,188.22327758789064,0.3067307842224836,5.893472347903251,-2.1118892778754232
1758278188153362700,188.2333627929688,0.026075010042265,6.175149939411878,-1.505568813356757
1758278188163446800,188.24344677734376,0.1585357804864645,6.148473529410362,-1.1015893687814473
1758278188173531600,188.25353173828125,0.6182341896742582,6.092295130592584,-0.7247340779751539
1758278188183615700,188.26361572265623,1.2036135729730129,5.748156698995828,-0.3638175300568342
1758278188193699600,188.27369946289065,1.831822044172883,4.950611651831865,-0.2978396217584609
1758278188203784700,188.28378466796875,2.372345217657089,4.074789186766743,-0.6270511178582906
1758278188213868500,188.29386865234372,2.6841496518820525,3.5692590007305145,-1.0450386295199394
1758278188223953700,188.30395361328124,2.683408478125929,3.531287874254584,-1.3168588438808917
1758278188234037800,188.31403784179687,2.386194879311323,3.728266490381956,-1.2810522019624708
1758278188244122600,188.32412255859376,1.9536445892900227,4.073775041288137,-1.1635256004735828
1758278188254206700,188.33420678710937,1.3526315835297107,4.442711229532957,-0.9794131879210471
1758278188264291800,188.34429174804689,0.7341799517124891,4.524847076427936,-0.7617024571493267
1758278188274375700,188.3543757324219,0.1798030249208211,4.203203969755768,-0.3353162427157163
1758278188284459500,188.36445947265625,-0.363801163443923,3.651455637902021,0.2796677129909396
1758278188294544600,188.3745446777344,-0.981716788688302,2.9497148975014684,0.8861617805108427
1758278188304628700,188.38462866210935,-1.5564409224599598,1.9547031584322447,1.3945654761567712
1758278188314713600,188.39471362304687,-1.9724048193395136,0.7374240482002496,1.6895976392790677
1758278188324797700,188.40479760742187,-2.195302889621258,-0.5589408737063407,1.7746283308327198
1758278188334882800,188.4148828125,-2.3663602980285883,-1.818152999782562,1.8376415441066023
1758278188344966700,188.4249665527344,-2.555626732343435,-2.941256281235814,1.915055038654804
1758278188355051800,188.4350517578125,-2.74747149271369,-3.994122827902436,1.91248416525349
1758278188365135600,188.44513549804688,-2.9119220502018925,-4.888491003483534,1.9332171566806733
1758278188375219500,188.45521948242188,-3.108319067049026,-5.701802944099903,1.9399797826834024
1758278188385304600,188.4653046875,-3.021874124783277,-6.409197180217504,1.9525309289596973
1758278188395388700,188.475388671875,-2.880824316626787,-6.923880979046225,1.8779096954785288
1758278188405473800,188.48547387695317,-2.5915596309900284,-7.2727797569125885,1.8142855106994509
1758278188415557600,188.4955576171875,-2.1983044095247983,-7.310732178688049,1.6362961110718548
1758278188425642800,188.50564282226563,-1.7430746701836586,-7.074709253895282,1.4980768501661716
1758278188435726600,188.5157265625,-1.2524398554623126,-6.503734243524074,1.3390725753851234
1758278188445811700,188.5258117675781,-0.7813164544839412,-5.517441817483306,1.1530639738224446
1758278188455895600,188.5358955078125,-0.3979974475562572,-4.239194151547551,0.8945234392080456
1758278188465979600,188.5459797363281,-0.1088918249387294,-2.6678590268164872,0.4587083021719008
1758278188476064800,188.5560646972656,0.1828857933670282,-0.9197492850750684,0.0118482039050199
1758278188486148600,188.5661486816406,0.3699315559577196,1.0079933857172727,-0.500338535677269
1758278188496233700,188.57623364257813,0.6075304248303175,2.9218904865086075,-0.9548757627096026
1758278188506317600,188.58631762695316,0.9753781602513044,4.45227225408256,-1.1471486122988164
1758278188516402700,188.59640258789065,1.3893185154139995,5.123242008644342,-1.0411131266392766
1758278188526486500,188.6064865722656,1.8484556374572216,4.877093411156535,-0.4520161110568791
1758278188536571000,188.6165708007813,1.887158731469512,4.117347641032934,0.6532135869883
1758278188546655700,188.62665576171875,1.4977010025911033,3.4091035100877285,1.9722639495640992
1758278188556739600,188.63673950195312,0.851361246895045,3.1129291911929844,3.2724487220197918
1758278188566824700,188.64682470703124,-0.0990156700253486,3.0672528971672057,4.178599689853191
1758278188576908500,188.65690844726564,-0.82846362477988,2.9758126308321957,4.946825119030476
1758278188586993700,188.66699365234376,-1.4301497074961662,2.444232057738304,5.467240154987573
1758278188597077500,188.67707739257813,-1.656166494320333,1.4487024322748183,5.774791023421288
1758278188607162600,188.68716259765625,-1.3695660594567656,0.3322884193271398,6.011131928122043
1758278188617246700,188.69724682617183,-0.8519397774353623,-0.373144745850563,6.169167357870936
1758278188627330800,188.7073308105469,-0.4344450177267193,-0.4745382509231567,6.025118367898464
1758278188637415700,188.7174157714844,-0.3070186612531542,0.0730184744596481,5.36487575905621
1758278188647499800,188.72749975585936,-0.2306637358471751,1.046466031974554,4.22794181291014
1758278188657584600,188.73758471679687,-0.2502276834949851,2.174729472669959,2.786979327237606
1758278188667668500,188.74766845703124,-0.4070174970969557,3.179921244969964,1.3230183894239365
1758278188677753600,188.75775366210937,-0.7348243870958685,3.658586220434308,0.053181408958882
1758278188687837700,188.7678376464844,-1.0506894948884844,3.408363505375385,-0.9035485302500428
1758278188697921800,188.777921875,-1.1936959900707005,2.483375735124945,-1.4984551819592713
1758278188708006700,188.7880065917969,-0.960457435299456,1.1761924820840357,-1.82962234217152
1758278188718090800,188.7980908203125,-0.6640723962634801,-0.1028501336216926,-1.7200950688734649
1758278188728175600,188.80817553710935,-0.4613607894420623,-1.1702999169141053,-1.3883176678083835
1758278188738259700,188.818259765625,-0.2280368944749236,-1.96883046798408,-0.97392028959319
1758278188748344600,188.82834448242187,0.0233560334071516,-2.353031445378065,-0.4516467662878334
1758278188758428700,188.8384287109375,0.1864899553388357,-2.231488886246085,0.1279345982566475
1758278188768512800,188.8485126953125,0.2325835979938507,-1.7050187880337238,0.668693187931925
1758278188778597600,188.85859765625,0.11640431946069,-0.9536644141584634,1.1107638782314957
1758278188788681700,188.868681640625,-0.0741045161306858,-0.1038034888237714,1.381982911828905
1758278188798766600,188.8787666015625,-0.2173246540635824,0.7496744579643011,1.509270590484142
1758278188808850700,188.8888505859375,-0.3324820422030985,1.5004133302897211,1.578642671265453
1758278188818935600,188.898935546875,-0.4824123452991247,2.005886233180761,1.536339068543166
1758278188829020000,188.90902001953123,-0.5974040214829146,2.209928211823106,1.4721025970846413
1758278188839104800,188.9191047363281,-0.6629449996687471,2.0886638851106167,1.3739938127711415
1758278188849188600,188.92918872070317,-0.7023030504584312,1.64754625775218,1.2735296975031494
1758278188859272700,188.9392727050781,-0.7395230663061142,0.995137411275506,1.2086854694098232
1758278188869357600,188.94935766601563,-0.7242933484703302,0.237260357633233,1.1019913737110794
1758278188879441700,188.95944165039063,-0.6097439361613244,-0.5162760364562273,0.9478550702925772
1758278188889526500,188.9695266113281,-0.3833628460694104,-1.1918079843670129,0.7705863130897284
1758278188899611000,188.97961083984376,-0.3224876677375287,-1.8236060044914484,0.5380460427809506
1758278188909695700,188.98969580078125,-0.2731487595509737,-2.2935382229238748,0.3680649583682417
1758278188919779800,188.99977978515625,-0.1679249556005001,-2.602117849883437,0.2276153811272233
1758278188929863700,189.00986376953125,-0.149855045902729,-2.805786903560161,0.1593326299525797
1758278188939948800,189.01994873046877,-0.2164998571446165,-2.9403286449968813,0.0822482212282717
1758278188950032600,189.0300327148437,-0.4208078297793865,-3.007225421705842,-0.0743146517500281
1758278188960117500,189.04011743164065,-0.717566670563817,-3.004291121819615,-0.3123275813162326
1758278188970201900,189.05020190429687,-0.782696437600255,-2.7611323537975547,-0.3977313439659774
1758278188980286700,189.06028662109372,-0.9798428115099668,-2.431178514897823,-0.6760382899977266
1758278188990370800,189.07037084960936,-1.3491560163736342,-2.014751092159748,-1.044771503016353
1758278189000454700,189.08045458984373,-1.6241028383225202,-1.475708512622118,-1.3881540016792713
1758278189010539800,189.09053979492188,-1.6872960843384266,-0.8488333358526229,-1.5672195061057803
1758278189020623600,189.10062353515625,-1.7888935875505207,-0.2143593745172023,-1.6766443419426678
1758278189030708700,189.1107087402344,-2.0402426762908696,0.1793810001164674,-1.891158907021582
1758278189040792600,189.12079248046877,-2.103548150509596,0.4892798929810523,-2.225809963826835
1758278189050877700,189.1308776855469,-2.1084663176894187,0.9364771325141192,-2.4981854739829896
1758278189060961800,189.1409619140625,-2.138347076690197,1.4281091415792704,-2.698745455728471
1758278189071046700,189.15104663085935,-1.8418916027665135,2.15413793554008,-2.678449102152884
1758278189081130800,189.161130859375,-1.3175913959391414,2.953074144801497,-2.5830083680048586
1758278189091214600,189.17121459960936,-0.9690525374263524,3.51562911735177,-2.581833771267533
1758278189101299700,189.1812998046875,-0.9588660744547844,3.7140100014925,-2.438070612499118
1758278189111383800,189.1913837890625,-0.6852982857741415,3.3260587316542862,-2.2705118598625065
1758278189121468700,189.20146875,-0.0209282217383384,2.661285493645072,-2.301586504822969
1758278189131552800,189.211552734375,0.4278225308470427,2.252701185622811,-2.2857111825600267
1758278189141638000,189.22163793945316,0.5073221840195358,2.2443226488560435,-2.3127637323975563
1758278189151721700,189.2317216796875,0.4450198954939842,2.2573031264603136,-2.5695830692425368
1758278189161805800,189.24180590820316,0.0856594909764826,2.358068855023384,-2.752253466293216
1758278189171890700,189.251890625,-0.4829343233466148,3.0235265681654213,-2.8400922010049223
1758278189181974800,189.2619748535156,-1.0036819522589444,4.396160490760207,-2.619927062818408
1758278189192059600,189.2720595703125,-1.4278620349504052,6.103688046744465,-1.9177508536100387
1758278189202144000,189.28214404296875,-1.5416630400449036,7.326842186489701,-1.0335279322072863
1758278189212228900,189.29222875976564,-1.199472089254111,7.687084196147322,-0.3992015626490116
1758278189222312700,189.30231274414064,-0.391098189561814,7.00613723745048,-0.0405032753020524
1758278189232396800,189.31239672851564,0.8350007714636624,5.206503060176968,0.0554290417551994
1758278189242481700,189.32248168945316,2.2966261059366166,3.1377205181002616,-0.3002221329808235
1758278189252565800,189.33256567382813,3.5963229487448927,1.512131825134158,-0.9147223968237638
1758278189262650600,189.3426506347656,4.154409835970402,0.3589671674162149,-1.7515020145282147
1758278189272735000,189.35273486328128,3.9247757354319095,-0.3790273741483688,-2.6246745496064423
