time,seconds_elapsed,z,y,x
1757954328735652000,40.04865209960938,0.873301088809967,-0.9699621200561525,-0.0695942565798759
1757954328745608200,40.05860815429688,0.763093113899231,-0.8393833637237549,-0.0397431515157222
1757954328755564000,40.06856396484375,0.678584098815918,-0.7579694390296936,-0.0224733501672744
1757954328765520100,40.07852001953125,0.6306988596916199,-0.7359603047370911,-0.0210970286279916
1757954328775476000,40.08847607421875,0.6231192350387573,-0.771608293056488,-0.0301174223423004
1757954328785432000,40.09843212890625,0.645998477935791,-0.8542222380638123,-0.0457496456801891
1757954328795388000,40.10838793945312,0.6879834532737732,-0.9769417643547058,-0.0596678592264652
1757954328805343000,40.11834301757813,0.7432805299758911,-1.128068208694458,-0.0723855197429657
1757954328815299000,40.12829907226563,0.8059923648834229,-1.2828526496887207,-0.0716568753123283
1757954328825255000,40.1382548828125,0.8721922039985657,-1.4255094528198242,-0.0618537813425064
1757954328835211000,40.1482109375,0.9352757930755616,-1.5425047874450684,-0.0474287681281566
1757954328845166800,40.15816674804688,0.982463002204895,-1.612042784690857,-0.033509224653244
1757954328855123000,40.168123046875,1.0020442008972168,-1.625020980834961,-0.0289062168449163
1757954328865079000,40.1780791015625,0.984334409236908,-1.5654537677764893,-0.0314386151731014
1757954328875035100,40.18803515625,0.9248977303504944,-1.4435712099075315,-0.0430713035166263
1757954328884991000,40.19799096679687,0.8136657476425171,-1.292678952217102,-0.0515782386064529
1757954328894947000,40.20794702148437,0.6488528251647949,-1.1562834978103638,-0.0416537038981914
1757954328904903000,40.21790283203125,0.4461247622966766,-1.0446674823760986,-0.0010112022282555
1757954328914859000,40.22785888671875,0.2364154607057571,-0.95024436712265,0.0602196641266346
1757954328924814000,40.23781396484375,0.0493044331669807,-0.8474972248077393,0.1092194318771362
1757954328934770200,40.24777026367188,-0.0924748033285141,-0.7202271223068237,0.1184787079691886
1757954328944726000,40.25772607421875,-0.1898956298828125,-0.5647395253181458,0.0931182280182838
1757954328954682000,40.26768212890625,-0.2526255846023559,-0.3889442980289459,0.0476215817034244
1757954328964638000,40.27763793945312,-0.3038530945777893,-0.1872396618127823,-0.0048192562535405
1757954328974593800,40.28759375,-0.3577735722064972,0.0504748933017253,-0.0659316107630729
1757954328984550000,40.2975498046875,-0.4285561442375183,0.3286370038986206,-0.11924409866333
1757954328994506000,40.30750610351563,-0.539689302444458,0.5983017683029175,-0.1380753070116043
1757954329004461800,40.3174619140625,-0.7162545323371887,0.7999491095542908,-0.1051565110683441
1757954329014418000,40.32741796875,-0.9425894021987916,0.9569289088249208,-0.0677055418491363
1757954329024373800,40.33737377929688,-1.166578769683838,1.11304771900177,-0.0702371448278427
1757954329034328800,40.34732885742188,-1.3380274772644043,1.2767386436462402,-0.1150743886828422
1757954329044285000,40.35728491210938,-1.4516401290893557,1.434956669807434,-0.1735243797302246
1757954329054241000,40.36724096679688,-1.516688585281372,1.538719654083252,-0.2160212397575378
1757954329064196900,40.37719677734375,-1.536058783531189,1.5700477361679075,-0.2334652096033096
1757954329074153000,40.38715307617188,-1.511477828025818,1.520890235900879,-0.2306843400001526
1757954329084108800,40.39710888671875,-1.4438484907150269,1.4019063711166382,-0.2100163549184799
1757954329094065000,40.40706494140625,-1.344840407371521,1.2439676523208618,-0.1799852102994918
1757954329104020700,40.417020751953125,-1.2331892251968384,1.0834673643112185,-0.1444011181592941
1757954329113976800,40.426976806640624,-1.1355899572372437,0.9682268500328064,-0.1104048043489456
1757954329123933000,40.43693286132813,-1.065378189086914,0.9075973033905028,-0.08067087829113
1757954329133889000,40.44688891601562,-1.0392941236495972,0.9067477583885192,-0.0445160679519176
1757954329143843800,40.45684375,-1.057921051979065,0.9567230343818665,-0.0025859293527901
1757954329153799700,40.46679956054688,-1.1014580726623535,1.0429694652557373,0.0392398126423358
1757954329163755800,40.476755859375,-1.1527042388916016,1.1545532941818235,0.0752260461449623
1757954329173712000,40.4867119140625,-1.1967254877090454,1.2677816152572632,0.1034009605646133
1757954329183668000,40.49666796875,-1.225517988204956,1.367722511291504,0.1263898909091949
1757954329193623800,40.50662377929687,-1.2455064058303833,1.4367671012878418,0.1483993232250213
1757954329203580000,40.51657983398437,-1.2590112686157229,1.475816011428833,0.175939604640007
1757954329213535700,40.52653564453125,-1.2735058069229126,1.4946568012237549,0.2107497900724411
1757954329223491800,40.53649194335937,-1.2858731746673584,1.4969767332077026,0.2480755895376205
1757954329233447700,40.54644775390625,-1.2977842092514038,1.5087449550628662,0.2815096974372864
1757954329243404000,40.55640405273437,-1.2994470596313477,1.525132656097412,0.3114007711410522
1757954329253358800,40.56635888671875,-1.2871001958847046,1.5512902736663818,0.3392379879951477
1757954329263315000,40.57631494140625,-1.2626595497131348,1.569345474243164,0.3632951080799103
1757954329273270800,40.58627075195312,-1.2339050769805908,1.588306546211243,0.3909046351909637
1757954329283227000,40.59622680664062,-1.200505018234253,1.5905194282531738,0.4239832460880279
1757954329293183000,40.60618286132812,-1.1664786338806152,1.5681939125061035,0.4597750604152679
1757954329303139000,40.61613916015625,-1.1301027536392212,1.5291460752487185,0.4952699244022369
1757954329313095000,40.62609497070312,-1.0945732593536377,1.471713900566101,0.52898770570755
1757954329323051000,40.63605102539063,-1.056962251663208,1.4076825380325315,0.555290937423706
1757954329333006800,40.6460068359375,-1.008599042892456,1.3530594110488892,0.5703694820404053
1757954329342963000,40.655962890625,-0.9488182663917542,1.3188087940216064,0.5713998675346375
1757954329352918800,40.66591870117188,-0.8754460215568542,1.2987533807754517,0.5576374530792236
1757954329362875000,40.675875,-0.7896270155906677,1.2833807468414309,0.5263980031013489
1757954329372830000,40.68582983398438,-0.6923925876617432,1.2665839195251465,0.4836465716361999
1757954329382785800,40.69578588867188,-0.5866237878799438,1.2356867790222168,0.429770827293396
1757954329392742000,40.70574194335938,-0.4748647809028625,1.1748145818710327,0.3711322546005249
1757954329402697700,40.71569775390625,-0.3655753135681152,1.07525897026062,0.3223751187324524
1757954329412653800,40.72565380859375,-0.2664351463317871,0.9513463973999025,0.2829981446266174
1757954329422610000,40.73560986328125,-0.1769409477710724,0.825400173664093,0.2398152500391006
1757954329432566000,40.74556591796875,-0.0964184179902076,0.7194889187812805,0.1765715777873993
1757954329442521900,40.75552197265625,-0.023472037166357,0.6309744715690613,0.0975393429398536
1757954329452478000,40.76547802734375,0.0416108258068561,0.5665491819381714,0.0102473115548491
1757954329462433800,40.775433837890624,0.0953145325183868,0.512860894203186,-0.0792546048760414
1757954329472388900,40.78538891601563,0.1438013762235641,0.4638001620769501,-0.1755377352237701
1757954329482345000,40.79534497070313,0.2087944895029068,0.4113398790359497,-0.2748544812202453
1757954329492301000,40.80530102539063,0.3063988089561462,0.3433403074741363,-0.3703181445598602
1757954329502257000,40.8152568359375,0.4330491721630096,0.2293873876333236,-0.4567859172821045
1757954329512213000,40.825212890625,0.5774047374725342,0.0500567741692066,-0.529902458190918
1757954329522168800,40.8351689453125,0.72101891040802,-0.1996891498565673,-0.5832898020744324
1757954329532125000,40.845125,0.8548089265823364,-0.4880583584308624,-0.6182054281234741
1757954329542080800,40.85508081054687,0.9779345989227296,-0.773317813873291,-0.6559451222419739
1757954329552036900,40.86503686523437,1.0874714851379397,-1.0402213335037231,-0.6973814964294434
1757954329561993000,40.87499291992187,1.1721941232681274,-1.2937705516815186,-0.7263614535331726
1757954329571948800,40.88494873046875,1.235519528388977,-1.523690104484558,-0.743969738483429
1757954329581904000,40.89490380859375,1.2871829271316528,-1.7216521501541138,-0.7578365802764893
1757954329591859700,40.90485961914062,1.340131163597107,-1.8893524408340452,-0.7686647176742554
1757954329601816000,40.914816162109375,1.4022771120071411,-2.0401976108551025,-0.7835424542427063
1757954329611772000,40.92477197265625,1.4689242839813232,-2.17773985862732,-0.7938116192817688
1757954329621728000,40.93472802734375,1.5289276838302612,-2.29289174079895,-0.7837094664573669
1757954329631683800,40.94468383789062,1.5782403945922852,-2.3886075019836426,-0.7469903230667114
1757954329641640000,40.95463989257812,1.6176810264587402,-2.4387199878692627,-0.6887016892433167
1757954329651595800,40.964595703125,1.6490719318389893,-2.438523054122925,-0.6162786483764648
1757954329661551900,40.9745517578125,1.6802101135253906,-2.377563953399658,-0.5523641109466553
1757954329671507700,40.9845078125,1.7134655714035034,-2.259249448776245,-0.4996753334999084
1757954329681462800,40.994462890625,1.7398210763931274,-2.087368965148926,-0.4523102045059204
1757954329691419000,41.0044189453125,1.7524702548980713,-1.882351279258728,-0.4033770263195038
1757954329701374700,41.01437475585937,1.7447733879089355,-1.659129619598389,-0.3615297079086303
1757954329711330800,41.02433081054688,1.7109099626541138,-1.4300099611282349,-0.3266414999961853
1757954329721286700,41.03428662109375,1.6486746072769165,-1.212053298950195,-0.3000884652137756
1757954329731243000,41.04424291992188,1.5586727857589722,-1.0252448320388794,-0.2703816890716553
1757954329741198800,41.05419873046875,1.446015238761902,-0.869788408279419,-0.2437032014131546
1757954329751155000,41.06415502929688,1.3211023807525637,-0.741948127746582,-0.2270904034376144
1757954329761110800,41.07411083984375,1.1963555812835691,-0.6388734579086304,-0.2179733365774154
1757954329771067000,41.08406689453125,1.0897364616394043,-0.5631195306777954,-0.2239739745855331
1757954329781022700,41.094022705078125,0.9973682165145874,-0.514495849609375,-0.2375044375658035
1757954329790978800,41.10397875976562,0.9237563014030457,-0.5012186169624329,-0.2546064555644989
1757954329800934000,41.11393383789063,0.8602649569511414,-0.5248025059700012,-0.2686807215213775
1757954329810890000,41.12388989257813,0.808510422706604,-0.5813124179840088,-0.2791440188884735
1757954329820845800,41.133845703125,0.7626968622207642,-0.6656246185302734,-0.2837169468402862
1757954329830802000,41.14380200195313,0.7266552448272705,-0.7589327096939087,-0.28007373213768
1757954329840757800,41.1537578125,0.7005405426025391,-0.8556145429611206,-0.274060308933258
1757954329850713900,41.1637138671875,0.6803873181343079,-0.961090087890625,-0.270548939704895
1757954329860670000,41.173669921875,0.6649753451347351,-1.0781985521316528,-0.2689254581928253
1757954329870626000,41.1836259765625,0.6469071507453918,-1.1894510984420776,-0.2701060473918915
1757954329880582000,41.19358178710937,0.6214571595191956,-1.2853896617889404,-0.2591505944728851
1757954329890538000,41.2035380859375,0.5738440752029419,-1.3638434410095217,-0.2327437698841095
1757954329900492800,41.21349291992188,0.5025680661201477,-1.4242417812347412,-0.189499095082283
1757954329910449000,41.223448974609376,0.4119702577590942,-1.4520848989486694,-0.1377298980951309
1757954329920405000,41.23340502929688,0.3124673664569855,-1.4351447820663452,-0.0836317762732505
1757954329930360800,41.24336083984375,0.2204530090093612,-1.364189386367798,-0.0406387709081172
1757954329940317000,41.25331689453125,0.1314762681722641,-1.2443015575408936,-0.020987307652831
1757954329950272800,41.26327270507812,0.0418033711612224,-1.0718402862548828,-0.0197816938161849
1757954329960228900,41.27322875976562,-0.0650367885828018,-0.8795883059501648,-0.0317576639354229
1757954329970185200,41.28318530273437,-0.1890705823898315,-0.698833703994751,-0.0440976880490779
1757954329980141000,41.29314111328125,-0.3155827224254608,-0.5247260928153992,-0.0488117486238479
1757954329990097400,41.30309741210937,-0.4129508137702942,-0.3858555555343628,-0.0544842816889286
1757954330000052200,41.31305224609375,-0.458393931388855,-0.2769727408885956,-0.0839463025331497
1757954330010008000,41.323008056640624,-0.4499072432518005,-0.1715408563613891,-0.1399909257888794
1757954330019964200,41.33296411132813,-0.4132831692695617,-0.0426683686673641,-0.1974646002054214
1757954330029920000,41.342919921875,-0.4124168455600738,0.0752931535243988,-0.2070210874080658
1757954330039876000,41.3528759765625,-0.4923228621482849,0.1788083612918853,-0.1731398254632949
1757954330049832200,41.36283227539062,-0.6403301954269409,0.33592689037323,-0.1387514919042587
1757954330059788300,41.37278833007812,-0.8123764991760254,0.5936180949211121,-0.1130144372582435
1757954330069744000,41.382744140625,-0.9793705344200134,0.9612698554992676,-0.081207238137722
1757954330079700200,41.3927001953125,-1.1307600736618042,1.3779152631759644,-0.0245474204421043
1757954330089656000,41.40265600585938,-1.2567946910858154,1.7496744394302368,0.0459794774651527
1757954330099612200,41.41261206054688,-1.33565354347229,1.994580864906311,0.1247688308358192
1757954330109567200,41.42256713867187,-1.3551896810531616,2.095759153366089,0.1866327226161956
1757954330119523300,41.4325234375,-1.3185845613479614,2.0665712356567383,0.224016323685646
1757954330129479200,41.44247924804687,-1.260717511177063,1.962085247039795,0.2442451566457748
1757954330139435000,41.45243505859375,-1.2069664001464844,1.8404927253723145,0.2521068155765533
1757954330149391000,41.46239111328125,-1.173730731010437,1.749212622642517,0.2658162415027618
1757954330159347000,41.47234692382813,-1.1582529544830322,1.7164102792739868,0.3001182675361633
1757954330169303300,41.48230322265625,-1.1551202535629272,1.7275824546813965,0.3551559746265411
1757954330179259100,41.492259033203126,-1.1574002504348757,1.7514595985412598,0.4248719215393066
1757954330189215200,41.50221533203125,-1.1672792434692385,1.77984356880188,0.5026364922523499
1757954330199171000,41.512171142578126,-1.1835074424743652,1.8034700155258176,0.5746931433677673
1757954330209126100,41.52212622070312,-1.2080833911895752,1.8187432289123533,0.6289379596710205
1757954330219082200,41.53208227539063,-1.2321332693099976,1.8279192447662356,0.6611880660057068
1757954330229038300,41.54203833007813,-1.242706537246704,1.8045254945755005,0.6811510920524597
1757954330238994200,41.551994140625,-1.243449091911316,1.7328685522079468,0.6893070340156555
1757954330248950300,41.5619501953125,-1.2339807748794556,1.620319366455078,0.6986808180809021
1757954330258906000,41.571906005859375,-1.21723473072052,1.489857792854309,0.71175217628479
1757954330268862200,41.5818623046875,-1.2008720636367798,1.3717775344848633,0.7339059114456177
1757954330278818000,41.591818115234375,-1.1875916719436646,1.2704449892044067,0.7603543400764465
1757954330288774100,41.60177416992188,-1.1774386167526243,1.195026993751526,0.7850067019462585
1757954330298730200,41.611730224609374,-1.1647793054580688,1.143622636795044,0.8087807297706604
1757954330308685000,41.62168505859375,-1.1463161706924438,1.1125038862228394,0.8281964659690857
1757954330318641200,41.63164111328125,-1.123807668685913,1.086078643798828,0.8459256887435913
1757954330328597000,41.641596923828125,-1.0900461673736572,1.0628148317337036,0.8545172810554504
1757954330338553000,41.651552978515625,-1.048721432685852,1.0322250127792358,0.8509398698806763
1757954330348509200,41.66150927734375,-0.9920381307601928,0.995380401611328,0.8375580310821533
1757954330358465300,41.67146533203125,-0.9294253587722778,0.9489548802375792,0.8227314352989197
1757954330368421000,41.68142114257813,-0.8638525009155273,0.8903490900993347,0.8105788826942444
1757954330378377200,41.69137719726562,-0.7981072664260864,0.8419807553291321,0.7954683899879456
1757954330388333000,41.7013330078125,-0.7323197722434998,0.8060701489448547,0.7689712643623352
1757954330398289200,41.7112890625,-0.6622059345245361,0.7947804927825928,0.7277204990386963
1757954330408244200,41.721244140625,-0.590721070766449,0.8028082847595215,0.6739941239356995
1757954330418200300,41.731200439453126,-0.5167997479438782,0.8149371147155762,0.6127030849456787
1757954330428156200,41.74115625,-0.4424402713775635,0.8310977220535278,0.539679765701294
1757954330438112300,41.7511123046875,-0.3648088574409485,0.8334751129150391,0.4555187821388244
1757954330448068000,41.76106811523437,-0.2842658162117004,0.8126617074012756,0.3607169091701507
1757954330458024200,41.77102416992187,-0.1919728964567184,0.7608065009117126,0.2588033378124237
1757954330467980000,41.78097998046875,-0.0974578484892845,0.6797692179679871,0.152667298913002
1757954330477936400,41.79093627929687,-0.0043089943937957,0.5762473344802856,0.0461949259042739
1757954330487892200,41.80089233398437,0.090432696044445,0.4681488275527954,-0.066129483282566
1757954330497848300,41.81084838867187,0.1884668469429016,0.369210809469223,-0.1730665862560272
1757954330507803100,41.82080322265625,0.2829952239990234,0.2954833209514618,-0.2743892073631286
1757954330517759000,41.83075903320312,0.3734015524387359,0.2536098957061767,-0.3830656409263611
1757954330527715300,41.84071533203125,0.4778680205345154,0.2291879057884216,-0.4998830556869507
1757954330537671200,41.85067114257812,0.5994999408721924,0.1943441778421402,-0.6166975498199463
1757954330547627300,41.86062719726562,0.7410972714424133,0.1107211858034133,-0.7239920496940613
1757954330557583000,41.8705830078125,0.8991186022758484,-0.0524703972041606,-0.8152663111686707
1757954330567539200,41.88053930664063,1.0703731775283811,-0.2865910232067108,-0.8659510612487793
1757954330577495000,41.8904951171875,1.2381986379623413,-0.5545591115951538,-0.8860589861869812
1757954330587451100,41.900451171875,1.3857007026672363,-0.8039857149124146,-0.8827742338180542
1757954330597407000,41.91040698242188,1.4957321882247925,-1.004180073738098,-0.8778234124183655
1757954330607362300,41.9203623046875,1.5601763725280762,-1.1457411050796509,-0.8894606232643127
1757954330617318100,41.93031811523438,1.589901089668274,-1.2447172403335571,-0.911693513393402
1757954330627274200,41.94027416992188,1.6043473482131958,-1.317784547805786,-0.9396865367889404
1757954330637230000,41.95022998046875,1.6116206645965576,-1.3897242546081543,-0.9608501195907592
1757954330647186200,41.96018627929688,1.622952222824097,-1.4713094234466553,-0.9748445153236388
1757954330657142300,41.97014233398438,1.6446207761764526,-1.581176519393921,-0.98417729139328
1757954330667098400,41.98009838867188,1.6750742197036743,-1.7251944541931152,-0.9820326566696168
1757954330677054200,41.99005419921875,1.7032414674758911,-1.8921724557876587,-0.9632741212844848
1757954330687010300,42.00001025390625,1.7296024560928345,-2.0638504028320312,-0.9195882081985474
1757954330696966100,42.00996606445312,1.7486754655838013,-2.2084968090057373,-0.8489720821380615
1757954330706921200,42.01992114257813,1.7654461860656738,-2.3032586574554443,-0.7621354460716248
1757954330716877300,42.02987719726563,1.770642638206482,-2.333558320999145,-0.6784021854400635
1757954330726833200,42.03983325195313,1.7689841985702517,-2.28621506690979,-0.6055594086647034
1757954330736789200,42.04978930664063,1.7681884765625,-2.171968936920166,-0.5434747338294983
1757954330746745000,42.0597451171875,1.7665549516677856,-2.0110902786254883,-0.4912906289100647
1757954330756701200,42.069701171875,1.7553839683532717,-1.8273189067840576,-0.4528351128101349
1757954330766657000,42.079656982421874,1.736358880996704,-1.6411511898040771,-0.4189269542694092
1757954330776613000,42.08961303710937,1.6953164339065552,-1.4624333381652832,-0.3912662863731384
1757954330786569200,42.0995693359375,1.6468021869659424,-1.30163836479187,-0.3736982345581054
1757954330796525300,42.109525390625,1.5882834196090698,-1.1656067371368408,-0.3584239184856415
1757954330806480100,42.119480224609376,1.5276947021484375,-1.0555942058563232,-0.3458119928836822
1757954330816436000,42.12943603515625,1.466916561126709,-0.9766405820846558,-0.3274902403354645
1757954330826392000,42.13939208984375,1.4029321670532229,-0.9267350435256958,-0.3111871778964996
1757954330836348200,42.14934814453125,1.334324598312378,-0.9027000069618224,-0.2900744378566742
1757954330846304300,42.15930419921875,1.2632606029510498,-0.901915967464447,-0.2709843516349792
1757954330856260000,42.16926000976562,1.1961936950683594,-0.9159750938415528,-0.2566967606544494
1757954330866216200,42.17921630859375,1.1318687200546265,-0.938077449798584,-0.2499541789293289
1757954330876172000,42.18917211914062,1.080487608909607,-0.9784541726112366,-0.2510809600353241
1757954330886128000,42.19912817382812,1.034149408340454,-1.0143581628799438,-0.2598057389259338
1757954330896084000,42.209083984375,0.989023745059967,-1.0330032110214231,-0.273800641298294
1757954330906039300,42.219039306640624,0.9415470361709596,-1.0319360494613647,-0.292104035615921
1757954330915995100,42.2289951171875,0.8827255368232727,-1.0153229236602783,-0.3136572539806366
1757954330925951200,42.238951171875,0.8052163124084473,-0.994034707546234,-0.3408531844615936
1757954330935907000,42.24890698242187,0.6994057297706604,-0.970654845237732,-0.3589970469474792
1757954330945863200,42.25886328125,0.5724355578422546,-0.9672579765319824,-0.3510235249996185
1757954330955819000,42.26881909179688,0.4452179372310638,-0.9921806454658508,-0.3073258697986603
1757954330965775400,42.278775390625,0.3264113962650299,-1.0314832925796509,-0.2484729290008545
1757954330975731000,42.28873095703125,0.229863554239273,-1.0718778371810913,-0.1967769712209701
1757954330985686800,42.298686767578126,0.1638453900814056,-1.1094553470611572,-0.1644970625638961
1757954330995643000,42.308642822265625,0.1088907942175865,-1.146182417869568,-0.154939517378807
1757954331005598000,42.31859790039063,0.0381375327706337,-1.166468858718872,-0.1620621383190155
1757954331015554000,42.32855395507813,-0.0550328902900218,-1.15617573261261,-0.16969795525074
1757954331025510000,42.33851000976563,-0.1756882071495056,-1.1216880083084106,-0.1665586233139038
1757954331035466000,42.34846606445313,-0.3132388889789581,-1.0503549575805664,-0.1435353308916092
1757954331045421800,42.358421875,-0.4549107849597931,-0.9374414682388306,-0.1062492057681083
1757954331055378000,42.3683779296875,-0.5759317278862,-0.7696836590766907,-0.078302264213562
1757954331065333800,42.378333740234375,-0.6697061657905579,-0.5139991641044617,-0.1002632230520248
1757954331075289900,42.388289794921874,-0.7447996139526367,-0.188699871301651,-0.1537682563066482
1757954331085246000,42.398245849609374,-0.8640796542167664,0.1364313513040542,-0.1732077300548553
1757954331095200800,42.40820068359375,-1.0557883977890017,0.4378998577594757,-0.1343242526054382
1757954331105156900,42.41815698242188,-1.2825608253479004,0.7522284984588623,-0.1010126322507858
1757954331115112700,42.42811279296875,-1.463412880897522,1.0921742916107178,-0.0975633114576339
1757954331125068800,42.43806884765625,-1.572255253791809,1.4106111526489258,-0.1005567014217376
1757954331135025000,42.44802490234375,-1.617344856262207,1.652657151222229,-0.0744952708482742
1757954331144981000,42.45798095703125,-1.638703465461731,1.7976869344711304,-0.0090195937082171
1757954331154936800,42.46793676757813,-1.6465991735458374,1.8585224151611328,0.0891557112336158
1757954331164893000,42.47789282226562,-1.6420994997024536,1.8711864948272705,0.2053835093975067
1757954331174848800,42.48784887695312,-1.6048775911331177,1.8592389822006223,0.3198099434375763
1757954331184804900,42.49780493164062,-1.5280674695968628,1.8436222076416016,0.4171615540981293
1757954331194760000,42.507760009765626,-1.4229599237442017,1.8354485034942627,0.4885963201522827
1757954331204716000,42.517716064453126,-1.3236693143844604,1.8445490598678589,0.5398459434509277
1757954331214672000,42.527671875,-1.2650936841964722,1.864800214767456,0.5706847906112671
1757954331224628000,42.5376279296875,-1.260237693786621,1.9073336124420168,0.5909634232521057
1757954331234583800,42.54758374023437,-1.30426824092865,1.943270802497864,0.6093597412109375
1757954331244540000,42.55753979492187,-1.3763355016708374,1.9632456302642824,0.627555787563324
1757954331254495700,42.56749584960937,-1.4455829858779907,1.9660160541534424,0.645713746547699
1757954331264452000,42.5774521484375,-1.4901916980743408,1.9533839225769043,0.6623678207397461
1757954331274408000,42.58740795898437,-1.5040053129196167,1.9340101480484009,0.68187415599823
1757954331284362800,42.59736279296875,-1.494493007659912,1.903379321098328,0.7010534405708313
1757954331294318800,42.60731884765625,-1.470439076423645,1.85935652256012,0.7210401892662048
1757954331304274700,42.61727465820312,-1.4413198232650757,1.796876072883606,0.7380785942077637
1757954331314231000,42.62723095703125,-1.414759874343872,1.7253377437591553,0.75331050157547
1757954331324187000,42.63718676757812,-1.3861005306243896,1.6472101211547852,0.7620672583580017
1757954331334143000,42.64714306640625,-1.3569945096969604,1.5645689964294434,0.7664995789527893
1757954331344098800,42.65709887695313,-1.3250453472137451,1.4861719608306885,0.7631106972694397
1757954331354055000,42.66705493164063,-1.2914732694625854,1.4146724939346311,0.7531230449676514
1757954331364010800,42.6770107421875,-1.2529624700546265,1.3509970903396606,0.7359483242034912
1757954331373966800,42.686966796875,-1.2164521217346191,1.285056233406067,0.7141743302345276
1757954331383922000,42.696921875,-1.174999713897705,1.2240593433380127,0.6918831467628479
1757954331393878000,42.7068779296875,-1.1311821937561035,1.167387843132019,0.669393002986908
1757954331403833900,42.71683374023438,-1.084616780281067,1.1105570793151855,0.6497567296028137
1757954331413790000,42.7267900390625,-1.0367488861083984,1.04639995098114,0.6376057863235474
1757954331423745800,42.73674584960938,-0.9894703030586244,0.977738320827484,0.6217157244682312
1757954331433702000,42.74670190429688,-0.9407145380973816,0.9117488861083984,0.5991281270980835
1757954331443658000,42.75665795898438,-0.89301997423172,0.8697170615196228,0.5792108774185181
1757954331453614000,42.76661401367188,-0.848722517490387,0.860527515411377,0.5624159574508667
1757954331463570000,42.77656982421875,-0.805380642414093,0.8795600533485413,0.5458060503005981
1757954331473524700,42.78652465820313,-0.7573974132537842,0.94023859500885,0.5179659128189087
1757954331483480800,42.79648071289063,-0.7005953788757324,1.0424137115478516,0.4699824154376983
1757954331493437000,42.80643701171875,-0.6332493424415588,1.1598913669586182,0.4039301574230194
1757954331503393000,42.81639306640625,-0.5596182942390442,1.2561081647872925,0.3277533650398254
1757954331513348900,42.826348876953126,-0.4845949113368988,1.2882457971572876,0.2451833933591842
1757954331523305000,42.83630493164063,-0.4053943753242492,1.2315527200698853,0.1628056913614273
1757954331533260800,42.8462607421875,-0.3106609284877777,1.0833430290222168,0.0851492509245872
1757954331543217000,42.856216796875,-0.1991269439458847,0.8569170832633972,0.009010805748403
1757954331553172700,42.8661728515625,-0.0674059391021728,0.5862328410148621,-0.0744201689958572
1757954331563128000,42.87612817382813,0.0635816380381584,0.3095208406448364,-0.1574293076992035
1757954331573084000,42.886083984375,0.1729035973548889,0.0742934048175811,-0.2307815551757812
1757954331583039700,42.89603979492188,0.2357893586158752,-0.1023892238736152,-0.3021361529827118
1757954331592995800,42.905995849609376,0.2723614871501922,-0.2081276327371597,-0.3898332417011261
1757954331602951700,42.91595166015625,0.3189122080802917,-0.2500244975090027,-0.5011837482452393
1757954331612907800,42.92590771484375,0.3905288577079773,-0.2687062919139862,-0.621275007724762
1757954331622864000,42.93586376953125,0.4769308567047119,-0.3009324073791504,-0.7213912010192871
1757954331632820000,42.945820068359374,0.5551721453666687,-0.3685676455497741,-0.7770254611968994
1757954331642775800,42.95577587890625,0.6205649971961975,-0.4486672580242157,-0.7935434579849243
1757954331652731000,42.96573095703125,0.6805122494697571,-0.4987845122814178,-0.7892637252807617
1757954331662686700,42.975686767578125,0.7383190393447876,-0.5111884474754333,-0.797529399394989
1757954331672643000,42.98564306640625,0.7820990085601807,-0.5052661299705505,-0.8104968667030334
1757954331682599000,42.995598876953125,0.8053699731826782,-0.509433388710022,-0.8049657344818115
1757954331692555000,43.005554931640624,0.8157786726951599,-0.5264973640441895,-0.7891468405723572
1757954331702510800,43.0155107421875,0.8351819515228271,-0.5598244071006775,-0.7756640315055847
1757954331712467000,43.02546704101562,0.873073399066925,-0.6178368330001831,-0.7621386647224426
1757954331722422800,43.0354228515625,0.9334065318107604,-0.7055073380470276,-0.7431276440620422
1757954331732379000,43.04537890625,1.0116381645202637,-0.8282089829444885,-0.7298153042793274
1757954331742334700,43.05533471679688,1.1053329706192017,-0.9823205471038818,-0.716837465763092
1757954331752289800,43.065289794921874,1.2009042501449585,-1.1562678813934326,-0.7017741203308105
1757954331762246000,43.075245849609374,1.301864504814148,-1.324126124382019,-0.686061441898346
1757954331772201700,43.08520166015625,1.408034324645996,-1.4652198553085327,-0.6752815246582031
1757954331782157800,43.09515771484375,1.5278469324111938,-1.5596864223480225,-0.6724700331687927
1757954331792113700,43.10511376953125,1.6667028665542605,-1.5972648859024048,-0.6733579039573669
1757954331802070000,43.11507006835937,1.8222134113311768,-1.5754296779632568,-0.6763004064559937
1757954331812025900,43.12502587890625,1.9752944707870483,-1.509462594985962,-0.6793606877326965
1757954331821982000,43.13498193359375,2.104051113128662,-1.4184643030166626,-0.668641209602356
1757954331831937800,43.14493774414063,2.163052082061768,-1.336552619934082,-0.6283060312271118
1757954331841892900,43.15489282226562,2.119884967803955,-1.3022851943969729,-0.5383114218711853
1757954331851849000,43.16484887695312,1.982316255569458,-1.3196032047271729,-0.4307684302330017
1757954331861805000,43.17480517578125,1.791897535324097,-1.3707783222198486,-0.3412241637706756
1757954331871761000,43.18476098632812,1.590197205543518,-1.4299827814102173,-0.2908675372600555
1757954331881717000,43.19471704101562,1.392267823219299,-1.4863581657409668,-0.2716424167156219
1757954331891672800,43.2046728515625,1.2136003971099854,-1.5528055429458618,-0.2519912421703338
1757954331901629000,43.21462890625,1.0615564584732056,-1.6161075830459597,-0.2008651942014694
1757954331911584800,43.22458471679688,0.9414074420928956,-1.6482807397842407,-0.1255328953266143
1757954331921540900,43.234540771484376,0.8417706489562988,-1.6214014291763306,-0.0493736751377582
1757954331931496000,43.24449584960937,0.7447851896286011,-1.4973591566085815,0.0139072937890887
1757954331941451800,43.25445166015625,0.6341308951377869,-1.2933005094528198,0.0676847696304321
1757954331951407900,43.26440795898438,0.4879081547260284,-1.055324673652649,0.110247679054737
1757954331961363700,43.27436376953125,0.2988831102848053,-0.8250156044960022,0.1369360089302063
1757954331971319800,43.28431982421875,0.0810639634728431,-0.6222507953643799,0.152529627084732
1757954331981276200,43.29427612304688,-0.1327050477266311,-0.4499700963497162,0.1675783395767212
1757954331991232300,43.30423217773438,-0.3106601238250732,-0.3336120545864105,0.1851733177900314
1757954332001188000,43.31418798828125,-0.434739738702774,-0.2927314639091491,0.2086624056100845
1757954332011144200,43.32414428710938,-0.5033196210861206,-0.3357593715190887,0.2411609590053558
1757954332021099000,43.33409912109375,-0.5262182354927063,-0.4288016855716705,0.2800662815570831
1757954332031055000,43.34405517578125,-0.5321562886238098,-0.5518852472305298,0.3190024793148041
1757954332041011200,43.35401123046875,-0.5355121493339539,-0.6734282374382019,0.3578923642635345
1757954332050967300,43.36396728515625,-0.5473307371139526,-0.7754392623901367,0.3945081532001495
1757954332060923100,43.37392309570313,-0.5656330585479736,-0.850585401058197,0.423006922006607
1757954332070879200,43.38387915039063,-0.582500696182251,-0.8673912882804871,0.4368239343166351
1757954332080835000,43.3938349609375,-0.5782985091209412,-0.8386967778205872,0.4293263256549835
1757954332090791200,43.403791259765626,-0.5262646079063416,-0.8200658559799194,0.3887237906455993
1757954332100747000,43.4137470703125,-0.4122389554977417,-0.8331640958786011,0.3291864097118377
1757954332110702000,43.4237021484375,-0.232104867696762,-0.8553774952888489,0.2495973110198974
1757954332120658200,43.433658203125,-0.0009885653853416,-0.8515369892120361,0.1660518199205398
1757954332130614000,43.44361401367188,0.2443165332078933,-0.7681765556335449,0.0878819152712822
1757954332140570000,43.453570068359376,0.4594538807868957,-0.5625187158584595,0.0351534597575664
1757954332150526000,43.46352587890625,0.575847327709198,-0.29853156208992,0.0255293287336826
1757954332160482000,43.47348193359375,0.5290254950523376,-0.0728009715676307,0.0734664946794509
1757954332170438100,43.48343823242188,0.3042621612548828,0.1261842995882034,0.1499282419681549
1757954332180394200,43.493394287109375,-0.0113458652049303,0.3382180035114288,0.1969897598028183
1757954332190350000,43.50335009765625,-0.3079959154129028,0.6082556247711182,0.1857954263687133
1757954332200305200,43.51330517578125,-0.5184426307678223,0.9215786457061768,0.1178486049175262
1757954332210261000,43.523260986328125,-0.6244872808456421,1.2185256481170654,0.0154729662463068
1757954332220217300,43.53321728515625,-0.6541599631309509,1.4151440858840942,-0.0912151336669921
1757954332230173200,43.543173095703125,-0.6354637742042542,1.4574116468429563,-0.1721736341714859
1757954332240129300,43.55312939453125,-0.5762542486190796,1.3401566743850708,-0.2003488093614578
1757954332250085000,43.56308520507813,-0.4877510368824005,1.0994889736175537,-0.1843757033348083
1757954332260041200,43.57304125976562,-0.3857037425041199,0.8023441433906555,-0.1637215614318847
1757954332269997000,43.5829970703125,-0.2918677926063537,0.5303365588188171,-0.1756405383348465
1757954332279953200,43.592953125,-0.2385822087526321,0.3414406776428222,-0.2236578613519668
1757954332289908200,43.602908203125,-0.2539917826652527,0.2501355409622192,-0.2866168618202209
1757954332299864000,43.612864013671874,-0.3483534455299377,0.2488588243722915,-0.3387117385864258
1757954332309820200,43.622820068359374,-0.5002127289772034,0.3071658015251159,-0.3669977188110351
1757954332319776000,43.63277587890625,-0.6713727712631226,0.384827584028244,-0.3617345094680786
1757954332329732000,43.64273217773437,-0.8259540796279907,0.4536018371582031,-0.3317241370677948
1757954332339688000,43.65268798828125,-0.9477980136871338,0.5158764123916626,-0.2955163419246673
1757954332349644300,43.66264428710937,-1.0363554954528809,0.5794511437416077,-0.2500215470790863
1757954332359600000,43.67260009765625,-1.1015933752059937,0.6455446481704712,-0.1975719332695007
1757954332369556200,43.68255615234375,-1.1468024253845217,0.6993735432624817,-0.1385456323623657
1757954332379511000,43.69251098632813,-1.181133270263672,0.7559361457824707,-0.073923759162426
1757954332389467100,43.70246704101562,-1.2154507637023926,0.818007230758667,-0.0057404437102377
1757954332399423200,43.71242333984375,-1.251499056816101,0.8898470401763916,0.0619224905967712
1757954332409379300,43.72237939453125,-1.2881134748458862,0.9684593081474304,0.1266937553882599
1757954332419335200,43.73233520507812,-1.3283323049545288,1.0466545820236206,0.1940845251083374
1757954332429291000,43.742291015625,-1.3585729598999023,1.1251122951507568,0.2659949362277984
1757954332439247000,43.7522470703125,-1.3820791244506836,1.1925725936889648,0.3399271965026855
1757954332449203000,43.76220288085938,-1.3942631483078003,1.2429848909378052,0.4144800007343292
1757954332459159000,43.77215893554688,-1.3975502252578735,1.2679765224456787,0.4855696260929107
1757954332469114000,43.78211401367187,-1.3902790546417236,1.2615463733673096,0.5487658977508545
1757954332479070200,43.7920703125,-1.3764023780822754,1.2462621927261353,0.5919578671455383
1757954332489026000,43.80202612304687,-1.3455480337142944,1.23553204536438,0.6171036958694458
1757954332498982100,43.81198217773437,-1.298417568206787,1.2363240718841553,0.6167708039283752
1757954332508938000,43.82193798828125,-1.2399576902389526,1.2455040216445925,0.5931413769721985
1757954332518894000,43.83189404296875,-1.1799201965332031,1.2552354335784912,0.5563393831253052
1757954332528850200,43.84185009765625,-1.120379090309143,1.262580394744873,0.5131596922874451
1757954332538806300,43.85180615234375,-1.064049243927002,1.2623809576034546,0.4651394486427307
1757954332548761000,43.86176098632812,-0.995387613773346,1.2483820915222168,0.4054971635341644
1757954332558717000,43.87171704101563,-0.902729034423828,1.206020474433899,0.3283701539039612
1757954332568673000,43.88167309570313,-0.7776771187782288,1.1326067447662354,0.2314289659261703
1757954332578629000,43.89162915039063,-0.618056058883667,1.02775776386261,0.1258681863546371
1757954332588585200,43.90158520507813,-0.4299961030483246,0.8943917751312256,0.0102915195748209
1757954332598541000,43.911541015625,-0.2201185226440429,0.7398932576179504,-0.1082503050565719
1757954332608497200,43.9214970703125,-0.0009853695519268,0.5705329775810242,-0.2271426022052765
1757954332618453000,43.931452880859375,0.20814149081707,0.4116296172142029,-0.3262609243392944
1757954332628409000,43.9414091796875,0.395403504371643,0.2788995504379272,-0.3961542546749115
1757954332638364200,43.9513642578125,0.554031252861023,0.1682340204715728,-0.4390220940113067
1757954332648320300,43.9613203125,0.6645002365112305,0.0569892488420009,-0.4604679942131042
1757954332658276000,43.97127612304688,0.721092939376831,-0.0752231180667877,-0.4443976879119873
1757954332668232200,43.98123217773438,0.7371038794517517,-0.1996939331293106,-0.40017831325531
1757954332678188000,43.99118798828125,0.7405773997306824,-0.2675744593143463,-0.3702691495418548
1757954332688144100,44.00114404296875,0.755402684211731,-0.2585609853267669,-0.3939909636974334
1757954332698100000,44.01109985351562,0.7730466723442078,-0.2213816493749618,-0.4377616345882416
1757954332708056300,44.021056396484376,0.7637029886245728,-0.2165405601263046,-0.472851425409317
1757954332718012200,44.03101220703125,0.7184843420982361,-0.2783671915531158,-0.4983791708946228
1757954332727967000,44.04096704101563,0.6817489862442017,-0.3809643983840942,-0.5253660678863525
1757954332737923000,44.050923095703126,0.686130166053772,-0.4984966218471527,-0.549390435218811
1757954332747879000,44.06087890625,0.7347144484519958,-0.6494193077087402,-0.5697265863418579
1757954332757835300,44.070835205078126,0.7991504669189453,-0.8337947130203247,-0.5824218988418579
1757954332767791000,44.080791015625,0.8615853190422058,-1.0432853698730469,-0.576371431350708
1757954332777747200,44.090747314453125,0.9219405651092528,-1.2426881790161133,-0.5418995022773743
1757954332787703000,44.100703125,0.9845535755157472,-1.4048211574554443,-0.4961775243282318
1757954332797659100,44.1106591796875,1.055923342704773,-1.5129897594451904,-0.4470411539077759
1757954332807615000,44.12061499023437,1.1325156688690186,-1.5614917278289795,-0.4016358554363251
1757954332817571000,44.13057104492187,1.2105231285095217,-1.5492393970489502,-0.3611864149570465
1757954332827526100,44.14052612304688,1.2809394598007202,-1.480976104736328,-0.3318847417831421
1757954332837482200,44.150482177734375,1.330186128616333,-1.3599411249160769,-0.3128388822078705
1757954332847438000,44.16043798828125,1.3537508249282837,-1.2043533325195312,-0.3028978109359741
1757954332857394200,44.170394287109374,1.3451330661773682,-1.039689064025879,-0.2945645153522491
1757954332867350000,44.18035009765625,1.302314043045044,-0.8770449757575989,-0.2853249609470367
1757954332877306000,44.19030615234375,1.2302755117416382,-0.7324300408363342,-0.2747559249401092
1757954332887262200,44.20026220703125,1.1392587423324585,-0.6063599586486816,-0.2617599666118622
1757954332897218300,44.21021826171875,1.0372458696365356,-0.5026798844337463,-0.2452305257320404
1757954332907174100,44.22017407226563,0.9325889348983764,-0.4209240674972534,-0.2330183386802673
1757954332917129000,44.23012890625,0.8288220763206482,-0.3695221245288849,-0.2269452661275863
1757954332927085000,44.2400849609375,0.724763810634613,-0.3445813655853271,-0.2295149564743042
1757954332937041200,44.25004125976562,0.631285548210144,-0.3461113274097442,-0.2403518855571746
1757954332946997200,44.25999731445312,0.5477871894836426,-0.3813385665416717,-0.2625099122524261
1757954332956953000,44.269953125,0.4884591698646545,-0.4475628733634949,-0.2991582155227661
1757954332966909200,44.2799091796875,0.4462528526782989,-0.5414164066314697,-0.3409677147865295
1757954332976864500,44.289864501953126,0.4270666539669037,-0.6618652939796448,-0.3826009035110473
1757954332986820400,44.2998203125,0.4257600903511047,-0.8095263838768005,-0.4216444492340088
1757954332996776700,44.309776611328125,0.4406687319278717,-0.9864985346794128,-0.4534820020198822
1757954333006731500,44.3197314453125,0.4684028923511505,-1.177535891532898,-0.4801908433437347
1757954333016687400,44.329687255859376,0.5006263256072998,-1.3603026866912842,-0.4964813888072967
1757954333026643500,44.3396435546875,0.5349443554878235,-1.5393824577331543,-0.5100842714309692
1757954333036599300,44.349599365234376,0.5686983466148376,-1.6880455017089844,-0.5175270438194275
1757954333046555400,44.35955541992188,0.6003321409225464,-1.7814805507659912,-0.5038546323776245
1757954333056511500,44.369511474609375,0.5952761769294739,-1.8369686603546145,-0.4451644122600555
1757954333066467600,44.37946752929688,0.5237303376197815,-1.858829379081726,-0.3084699511528015
1757954333076423400,44.38942333984375,0.3882537186145782,-1.825070142745972,-0.1350536942481994
1757954333086379500,44.399379638671874,0.1959386169910431,-1.6481094360351562,0.011641476303339
1757954333096335400,44.40933544921875,-0.014447116293013,-1.3068435192108154,0.0888228118419647
1757954333106290700,44.41929077148438,-0.1955649703741073,-0.8648954033851624,0.0800508931279182
1757954333116246500,44.42924658203125,-0.3271360397338867,-0.406241238117218,0.0062195463106036
1757954333126202600,44.43920263671875,-0.407133936882019,0.0077077206224203,-0.0590686462819576
1757954333136158500,44.44915844726562,-0.4280349612236023,0.3450210392475128,-0.1080835908651351
1757954333146114600,44.45911450195312,-0.3892444372177124,0.6036230325698853,-0.1491998732089996
1757954333156070400,44.4690703125,-0.3249666392803192,0.8051971793174744,-0.1597672998905182
1757954333166026500,44.47902661132812,-0.3162583708763122,0.9375898241996764,-0.0847564339637756
1757954333175982600,44.48898266601562,-0.4182609021663666,1.012432336807251,0.0631981417536735
1757954333185938700,44.49893872070312,-0.6108609437942505,1.0805808305740356,0.1848936825990677
1757954333195894500,44.50889453125,-0.8146170377731323,1.179553508758545,0.2264786809682846
1757954333205849300,44.51884936523437,-0.975367307662964,1.3371590375900269,0.1972821801900863
1757954333215805400,44.52880541992187,-1.0745972394943235,1.5244038105010986,0.1387008875608444
1757954333225761500,44.53876147460937,-1.1296319961547852,1.6739578247070312,0.094339020550251
1757954333235717600,44.54871752929687,-1.1561371088027954,1.7265055179595947,0.0986671894788742
1757954333245673500,44.55867358398437,-1.1406153440475464,1.6592880487442017,0.1400116980075836
1757954333255629600,44.56862963867187,-1.067480444908142,1.5037338733673096,0.1859443038702011
1757954333265585400,44.57858544921875,-0.9405294060707092,1.3319156169891355,0.2162324339151382
1757954333275541500,44.58854150390625,-0.7994069457054138,1.209538817405701,0.2241348326206207
1757954333285497300,44.59849731445313,-0.682020902633667,1.1758934259414673,0.223063439130783
1757954333295452700,44.60845263671875,-0.6432969570159912,1.230812907218933,0.2349302172660827
1757954333305408500,44.61840844726562,-0.6875280737876892,1.346169352531433,0.2670165300369262
1757954333315364600,44.62836450195312,-0.7958385348320007,1.4853671789169312,0.3157790005207062
1757954333325320400,44.63832055664062,-0.9286764860153198,1.6268987655639648,0.3705639541149139
1757954333335276500,44.64827661132812,-1.044841766357422,1.7439340353012085,0.4138954579830169
1757954333345232400,44.658232421875,-1.120897889137268,1.8385518789291384,0.4444807767868042
1757954333355188700,44.66818872070313,-1.160141944885254,1.8815076351165767,0.4635271728038788
1757954333365144600,44.67814453125,-1.170756220817566,1.8653520345687864,0.4731715619564056
1757954333375100700,44.6881005859375,-1.1675809621810913,1.7965402603149414,0.4923676252365112
1757954333385056500,44.698056396484375,-1.1527903079986572,1.6813914775848389,0.5221058130264282
1757954333395012600,44.7080126953125,-1.136757493019104,1.544792413711548,0.5590885877609253
1757954333404967400,44.71796752929688,-1.1250563859939575,1.3972312211990356,0.596013605594635
1757954333414923500,44.72792358398438,-1.1214262247085571,1.262429118156433,0.6307656764984131
1757954333424879600,44.73787963867188,-1.1135598421096802,1.139196753501892,0.650643527507782
1757954333434835500,44.74783544921875,-1.0984655618667605,1.0301663875579834,0.6632128357887268
1757954333444791600,44.75779150390625,-1.0758830308914185,0.9281273484230042,0.6696348190307617
1757954333454747400,44.767747314453125,-1.0494697093963623,0.830851137638092,0.6751217246055603
1757954333464703500,44.77770336914063,-1.0192865133285522,0.7328683733940125,0.6796136498451233
1757954333474659300,44.78765942382813,-0.9846422672271729,0.6397581100463867,0.6831911206245422
1757954333484615700,44.79761572265625,-0.9454320073127748,0.5465016961097717,0.686805784702301
1757954333494570500,44.80757055664063,-0.9110285043716432,0.4640302360057831,0.6941140294075012
1757954333504526600,44.81752661132813,-0.8733325600624084,0.4056074321269989,0.6959084868431091
1757954333514482400,44.827482421875,-0.8376418948173523,0.3811750411987304,0.6877672076225281
1757954333524438500,44.8374384765625,-0.8043643832206726,0.3963428139686584,0.674776554107666
1757954333534394600,44.84739453125,-0.7733521461486816,0.4332624971866607,0.6468791365623474
1757954333544350500,44.8573505859375,-0.7428328394889832,0.5013054609298706,0.6070553064346313
1757954333554306600,44.867306640625,-0.7094240188598633,0.5869569778442383,0.5584542155265808
1757954333564262400,44.87726245117187,-0.6753901839256287,0.6808067560195923,0.5043236017227173
1757954333574218500,44.88721850585937,-0.6476954221725464,0.7637474536895752,0.4459218084812164
1757954333584174300,44.89717431640625,-0.625752329826355,0.8143365979194641,0.386028379201889
1757954333594129700,44.90712963867188,-0.6153015494346619,0.8157310485839844,0.3233149349689483
1757954333604085500,44.91708544921875,-0.5991886258125305,0.7643823623657227,0.2526173293590545
1757954333614041600,44.92704150390625,-0.5628809332847595,0.6634994149208069,0.1724026650190353
1757954333623997400,44.93699755859375,-0.4964867234230041,0.5231788158416748,0.0815326794981956
1757954333633953500,44.94695361328125,-0.4077251553535461,0.3482778072357178,-0.0189795494079589
1757954333643909400,44.95690942382812,-0.3102138042449951,0.1609497368335724,-0.1241230145096778
1757954333653865500,44.96686547851562,-0.2100483030080795,-0.0120590599253773,-0.2306632995605468
1757954333663821600,44.97682153320312,-0.1081235408782959,-0.1444932669401168,-0.3437288701534271
1757954333673777700,44.98677758789062,0.0169867072254419,-0.2252600193023681,-0.474569708108902
1757954333683733500,44.9967333984375,0.1723264902830124,-0.2863590717315674,-0.6082319021224976
1757954333693689600,45.00668969726563,0.3365561664104461,-0.3786788582801819,-0.7265806198120117
1757954333703644400,45.01664453125,0.4780690968036651,-0.5397140979766846,-0.8013816475868225
1757954333713600500,45.0266005859375,0.5875263810157776,-0.7576855421066284,-0.8205127120018005
1757954333723556600,45.036556640625,0.6834747195243835,-0.9843416213989258,-0.812477171421051
