time,seconds_elapsed,z,y,x
1759649794775034600,7.4685849609375,-0.0416779369115829,-0.2683289349079132,0.2608981728553772
1759649794784990700,7.478541015625001,-0.0360610634088516,-0.2654415369033813,0.2106419205665588
1759649794794946600,7.488496826171875,-0.0375574938952922,-0.2592374384403229,0.1633548438549041
1759649794804901600,7.498451904296876,-0.0378757417201995,-0.2463522553443908,0.1182502135634422
1759649794814857700,7.5084079589843755,-0.0461888015270233,-0.2374253422021865,0.0849929228425026
1759649794824812500,7.51836279296875,-0.0532733425498008,-0.2224165648221969,0.0621864087879657
1759649794834769000,7.528319091796876,-0.0618631020188331,-0.203623965382576,0.0536381937563419
1759649794844724700,7.538275146484375,-0.0693417936563491,-0.1798571199178695,0.0577988512814044
1759649794854679800,7.548229980468751,-0.0741738304495811,-0.1702018231153488,0.0636543408036232
1759649794864635600,7.55818603515625,-0.0816746205091476,-0.1751917898654937,0.0738787502050399
1759649794874591700,7.56814208984375,-0.0874454230070114,-0.1884500682353973,0.0803789943456649
1759649794884546800,7.5780971679687505,-0.0938721671700477,-0.2061718106269836,0.0852302089333534
1759649794894502700,7.588052978515625,-0.0947664529085159,-0.2281948179006576,0.0934585779905319
1759649794904457700,7.598008056640626,-0.0867442190647125,-0.2698357403278351,0.1078050285577774
1759649794914413600,7.6079638671875,-0.0691628232598304,-0.3023220300674438,0.1220753118395805
1759649794924370000,7.617920166015625,-0.0467672385275363,-0.3106148540973663,0.1252567172050476
1759649794934324700,7.627875,-0.0421186909079551,-0.3094630539417267,0.1166262179613113
1759649794944280600,7.637830810546875,-0.0453488379716873,-0.2693441212177276,0.0929440557956695
1759649794954236000,7.6477861328125005,-0.0614356622099876,-0.2058873772621154,0.0594846308231353
1759649794964191700,7.657741943359375,-0.0828141868114471,-0.140935018658638,0.0276364218443632
1759649794974147600,7.667697998046876,-0.0959795266389846,-0.0627531260251998,0.0118518657982349
1759649794984102400,7.677652587890625,-0.1049812734127044,0.0093391733244061,0.0315288975834846
1759649794994058500,7.68760888671875,-0.08484698086977,0.0483986921608448,0.0921509638428688
1759649795004014600,7.697564941406251,-0.0302311386913061,0.0427069850265979,0.1787122189998626
1759649795013969400,7.707519775390625,0.0289885085076093,0.0223766788840293,0.2689523696899414
1759649795023925500,7.717475830078126,0.0655012428760528,0.0212520249187946,0.3488746285438537
1759649795033880600,7.727430908203125,0.0770870596170425,0.0486064180731773,0.4178382456302643
1759649795043836400,7.737386718750001,0.0656258836388588,0.0912846401333808,0.4643940329551697
1759649795053792500,7.7473427734375,0.0496335998177528,0.132923424243927,0.4853355288505554
1759649795063747300,7.757297607421876,0.0595392249524593,0.1391581594944,0.4764789342880249
1759649795073703400,7.7672536621093755,0.0977595821022987,0.1487916111946106,0.4296797215938568
1759649795083658500,7.777208740234375,0.1658472865819931,0.1955697685480117,0.3446926772594452
1759649795093614600,7.787164794921876,0.2645552158355713,0.2935975193977356,0.2214303910732269
1759649795103570400,7.79712060546875,0.3804005980491638,0.4203506708145141,0.0610899850726127
1759649795113525500,7.807075683593751,0.4835565388202667,0.537075936794281,-0.114172376692295
1759649795123481600,7.8170319824218755,0.5440153479576111,0.6483449935913086,-0.2698479890823364
1759649795133437400,7.82698779296875,0.5496689677238464,0.7231758236885071,-0.3665944933891296
1759649795143392500,7.8369428710937505,0.4973985850811004,0.750159502029419,-0.394135057926178
1759649795153348400,7.846898681640625,0.3948133587837219,0.7751647233963013,-0.3662192821502685
1759649795163303400,7.856853759765626,0.2388373464345932,0.8749690651893616,-0.283437043428421
1759649795173259500,7.866809814453125,0.1063344255089759,1.0256978273391724,-0.1803761720657348
1759649795183215400,7.876765625,0.0132076805457472,1.075406789779663,-0.0885402485728263
1759649795193170400,7.886720703125,-0.0324887000024318,1.0137284994125366,-0.0159403514117002
1759649795203126500,7.8966767578125,-0.0329049527645111,0.919616401195526,0.0200224444270133
1759649795213081300,7.9066315917968755,0.0031909996178001,0.823232114315033,0.0143714826554059
1759649795223037400,7.916587646484375,0.0670525357127189,0.740079402923584,-0.0302905272692441
1759649795232993300,7.926543457031251,0.1556777507066726,0.6792312264442444,-0.0919272601604461
1759649795243570700,7.93712109375,0.2465802133083343,0.6243560314178467,-0.1595497131347656
1759649795253526500,7.947076904296876,0.3195918500423431,0.5764521360397339,-0.206404834985733
1759649795263481300,7.957031738281251,0.3576755821704864,0.5505020022392273,-0.2215512990951538
1759649795273437400,7.966987792968751,0.3592939972877502,0.5207366943359375,-0.2055497020483017
1759649795283393300,7.976943603515626,0.3360893428325653,0.4709161221981048,-0.1752615720033645
1759649795293348600,7.98689892578125,0.2963131666183471,0.4211775958538055,-0.1450602561235427
1759649795303304400,7.9968547363281255,0.2560826539993286,0.3699346482753753,-0.1285515874624252
1759649795313259300,8.0068095703125,0.221591517329216,0.3287837505340576,-0.1286879330873489
1759649795323215400,8.016765625,0.1995224356651306,0.3027406930923462,-0.14373080432415
1759649795333171500,8.0267216796875,0.1894487589597702,0.3063982725143432,-0.1680763512849807
1759649795343126500,8.036676757812499,0.1922333538532257,0.3098356127738952,-0.1923846304416656
1759649795353082400,8.046632568359374,0.2001512050628662,0.2986221015453338,-0.2124518156051635
1759649795363038500,8.0565888671875,0.2053166627883911,0.2760289311408996,-0.2273388803005218
1759649795372993500,8.0665439453125,0.2017624080181121,0.2671326398849487,-0.2458633035421371
1759649795382949400,8.076499755859375,0.1886537969112396,0.2568554878234863,-0.2629519999027252
1759649795392904400,8.086454833984375,0.1659024208784103,0.2336407154798507,-0.2774358689785003
1759649795402860300,8.09641064453125,0.1369035243988037,0.2078887522220611,-0.2911026775836944
1759649795412816600,8.106366943359374,0.1033777892589569,0.1839304268360138,-0.3047678768634796
1759649795422771500,8.11632177734375,0.0708070620894432,0.1767742335796356,-0.3206562995910644
1759649795432727600,8.12627783203125,0.044442031532526,0.1921268254518509,-0.3286236822605133
1759649795442682600,8.136232910156249,0.0370573550462722,0.2220849990844726,-0.3239589035511017
1759649795452638500,8.146188720703124,0.0365473590791225,0.2364338487386703,-0.3084031045436859
1759649795462594600,8.156144775390624,0.0437405556440353,0.2506085038185119,-0.2737425863742828
1759649795472549400,8.166099609375,0.0585924722254276,0.2710336446762085,-0.2254690676927566
1759649795482505500,8.176055664062499,0.0723857805132865,0.278355985879898,-0.1736729890108108
1759649795492460500,8.1860107421875,0.0865751057863235,0.2735894620418548,-0.1273257285356521
1759649795502416400,8.195966796875,0.0984560027718544,0.2600449025630951,-0.0869327709078788
1759649795512372500,8.2059228515625,0.1133531928062439,0.2403478920459747,-0.0592321641743183
1759649795522327300,8.215877685546875,0.1280386596918106,0.2204010784626007,-0.0505755580961704
1759649795532283600,8.225833984374999,0.1382060796022415,0.1871762871742248,-0.0573189482092857
1759649795542238500,8.235788818359374,0.1466155350208282,0.1509120166301727,-0.080446109175682
1759649795552194300,8.24574462890625,0.1435435861349105,0.1444738209247589,-0.1156978383660316
1759649795562150400,8.25570068359375,0.1347098797559738,0.1597888618707656,-0.1577169299125671
1759649795572105500,8.26565576171875,0.1174153089523315,0.1597483903169632,-0.1955351382493972
1759649795582061600,8.275611816406249,0.1049330756068229,0.1951718926429748,-0.2281743139028549
1759649795592016400,8.285566650390624,0.0802138820290565,0.2559177875518799,-0.2502950727939605
1759649795601972500,8.295522705078124,0.0473515354096889,0.3321095108985901,-0.2598174512386322
1759649795611927600,8.305477783203125,0.0148673625662922,0.4006515443325043,-0.2409087568521499
1759649795621883400,8.315433593749999,-0.0186027120798826,0.4354009926319122,-0.1783239394426345
1759649795631839500,8.325389892578125,-0.0439501479268074,0.4310179650783539,-0.0898800864815712
1759649795641794600,8.335344970703124,-0.0673231109976768,0.4057616293430328,0.0060024987906217
1759649795651750700,8.345301025390624,-0.0905240401625633,0.3768956065177917,0.1034238636493682
1759649795661706500,8.3552568359375,-0.1076391115784645,0.3637997806072235,0.195028081536293
1759649795671661300,8.365211669921875,-0.1138016656041145,0.3388134837150574,0.2749367654323578
1759649795681617400,8.375167724609375,-0.0984320342540741,0.2636412382125854,0.3241796791553497
1759649795691572500,8.385122802734374,-0.0709857568144798,0.1609862297773361,0.3437786698341369
1759649795701528600,8.395078857421874,-0.045420479029417,0.0606721341609954,0.3259964883327484
1759649795711484400,8.40503466796875,-0.0276998039335012,-0.0211684014648199,0.2591982781887054
1759649795721439500,8.414989746093749,-0.0249764565378427,-0.0596896968781948,0.1534305661916732
1759649795731395600,8.42494580078125,-0.0347715616226196,-0.0530195422470569,0.0284327063709497
1759649795741350400,8.434900634765624,-0.0483054816722869,-0.0241103954613208,-0.0916734635829925
1759649795751306500,8.444856689453124,-0.0634647235274314,0.0037686391733586,-0.1774408221244812
1759649795761262300,8.454812744140625,-0.0681713297963142,0.0162428859621286,-0.2132334411144256
1759649795771217700,8.464768066406249,-0.0559969544410705,0.0044647897593677,-0.2163868993520736
1759649795781173500,8.474723876953124,-0.0403865724802017,-0.0157027970999479,-0.1945721507072448
1759649795791128300,8.4846787109375,-0.021497568115592,-0.0233902782201766,-0.1559105068445205
1759649795801084400,8.494634765625,-0.0142415203154087,-0.0280244443565607,-0.1187559440732002
1759649795811040500,8.5045908203125,-0.0138705419376492,-0.0292468350380659,-0.0788604617118835
1759649795820995600,8.514545898437499,-0.0213500298559665,-0.0170697979629039,-0.0420675575733184
1759649795830951400,8.524501708984374,-0.0306657664477825,-0.0010681939311325,-0.0153970653191208
1759649795840906500,8.534456787109374,-0.0479925610125064,0.0225135646760463,0.0068179587833583
1759649795850862600,8.544412841796875,-0.0674719810485839,0.0350107140839099,0.0198581274598836
1759649795860818400,8.554368652343749,-0.0919235348701477,0.0277810301631689,0.0322372987866401
1759649795870773500,8.56432373046875,-0.1166342049837112,0.0043755737133324,0.0557404942810535
1759649795880729300,8.574279541015624,-0.1446357518434524,-0.0407106764614582,0.1029910966753959
1759649795890684400,8.584234619140625,-0.1659631431102752,-0.0819601118564605,0.1875840127468109
1759649795900640500,8.59419091796875,-0.1665386408567428,-0.1451566666364669,0.2831949591636657
1759649795910596400,8.604146728515625,-0.1403272897005081,-0.2617866098880768,0.3590021133422851
1759649795920551400,8.614101806640624,-0.0784724354743957,-0.3900862634181976,0.4147130250930786
1759649795930507500,8.624057861328124,-0.0055625443346798,-0.5013081431388855,0.4466480612754822
1759649795940462300,8.6340126953125,0.0318721793591976,-0.585928738117218,0.4443798363208771
1759649795950418400,8.643968749999999,0.0528347194194793,-0.5950532555580139,0.3964565396308899
1759649795960374300,8.653924560546875,0.0533524379134178,-0.5853918194770813,0.3179737031459808
1759649795970329600,8.6638798828125,0.0445496253669261,-0.5924963355064392,0.2337091565132141
1759649795980286000,8.673836181640624,0.038552451878786,-0.5953558087348938,0.155689999461174
1759649795990241000,8.683791259765625,0.0218666829168796,-0.6005668044090271,0.0931528434157371
1759649796000196900,8.693747070312499,-0.0094201331958174,-0.5956753492355347,0.0459938570857048
1759649796010153000,8.703703369140625,-0.0584872774779796,-0.5722848176956177,0.0169132035225629
1759649796020108000,8.713658203125,-0.1155811920762062,-0.5426984429359436,0.0053660031408071
1759649796030063900,8.7236142578125,-0.170912355184555,-0.5099630951881409,0.0137224700301885
1759649796040019000,8.7335693359375,-0.2222514450550079,-0.4853174388408661,0.0346964597702026
1759649796049975000,8.743525390624999,-0.2505560517311096,-0.4735491871833801,0.0658461228013038
1759649796059931100,8.753481445312499,-0.2639853060245514,-0.4727502465248108,0.0975585132837295
1759649796069886000,8.763436279296874,-0.2595495581626892,-0.4707390069961548,0.1239517703652381
1759649796079841800,8.77339208984375,-0.2575553655624389,-0.479202002286911,0.1324925273656845
1759649796089798000,8.78334814453125,-0.2528338432312011,-0.4843107461929321,0.1248244866728782
1759649796099753000,8.793303222656249,-0.2615272104740143,-0.483342707157135,0.1160160824656486
1759649796109709000,8.80325927734375,-0.2726355195045471,-0.456254631280899,0.1165830716490745
1759649796119663900,8.813214111328124,-0.2748350203037262,-0.4482193291187286,0.1277102977037429
1759649796129620000,8.823170166015624,-0.2625450789928436,-0.486224502325058,0.1430519670248031
1759649796139576000,8.83312646484375,-0.245073139667511,-0.5423080325126648,0.1591726094484329
1759649796149531000,8.843081054687499,-0.2268989235162735,-0.5981422662734985,0.1638477891683578
1759649796159487000,8.853037353515624,-0.2119199782609939,-0.6323545575141907,0.1489727050065994
1759649796169442000,8.862992431640624,-0.2015672028064727,-0.6580729484558105,0.1108522117137909
1759649796179398100,8.872948486328124,-0.1923337578773498,-0.67491614818573,0.0657379999756813
1759649796189354000,8.882904296875,-0.1861051619052887,-0.7060263752937317,0.0191425345838069
1759649796199308800,8.892859130859375,-0.176123633980751,-0.7095369696617126,-0.0259013716131448
1759649796209265000,8.902815185546874,-0.1757199019193649,-0.7060953378677368,-0.0548816248774528
1759649796219220000,8.912770263671874,-0.1835892647504806,-0.6887485980987549,-0.071733571588993
1759649796229176000,8.922726318359375,-0.1902160197496414,-0.673956573009491,-0.0747914165258407
1759649796239132000,8.932682128906249,-0.2011834383010864,-0.6438854932785034,-0.0706158429384231
1759649796249087000,8.94263720703125,-0.2059537023305893,-0.6014565229415894,-0.0664453357458114
1759649796259043000,8.95259326171875,-0.2157605141401291,-0.5669494271278381,-0.0639986917376518
1759649796268999000,8.96254931640625,-0.2259215414524078,-0.5336987972259521,-0.054038468748331
1759649796278954000,8.97250439453125,-0.2342324703931808,-0.503895103931427,-0.0358613282442092
1759649796288909800,8.982460205078125,-0.2399625331163406,-0.490892231464386,-0.018335597589612
1759649796298865200,8.99241552734375,-0.2418278008699417,-0.4766935706138611,-0.0051146009936928
1759649796308821000,9.002371337890626,-0.2469882220029831,-0.4568546414375305,0.0026644926983863
1759649796318777000,9.012327392578124,-0.2455522418022155,-0.4381411373615265,3.72842550859e-05
1759649796328732000,9.0222822265625,-0.2403777241706848,-0.4204441606998443,-0.0059846555814146
1759649796338688000,9.032238281249999,-0.2343869358301162,-0.3997343480587005,-0.0091359736397862
1759649796348643000,9.042193359375,-0.2224320024251938,-0.3627808690071106,0.0006737797521054
1759649796358599000,9.052149169921874,-0.2132507562637329,-0.3216805756092071,0.0226619020104408
1759649796368555000,9.062105224609374,-0.200613260269165,-0.2912430167198181,0.0512482747435569
1759649796378510000,9.072060302734373,-0.1824824661016464,-0.2758006751537323,0.0787600576877594
1759649796388466000,9.082016113281249,-0.1640840172767639,-0.2581021189689636,0.1049146950244903
1759649796398422000,9.091972412109374,-0.1391091495752334,-0.2366402298212051,0.1205024421215057
1759649796408376800,9.10192724609375,-0.1221038028597831,-0.2195858806371688,0.1255462020635604
1759649796418333000,9.11188330078125,-0.1067008823156356,-0.206498309969902,0.1285204291343689
1759649796428288000,9.121838378906249,-0.0980221703648567,-0.1938243359327316,0.1296954154968261
1759649796438243800,9.131794189453126,-0.0924772024154663,-0.1881637871265411,0.1299542635679245
1759649796448200000,9.141750244140626,-0.0761842504143714,-0.1941622793674469,0.1305809170007705
1759649796458155000,9.151705322265624,-0.0542885400354862,-0.2015901058912277,0.1196318566799163
1759649796468111000,9.161661376953125,-0.031664453446865,-0.2107582986354828,0.0999452397227287
1759649796478067000,9.171617187499999,-0.0090190609917044,-0.227079227566719,0.0793723165988922
1759649796488021800,9.181572021484374,0.0016974988393485,-0.2369286566972732,0.0529180765151977
1759649796497977900,9.191528076171874,0.0095122782513499,-0.2213126868009567,0.0248784516006708
1759649796507933000,9.201483154296875,0.0127552095800638,-0.1942033022642135,-0.0003209109127055
1759649796517889000,9.211439208984375,0.0142865274101495,-0.1639889329671859,-0.0159427467733621
1759649796527844900,9.221395263671873,0.0115719670429825,-0.1283401250839233,-0.0203580018132925
1759649796537800200,9.2313505859375,0.0113743608817458,-0.096036247909069,-0.0167547445744276
1759649796547756000,9.241306396484374,0.007407050114125,-0.0695465877652168,-0.0050181942060589
1759649796557710800,9.25126123046875,-0.0001848233805503,-0.0520320422947406,0.0148487212136387
1759649796567667000,9.261217285156249,-0.0134348487481474,-0.0395668521523475,0.0347398705780506
1759649796577622800,9.271173095703125,-0.0284446906298398,-0.0360533408820629,0.0473091937601566
1759649796587578000,9.28112841796875,-0.0439605340361595,-0.0367204621434211,0.0546978674829006
1759649796597534000,9.291084228515624,-0.0640540868043899,-0.0389471314847469,0.0582278855144977
1759649796607490000,9.301040283203125,-0.0794894993305206,-0.0316697806119918,0.0612260736525058
1759649796617445000,9.310995361328125,-0.0912691950798034,-0.0328801870346069,0.0686650797724723
1759649796627401000,9.320951171874999,-0.0941358208656311,-0.03105378895998,0.0725809931755065
1759649796637356000,9.33090625,-0.088348239660263,-0.0223090332001447,0.0735884681344032
1759649796647312000,9.340862060546874,-0.0768345966935157,-0.0120705114677548,0.0723146796226501
1759649796657268000,9.350818359375,-0.0607086196541786,0.003269829088822,0.0675428211688995
1759649796667223000,9.360773437499999,-0.0453017018735408,-0.0237269010394811,0.0653031095862388
1759649796677179000,9.370729248046873,-0.0253831204026937,-0.0760915726423263,0.0605903752148151
1759649796687135000,9.380685302734374,-0.0067487163469195,-0.1208129674196243,0.0464061126112937
1759649796697089800,9.39064013671875,0.0027483822777867,-0.1203176230192184,0.024040088057518
1759649796707046100,9.400596435546875,0.001913747517392,-0.0797984227538108,-0.0030594393610954
1759649796717001000,9.410551269531249,0.0071710939519107,-0.0167728550732135,-0.015670571476221
1759649796726957000,9.42050732421875,0.0144258104264736,0.0014887070283293,0.0056717339903116
1759649796736913000,9.430463134765626,0.0535958483815193,0.0209140703082084,0.0563048161566257
1759649796746868000,9.440418212890625,0.0981137827038765,0.0470761656761169,0.1107946932315826
1759649796756824000,9.450374267578125,0.1242130249738693,0.074661985039711,0.1602687686681747
1759649796766779000,9.460329101562499,0.1330797523260116,0.1026928201317787,0.1963870972394943
1759649796776735000,9.47028515625,0.1314360499382019,0.138377845287323,0.2221068292856216
1759649796786691000,9.480241455078126,0.1149577423930168,0.1321987807750702,0.2366197258234024
1759649796796646000,9.4901962890625,0.082290880382061,0.1018182411789894,0.2517435550689697
1759649796806602000,9.500152343749999,0.0456891916692256,0.0627267658710479,0.261209487915039
1759649796816557800,9.510108154296873,0.0091743236407637,0.0570861883461475,0.233564555644989
1759649796826513200,9.5200634765625,-0.0119376191869378,0.0924878567457199,0.164242997765541
1759649796836469000,9.530019287109374,-0.0054315170273184,0.173113465309143,0.0614569708704948
1759649796846423800,9.53997412109375,0.0135046234354376,0.261660635471344,-0.0627078562974929
1759649796856380000,9.549930175781249,0.0618556439876556,0.3623238503932953,-0.1984124183654785
1759649796866335700,9.559885986328126,0.1135380119085311,0.4806100130081177,-0.324158102273941
1759649796876291000,9.56984130859375,0.1509711444377899,0.6009899377822876,-0.4082359671592712
1759649796886247000,9.579797119140624,0.1692079305648803,0.6978435516357422,-0.4350039362907409
1759649796896203000,9.58975341796875,0.1534771770238876,0.781625509262085,-0.3997769653797149
1759649796906158000,9.599708251953125,0.1205796748399734,0.8497691750526428,-0.3193364441394806
1759649796916114000,9.609664306640626,0.0863977372646331,0.8977622389793396,-0.2332769334316253
1759649796926069000,9.619619384765624,0.0616228841245174,0.9276676774024964,-0.1689570695161819
1759649796936024800,9.6295751953125,0.0380800068378448,0.9540526866912842,-0.1432921737432479
1759649796945981000,9.63953125,0.0197665132582187,0.9667239785194396,-0.144706055521965
1759649796955936000,9.649486328124999,0.0112270880490541,0.950705885887146,-0.1564375460147857
1759649796965892000,9.6594423828125,0.0161701813340187,0.9153436422348022,-0.1782925128936767
1759649796975847700,9.66939794921875,0.0407551527023315,0.8640343546867371,-0.2132265269756317
1759649796985802800,9.67935302734375,0.0901266932487487,0.8354605436325073,-0.2613929808139801
1759649796995758800,9.689309082031249,0.1688694506883621,0.8089849948883057,-0.3261850476264953
1759649797005713700,9.699263916015626,0.2480697184801101,0.776170551776886,-0.3897853195667267
1759649797015669800,9.709219970703126,0.2975139617919922,0.7720929980278015,-0.4272591769695282
1759649797025625600,9.71917578125,0.3241293430328369,0.81390780210495,-0.4201085865497589
1759649797035581000,9.729131103515625,0.3375833630561828,0.855888307094574,-0.3736092746257782
1759649797045536800,9.739087158203125,0.3339239060878753,0.8831185698509216,-0.2892927825450897
1759649797055492900,9.749043212890626,0.3340094089508056,0.8952290415763855,-0.1901691406965255
1759649797065447700,9.758998046875,0.3237024247646332,0.874860405921936,-0.1090370044112205
1759649797075403800,9.7689541015625,0.315267413854599,0.8464487195014954,-0.0551548637449741
1759649797085358800,9.7789091796875,0.3079660832881927,0.8119682669639587,-0.0350288227200508
1759649797095314700,9.788864990234373,0.303570806980133,0.7701337337493896,-0.0483763217926025
1759649797105270800,9.798821044921873,0.3005499839782715,0.7310196161270142,-0.0840200707316398
1759649797115225900,9.808776123046874,0.3026453554630279,0.6995189189910889,-0.130374789237976
1759649797125181700,9.81873193359375,0.3082883358001709,0.6859480142593384,-0.1783742606639862
1759649797135137800,9.82868798828125,0.314676970243454,0.6690688729286194,-0.2173546850681305
1759649797145092600,9.838642822265626,0.3182016611099243,0.654600977897644,-0.2413329929113388
1759649797155049000,9.848599365234373,0.3203745484352112,0.6413110494613647,-0.2466156333684921
1759649797165003800,9.858553955078124,0.3113376498222351,0.6430804133415222,-0.2428952008485794
1759649797174959600,9.868510009765625,0.2887598872184753,0.6521223783493042,-0.2252578884363174
1759649797184915700,9.878466064453125,0.2685542404651642,0.6724127531051636,-0.204295352101326
1759649797194870800,9.888421142578126,0.2461370676755905,0.6914322376251221,-0.1859405785799026
1759649797204827000,9.898377197265626,0.221890851855278,0.7052742838859558,-0.1694161891937255
1759649797214782700,9.9083330078125,0.1970398277044296,0.7069576978683472,-0.1500486135482788
1759649797224737500,9.918287841796875,0.1720873415470123,0.7122291326522827,-0.1230297833681106
1759649797234694000,9.928244140624999,0.149317055940628,0.7259673476219177,-0.0928377956151962
1759649797244649700,9.938199951171873,0.1282474547624588,0.7224556803703308,-0.0632072016596794
1759649797254604800,9.948155029296874,0.117254190146923,0.712499737739563,-0.0276108551770448
1759649797264560600,9.95811083984375,0.1149100735783577,0.6926873922348022,0.0018796591321006
1759649797274516000,9.968066162109375,0.10882368683815,0.6631787419319153,0.0275858212262392
1759649797284471800,9.978022216796873,0.1138290986418724,0.6302032470703125,0.0537204854190349
1759649797294428000,9.987978271484373,0.1299382895231247,0.5747458338737488,0.0778860077261924
1759649797304382700,9.99793310546875,0.1627313941717147,0.4860617816448211,0.0963262692093849
1759649797314338600,10.007888916015624,0.1905164122581482,0.3704627454280853,0.1107214540243148
1759649797324295000,10.01784521484375,0.2080887556076049,0.2660423219203949,0.1201786026358604
1759649797334249700,10.027800048828125,0.1990209519863128,0.1811764389276504,0.0969031080603599
1759649797344205800,10.037756103515626,0.1625271290540695,0.1259882897138595,0.0447064861655235
1759649797354161000,10.047711181640624,0.1043932512402534,0.1040811315178871,-0.0208368394523859
1759649797364116700,10.0576669921875,0.0261120274662971,0.1232359111309051,-0.0808975100517273
1759649797374072800,10.067623046875,-0.0559652633965015,0.1475934535264969,-0.1217381507158279
1759649797384027600,10.077577880859373,-0.1440937966108322,0.1535291075706482,-0.1396428495645523
1759649797393983700,10.087533935546874,-0.2201811075210571,0.0961169451475143,-0.1271222680807113
1759649797403939800,10.097490234375,-0.2857188284397125,0.0030831415206193,-0.0782127827405929
1759649797413894700,10.107445068359375,-0.3078078925609588,-0.1263512820005417,-0.0209782514721155
1759649797423850800,10.117401123046875,-0.3020464181900024,-0.2483181953430175,0.0120529346168041
1759649797433805800,10.127356201171873,-0.2708863615989685,-0.3594141006469726,0.0048394962213933
1759649797443762000,10.137312255859374,-0.2551188468933105,-0.4717339873313904,-0.0015430354978889
1759649797453717800,10.14726806640625,-0.250042587518692,-0.4865613877773285,-0.0066176890395581
1759649797463672800,10.15722314453125,-0.2297429144382476,-0.4508832991123199,0.0085247782990336
1759649797473628700,10.167178955078125,-0.191027745604515,-0.3694536685943603,0.0442066080868244
1759649797483584800,10.177135009765626,-0.1255853623151779,-0.3148844540119171,0.104373812675476
1759649797493539800,10.187090087890626,-0.0262672901153564,-0.3142066597938537,0.1683719605207443
1759649797503495700,10.1970458984375,0.0867764428257942,-0.3413439989089966,0.2387529164552688
1759649797513451800,10.207001953125,0.1526641100645065,-0.4036137759685516,0.3081660866737366
1759649797523406800,10.216957031249999,0.1767603904008865,-0.5117051005363464,0.3755142390727997
1759649797533363000,10.226913330078126,0.1776972860097885,-0.675972044467926,0.4278333783149719
1759649797543317800,10.2368681640625,0.1695549488067627,-0.8467051982879639,0.4462709724903106
1759649797553273600,10.246823974609374,0.1563451290130615,-0.93764466047287,0.430895984172821
1759649797563229700,10.256780029296875,0.1214169785380363,-0.9637676477432252,0.3865330517292022
1759649797573184800,10.266735107421873,0.0769461765885353,-0.9617308378219604,0.3108902275562286
1759649797583140900,10.276691162109373,0.0365897007286548,-0.9113571643829346,0.22539584338665
1759649797593096700,10.28664697265625,0.0053891725838184,-0.8288968801498413,0.1517711579799652
1759649797603051800,10.29660205078125,-0.0183992478996515,-0.7521962523460388,0.100182257592678
1759649797613008000,10.30655810546875,-0.0564571507275104,-0.720580518245697,0.0922122150659561
1759649797622962700,10.316512939453126,-0.1143822371959686,-0.7380138635635376,0.1319540441036224
1759649797632918800,10.326468994140626,-0.1818949729204177,-0.7198489904403687,0.1918615847826004
1759649797642874600,10.3364248046875,-0.2298425137996673,-0.6768075227737427,0.2550874352455139
1759649797652829700,10.3463798828125,-0.2637836933135986,-0.6527959108352661,0.328938752412796
1759649797662785800,10.356336181640625,-0.2877854406833648,-0.6735253930091858,0.4044817090034485
1759649797672741600,10.366291992187499,-0.2921775281429291,-0.7217872142791748,0.4632448852062225
1759649797682696700,10.3762470703125,-0.2889859974384308,-0.7909852266311646,0.4920754730701446
1759649797692652800,10.386203125,-0.2914936244487762,-0.844985842704773,0.4767511188983917
1759649797702609000,10.3961591796875,-0.3050049245357513,-0.8510991334915161,0.4361895620822906
1759649797712563700,10.406114013671873,-0.3216866850852966,-0.8271762132644653,0.3750886619091034
1759649797722519800,10.416070068359373,-0.3390909731388092,-0.8004785776138306,0.3066169321537018
1759649797732475000,10.426025146484374,-0.3566694259643554,-0.7718573212623596,0.2494013011455536
1759649797742430700,10.43598095703125,-0.3619598150253296,-0.7334188222885132,0.2133964300155639
1759649797752386800,10.44593701171875,-0.3545612692832947,-0.6912290453910828,0.203041523694992
1759649797762341600,10.455891845703125,-0.3289797604084015,-0.6769257187843323,0.2026228755712509
