time,seconds_elapsed,z,y,x
1758278204217779200,204.297779296875,-2.308458290288597,-3.0490824497044087,-5.701966025707125
1758278204227863000,204.30786303710937,-2.531288994422555,-2.4567963557571173,-5.801662079212069
1758278204237947000,204.31794677734376,-2.676374926227331,-1.738720566627383,-5.751560369959473
1758278204248032000,204.32803198242183,-2.769952789112925,-0.8829249905467033,-5.560539785453677
1758278204258116000,204.3381162109375,-2.79450680013299,0.1136252101361751,-5.257967289954424
1758278204268200200,204.3482001953125,-2.815495227625966,1.2137579503685236,-4.8548663817793125
1758278204278285000,204.35828515625,-2.900837761607766,2.3938316578000784,-4.329633131885529
1758278204288369000,204.3683688964844,-3.12539587405622,3.678617201071977,-3.6746032892555
1758278204298453000,204.37845288085936,-3.480610995462537,4.952213826331496,-2.813400885695219
1758278204308537900,204.38853784179688,-3.7389369374781847,5.996546937930583,-1.7671359292507172
1758278204318622200,204.39862231445312,-3.580868774503469,6.602668080484866,-0.7468629076749086
1758278204328706000,204.4087060546875,-2.912048306930065,6.625625177702307,0.016678747600317
1758278204338791200,204.4187912597656,-1.7307416967026887,6.428622011655569,0.4577168799817562
1758278204348875000,204.428875,-0.5678846431404352,6.637398617604375,0.740416800275445
1758278204358958800,204.4389587402344,0.2621422854334115,7.269526308074593,0.9197124601960182
1758278204369044000,204.4490439453125,0.9717748019970952,7.920282711169123,1.0808838498830795
1758278204379128000,204.45912817382813,1.4988719460666178,8.343729657280445,1.495849967896938
1758278204389212200,204.46921215820316,2.0056810659974813,8.49943109112382,2.0990578533530235
1758278204399297000,204.47929711914065,2.263994148531556,8.5912811073035,2.746130014976859
1758278204409381000,204.48938110351563,2.500571784597635,8.083129340592027,3.273659851375222
1758278204419465000,204.49946484375,2.744963893806934,6.473894985577464,3.352513607859611
1758278204429550000,204.5095500488281,3.1211388011336325,4.593306864669919,3.134380852283537
1758278204439634200,204.51963427734376,3.81145681476593,3.2321488603353496,2.732881534086168
1758278204449718000,204.5297180175781,3.931437531408667,2.657532863113284,2.140577904482185
1758278204459803100,204.53980322265625,3.523893087828159,2.460812021139264,1.516592896196246
1758278204469887000,204.54988696289064,3.0051725808292624,2.715927768936753,1.4699088864326475
1758278204479972000,204.55997216796877,1.9824831457614895,3.039498628801107,1.6951137723520395
1758278204490056000,204.57005590820316,0.9127468589670956,3.101284930628538,1.8073115800336
1758278204500140000,204.58014013671877,0.1375740948699414,2.6749136215031144,2.006148975770176
1758278204510225200,204.59022509765623,-0.3060843030124902,1.9174509938806292,2.358155948784947
1758278204520309000,204.6003090820313,-0.4486791486538946,1.1904659221082925,2.641867676469684
1758278204530393000,204.61039306640623,-0.4667921668410301,0.440124524667859,2.6911870031729337
1758278204540478000,204.62047802734372,-0.4383719819121062,-0.2989046206414699,2.292655448739976
1758278204550562000,204.63056201171875,-0.5010223532229662,-1.055511508217454,1.4443855919890105
1758278204560646100,204.6406462402344,-0.6427798712573946,-1.6545178503304718,0.3699664811406284
1758278204570731300,204.65073120117188,-0.8166882851816714,-1.904713677382469,-0.8009151081189513
1758278204580815000,204.66081518554688,-1.2766221105605362,-1.946983962357044,-1.9402976164609196
1758278204590899000,204.67089892578124,-1.860811407291889,-2.06107386739552,-2.9260756632387634
1758278204600984000,204.68098413085937,-2.3277309999048708,-2.2198931409984826,-3.499182424941659
1758278204611068000,204.6910678710937,-2.601062203350663,-2.3521786279410124,-3.945290407933295
1758278204621152300,204.70115234375,-2.8397540550917384,-2.469741762048006,-4.058611958947777
1758278204631237000,204.7112370605469,-3.062412471398711,-2.509652916675806,-3.773393041570485
1758278204641321000,204.72132104492184,-3.3039246412575243,-2.428907647356391,-3.215048380191624
1758278204651405000,204.73140502929687,-3.616856618207693,-2.345498711785674,-2.6500623811021446
1758278204661490000,204.7414899902344,-4.128644111073017,-2.2153911534041164,-1.757426728402078
1758278204671574000,204.75157397460936,-4.853163084992766,-1.927131260895729,-0.576057428202033
1758278204681658000,204.761658203125,-5.362085251554847,-1.3890280080348252,0.5022529179312288
1758278204691743200,204.7717431640625,-5.957917055284977,-0.7511620661735534,1.4968803338579832
1758278204701827000,204.7818271484375,-6.582422580313682,-0.0138479080885648,2.5311773507416246
1758278204711911000,204.79191088867188,-7.076654542744159,0.7170709960013627,3.4572049854338167
1758278204721996000,204.80199609375,-7.431842776143551,1.3498662104696035,4.952507840842008
1758278204732079900,204.8120798339844,-7.534827349799871,1.6286691233247517,6.455969452786445
1758278204742164200,204.82216430664064,-7.342655257171392,1.344514328047633,7.685050059971213
1758278204752249000,204.8322490234375,-6.707078887552022,0.5751040729999541,8.554132403126358
1758278204762333200,204.84233325195316,-5.478963910529017,-0.3193085262447595,9.46126770582199
1758278204772417000,204.8524169921875,-3.8082518812447774,-1.0575041433393957,9.9834503359735
1758278204782502100,204.86250219726563,-1.9093080194354053,-1.721577708646655,9.879325944632292
1758278204792586000,204.8725859375,-0.2666296599805355,-2.4212580093860625,9.319836789393424
1758278204802670000,204.88267016601563,0.7213391748398542,-3.051403586128354,8.002170720782875
1758278204812755200,204.89275512695312,1.122936692714691,-3.4013463200896976,6.606282179328799
1758278204822839000,204.9028391113281,1.1083370894759892,-3.4947236919671294,5.657699013957381
1758278204832924200,204.91292407226564,0.6479921990782022,-3.43239436930418,4.778645311886072
1758278204843008000,204.9230080566406,-0.0051321021914482,-3.092799426355958,3.807029645973444
1758278204853091800,204.933091796875,-0.4934720839738845,-2.534186469429731,3.02430369001776
1758278204863177000,204.94317700195316,-0.7202741759568453,-1.8051117319017649,2.384674830137193
1758278204873261000,204.95326098632813,-0.9192898508697748,-0.905803761830926,1.7048197583302855
1758278204883345200,204.9633452148437,-1.0960685595333577,0.1919119803875684,0.9439182423003016
1758278204893430000,204.97342993164065,-1.222668402054906,1.426446176803112,0.2433481348480097
1758278204903514000,204.98351416015623,-1.2207704594790936,2.6786440402030944,-0.1859967101954855
1758278204913598000,204.99359790039065,-0.9990098687946796,3.5897213585227727,-0.4775153670378029
1758278204923683000,205.00368310546875,-0.5858943470835686,3.822314893388748,-0.8643276959739625
1758278204933767200,205.01376708984372,-0.0382522815048694,3.298707198870182,-1.2622412646390495
1758278204943851000,205.02385107421875,0.5307505520105361,2.239378178191185,-1.4539751119807365
1758278204953936100,205.03393603515624,0.9083283118724822,1.100299328970909,-1.4993451165363192
1758278204964020000,205.04402001953125,1.0912865859538317,0.2161760685503482,-1.4327286180734633
1758278204974104000,205.05410400390625,1.19069447016716,-0.224524210178852,-1.1005007698271425
1758278204984189000,205.0641889648437,1.426159176555276,-0.2180757646918296,-0.5622527016680687
1758278204994273000,205.07427294921877,1.7022908243745565,0.0907733268588781,0.2306998300738632
1758278205004357000,205.0843571777344,1.914109866759181,0.5521639269173145,1.038589891771972
1758278205014442000,205.0944418945313,2.0442282387956974,1.2073469142824411,1.7692746948450804
1758278205024524000,205.10452392578125,2.007628692933917,1.980306970766187,2.2125305032759903
1758278205034609200,205.11460913085935,1.7378244945704937,2.757366279262304,2.3799413718745117
1758278205044693000,205.1246928710937,1.4573431271091102,3.452899981716275,2.7100901488244533
1758278205054777000,205.13477709960935,1.169159953098744,3.821190857794881,2.987354015544057
1758278205064862000,205.14486206054687,0.8324947799921035,3.7535324490636586,3.30897754073292
1758278205074946000,205.15494604492187,0.5147703080683946,3.201306562826037,3.6686966955602167
1758278205085030100,205.16503002929687,0.2589800220102071,2.197085681384802,3.74398983695358
1758278205095115000,205.1751149902344,0.2085994958162307,1.0931441965192557,3.6280624873548746
1758278205105199000,205.18519921875,0.3339841173291206,0.0019686697244644,3.440079663109779
1758278205115283000,205.1952829589844,0.4296661859523504,-0.8070072875142097,3.2332351942673325
1758278205125368000,205.2053681640625,0.2652805834591388,-1.4066408216148614,3.0127877320081
1758278205135452200,205.2154521484375,-0.0568593531195307,-1.9835534053415056,2.7564021104052663
1758278205145536000,205.22553588867189,-0.3097323041260242,-2.452721653664112,2.554998371312022
1758278205155620900,205.23562084960935,-0.5884732576608658,-2.784002941775322,2.4045060504190623
1758278205165705000,205.245705078125,-0.8291103982508182,-3.0238842955619094,2.120383257715404
1758278205175788800,205.25578881835935,-1.1569815856575965,-3.2031431306034324,1.6579796812221408
1758278205185874000,205.2658740234375,-1.310742406827211,-3.278396816769242,1.2173255797222255
1758278205195958000,205.2759580078125,-1.4622072260141372,-3.271744373142719,0.7700593666061758
1758278205206043000,205.28604296875,-1.72815182633996,-3.1951439485430715,0.2540501643925905
1758278205216127000,205.296126953125,-2.0215537579119203,-2.985533229857683,-0.2909741199031472
1758278205226210800,205.3062109375,-2.386830839127302,-2.628621241405606,-0.970189140240848
1758278205236296000,205.3162958984375,-2.8634529105871915,-2.080164352312684,-1.7138818934470414
1758278205246379800,205.3263798828125,-3.2724019602686165,-1.15770230114758,-2.398807400386035
1758278205256464100,205.33646411132813,-3.6067011348962783,0.0635118104457855,-2.9252383356317875
1758278205266549000,205.3465490722656,-3.9952877800285815,1.3662170412898065,-3.0834196035921573
1758278205276633000,205.35663305664065,-4.361891725933552,2.6009739405453205,-2.826504697418213
1758278205286717000,205.3667170410156,-4.633666932108998,3.5864410216778517,-2.6249633034199475
1758278205296802000,205.37680200195317,-4.694335043561458,4.197481500455737,-2.5930197666704653
1758278205306886000,205.3868859863281,-4.565587667617201,4.456864258047938,-2.74678058784008
1758278205316970000,205.3969699707031,-4.033719509753585,4.317793641009927,-3.016792875996232
1758278205327055000,205.40705517578124,-2.9739526821792124,3.8994676911741495,-3.472677279853821
1758278205337139000,205.41713891601563,-1.8561194500833749,3.319010566708445,-3.8421500591933726
1758278205347223000,205.42722314453124,-1.1001403390169142,2.615040459820628,-3.994486400517821
1758278205357308000,205.4373078613281,-0.6054080258488654,2.0012492210298776,-4.025276675578952
1758278205367391700,205.44739184570312,-0.2770868296522647,1.650226290616393,-3.9310529160052536
1758278205377476000,205.4574760742188,-0.1409814921606332,1.573757383441925,-3.7537469685971736
1758278205387561000,205.46756103515625,-0.1210422814596444,1.7497937493056055,-3.5097014808684586
1758278205397645000,205.47764501953125,-0.0722849725533276,2.085983852246404,-3.2517361888587475
1758278205407729000,205.48772900390625,0.0494458756923675,2.5137808102607724,-3.1766987757921217
1758278205417814000,205.49781396484371,0.1787402179948985,3.105079062214493,-3.334077202937007
1758278205427897900,205.50789794921877,0.1937806238036602,3.784858730697632,-3.505523318400978
1758278205437982000,205.51798193359372,0.1002004958957433,4.367263482099771,-3.3383032961994408
1758278205448067000,205.52806713867187,-0.0326847105056047,4.676870114019513,-2.896682980015873
1758278205458151000,205.53815087890624,0.0466688121944665,4.710024780124425,-2.3637433935284613
1758278205468235000,205.54823510742187,0.2535913147091865,4.572242449331283,-1.9859774176180365
1758278205478319900,205.5583198242188,0.7151613629877567,4.453823575177789,-1.736741960030794
1758278205488404000,205.5684040527344,1.5182447550565004,4.499368936300278,-1.4803823496520518
1758278205498488000,205.57848803710937,2.3679051893830296,4.591006771034002,-1.145031620144844
1758278205508573000,205.58857299804689,2.575187172859907,4.466173353663087,-0.7844225307404995
1758278205518657000,205.5986569824219,2.213260571116209,4.355919081264734,-0.5412386282771825
1758278205528742000,205.60874194335935,1.7944962298631668,4.73330920960009,-0.4465677094578743
1758278205538826000,205.6188259277344,1.3716332211196425,5.575574857500195,-0.437707526654005
1758278205548909800,205.62890991210935,0.8406277444999665,6.449005458992719,-0.6356003350168467
1758278205558995000,205.63899487304687,0.4462824627757072,6.498092438244819,-0.8489709907576442
1758278205569079000,205.6490791015625,0.194637605959177,6.095860714119673,-0.6745774236649275
1758278205579163000,205.65916284179687,-0.2644271449675783,5.988111118018627,-0.1121881630703806
1758278205589248000,205.669248046875,-0.8159843746960163,5.834811484619975,0.5568085378527641
1758278205599331800,205.67933178710936,-1.1270201626360417,4.948093531531096,1.0650684411138296
1758278205609416000,205.689416015625,-1.1146294676184654,3.3199650909543035,1.2266545490816234
1758278205619500800,205.69950073242188,-1.0701251399815082,1.5675006611347198,1.1931254967063665
1758278205629585200,205.70958520507813,-1.2345078929305076,-0.0120376437962055,1.152058742302656
1758278205639669000,205.7196689453125,-1.5445640221834185,-1.406488845923543,1.16077980889678
1758278205649754000,205.72975415039065,-1.7778490464448928,-2.6474925306141377,1.3112754907906057
1758278205659838000,205.739837890625,-2.016824975824356,-3.7530414506763217,1.4572723999604582
1758278205669921800,205.749921875,-2.177361574739217,-4.747244795972109,1.4985131957568227
1758278205680007000,205.7600068359375,-2.372780101943016,-5.7146881446361535,1.377994134453684
1758278205690091000,205.7700910644531,-2.3837960014760493,-6.514024166870117,1.1188805491916836
1758278205700175000,205.7801750488281,-2.0888333964586256,-7.043235672745108,0.6757445677481592
1758278205710260000,205.79026000976563,-1.6178981384634972,-7.197202245619892,0.1734966182529926
1758278205720343800,205.80034375,-1.37247610168457,-7.091158284392953,-0.4435214736297726
1758278205730428000,205.81042797851563,-1.138681374335289,-6.7638681117445225,-0.9444337906070052
1758278205740512800,205.8205126953125,-1.1761170787602662,-6.147607852491736,-1.3415809049442409
1758278205750597000,205.8305971679688,-1.2746394123107194,-5.243364764106273,-1.5894292920872568
1758278205760681000,205.84068090820315,-1.195631342047453,-4.083582734075188,-1.677138847461343
1758278205770766000,205.85076611328125,-1.0825047290831804,-2.9818022266358137,-1.6658654660359025
1758278205780850000,205.8608498535156,-1.081235805125907,-2.0470710610061884,-1.42588123639673
1758278205790935000,205.87093505859372,-1.1376667904652655,-1.2995254317641258,-0.8985775369044393
1758278205801019000,205.8810187988281,-1.4101556978680192,-0.6921312005341053,-0.1975951771231368
1758278205811103000,205.89110302734372,-1.7375247809715568,-0.1512047069460153,0.7016431252449751
1758278205821188000,205.90118798828124,-2.0984683630272745,0.4012590797007083,1.5332731051012871
1758278205831272000,205.91127197265624,-2.4272192558780312,1.061384199643135,2.3061159649461507
1758278205841356000,205.92135595703124,-2.6112390217110515,1.8136241241812705,3.7621407029330727
1758278205851441000,205.9314409179688,-2.539768945737183,2.5183359893471,5.285070985457301
1758278205861524700,205.94152465820312,-2.387176583825052,3.0304806250870224,6.496943268209695
1758278205871609000,205.95160913085937,-1.9761904753580688,3.38453780862987,8.075676686498522
1758278205881694000,205.96169384765625,-1.1641147985383868,3.185556620508432,9.491982577559352
1758278205891778000,205.9717780761719,-0.0208598326772451,2.316802194133401,9.889422975754735
1758278205901862000,205.98186181640625,0.9832003052443266,1.0420581524044277,8.714263928371667
1758278205911947000,205.9919470214844,1.347882927697897,-0.0775181239664554,6.284982771527766
1758278205922030800,206.00203076171877,1.2332605232179163,-0.4277069416433572,4.714512739193439
1758278205932116000,206.01211596679687,0.7109113043278456,-0.2533990070074796,3.436818615487218
1758278205942200000,206.02219995117187,0.0492208347648382,0.2558551679879426,2.242867189350724
1758278205952284000,206.03228393554687,-0.5555757811874151,0.9872902049064636,1.2303428822055458
1758278205962369000,206.042369140625,-1.009522202719748,1.7679057445794344,0.3829529500942677
1758278205972452900,206.05245288085936,-1.3934303346469998,2.408870236977935,-0.3808823543652891
1758278205982537000,206.0625368652344,-1.7714023545235391,2.714471140387654,-0.9301501945149152
1758278205992621800,206.07262182617188,-2.131112741522491,2.713309110870957,-1.4524007022708654
1758278206002706000,206.08270581054688,-2.239797572647035,2.4788386762171983,-2.104121858744324
1758278206012790000,206.0927900390625,-2.1458336330533028,2.0908646100252866,-2.684578983210027
1758278206022875000,206.102875,-2.030220756231248,1.6861843237042426,-2.80468011136204
1758278206032959000,206.112958984375,-1.8648980920836329,1.4002958365023137,-2.177584862101078
1758278206043042800,206.12304272460935,-1.7654823168247935,1.1229074666202068,-1.2935210767827927
1758278206053128000,206.1331279296875,-1.6206404229089617,0.746522715935111,-0.3639807577945291
1758278206063212000,206.1432119140625,-1.3316226977705954,0.4269979165911674,0.6710681003697216
1758278206073297000,206.153296875,-0.9345157693132756,0.1653898841649294,1.6951986741565166
1758278206083381000,206.16338110351563,-0.5066930923357605,-0.0604728811413049,2.6235762329757213
1758278206093464800,206.17346484375,-0.0267643805459141,-0.155254274597764,3.4312329243093727
1758278206103550000,206.18355004882807,0.5372852144762873,-0.0932236426204442,3.987303211015463
1758278206113633800,206.1936337890625,1.111312305894494,0.0465571685135364,4.255798957128823
1758278206123718100,206.2037182617188,1.520446356754005,0.1710521477103233,4.201011428147554
1758278206133803300,206.21380322265625,1.7377075901925565,0.234248316335678,3.8583103358775377
1758278206143887600,206.2238876953125,1.70215404625237,0.3294914820849895,3.4759596625253555
1758278206153971500,206.2339714355469,1.372438984544575,0.5238303973585366,3.149925627417862
1758278206164056600,206.244056640625,0.8372796761810779,0.8857207587450742,2.923940989297628
1758278206174140400,206.25414038085935,0.2276274368911981,1.1318600038826463,2.7584286477968094
1758278206184224300,206.2642243652344,-0.1527570509545505,1.1855401561439036,2.685211728155613
1758278206194309400,206.27430932617187,-0.5098595935426652,1.013557449585199,2.767689228095114
1758278206204393500,206.2843935546875,-0.9269061710923908,0.6156079328238964,2.9803622569605706
1758278206214478600,206.294478515625,-1.1841472404807805,-0.0298170461148023,3.1858208244025708
1758278206224562400,206.3045625,-1.1536246764451266,-0.7925409552663564,3.259368291172385
1758278206234646500,206.314646484375,-0.9125982442766428,-1.4732102660655977,3.144987294232845
1758278206244731400,206.3247314453125,-0.5834603979349136,-2.0495587861686944,2.8869147424563764
1758278206254815500,206.3348154296875,-0.2709831972812302,-2.552361593067646,2.524562024255097
1758278206264899600,206.34489965820316,0.0292623165751807,-2.9757781440407034,1.974673933315277
1758278206274984400,206.354984375,0.0682838654194958,-3.3040982442587614,1.3920470635950564
1758278206285068500,206.3650686035156,-0.2348036303971894,-3.51589156768024,1.0941467976905406
1758278206295153400,206.3751533203125,-0.7054653138816356,-3.7290462425827977,0.7512611426338553
1758278206305237500,206.3852375488281,-1.1921207035779953,-3.893511997640133,0.3027959289915859
1758278206315321300,206.3953212890625,-2.000043352371454,-3.9947552805870767,-0.1911328127086162
1758278206325406500,206.40540649414064,-2.7258155412226914,-3.9502690731287,-0.7734133532091975
1758278206335490600,206.41549047851564,-3.177209063401818,-3.541505316886305,-1.212534692183882
1758278206345574400,206.42557446289064,-3.656079206049442,-2.804320338138938,-1.4746259780824185
1758278206355659500,206.43565942382813,-4.085007798442244,-1.797501841419935,-1.738075546722114
1758278206365743400,206.44574340820316,-4.465426919209957,-0.4064782756537198,-1.861499097295105
1758278206375828500,206.45582836914065,-5.241013232544065,1.171494095134735,-1.8202201614454387
1758278206385912300,206.4659123535156,-6.240208979299664,2.735252647131681,-1.7483283529281617
1758278206395996700,206.47599658203129,-6.933730757409334,4.302106827056408,-1.7678604441329837
1758278206406081500,206.48608154296875,-7.182877952191233,5.3920963589370245,-2.1242712050646544
1758278206416165600,206.49616552734372,-7.225236499971151,5.655513486611842,-2.7829455416768787
1758278206426249500,206.50624951171875,-6.867986073344945,5.035359142529964,-3.423659858706593
1758278206436334300,206.51633422851563,-5.7008256235003465,4.06384810603559,-3.5227179065689445
1758278206446418400,206.52641845703124,-4.06815603236258,3.385102456775308,-3.3483395370453595
1758278206456503300,206.5365034179688,-2.6991134122580287,2.8839573539555072,-3.297564458575845
1758278206466587600,206.5465876464844,-1.771900951695442,2.1740029119610784,-3.231857183912396
1758278206476671500,206.5566713867188,-1.2819753081567584,1.3897458009153605,-3.1407769830614325
1758278206486756600,206.5667565917969,-1.0504624081343412,0.7560562679558992,-3.020146278077364
1758278206496840400,206.57684033203125,-0.7619166844218969,0.4342261142790317,-2.9651667336553333
1758278206506924300,206.58692431640625,-0.4009406614013016,0.6272977860957384,-2.856906265422701
1758278206517009400,206.5970095214844,0.0590641833871602,1.3673434149712322,-2.5287995156943794
1758278206527093500,206.60709350585935,0.3414659244518727,2.454665773469209,-2.151479529985785
1758278206537178600,206.6171787109375,0.3095780634123832,3.3779444017142057,-1.669309176748991
1758278206547262500,206.62726245117187,0.1041798478554934,3.6573511256814,-1.3204630058526992
1758278206557346600,206.6373466796875,-0.0064923211613669,3.5541602157980203,-1.2229530642151831
1758278206567431400,206.6474313964844,0.1472779254237189,3.689665833830833,-1.3152502396404742
1758278206577515300,206.65751538085937,0.4960077399313449,4.166543341356515,-1.2335703198194503
1758278206587600400,206.66760034179688,1.0096090042203665,4.636304294875264,-0.8247861053109169
1758278206597684500,206.6776845703125,1.951106010723114,4.807347674757242,-0.2163976023465394
1758278206607768600,206.6877685546875,2.9553169552922247,4.088095243063568,0.2088034939557314
1758278206617853400,206.697853515625,4.092603660398721,2.9261323618620634,0.2514683312058449
1758278206627937500,206.7079375,4.891497784084081,2.1556097616583108,0.0590811345219612
1758278206638022400,206.7180224609375,4.992537068891525,2.09844936606586,-0.0489124994680285
1758278206648106500,206.7281064453125,4.216557372325658,2.550686353331804,0.1136582356229424
1758278206658190600,206.7381906738281,2.869905447727441,3.2896529547989366,0.3364893781483173
1758278206668275500,206.748275390625,1.411872877049446,4.166190874657034,0.0435407433018088
1758278206678359600,206.75835961914063,0.1226069734930992,4.700961183702946,-0.7677958055883646
1758278206688444400,206.7684443359375,-0.812048277356103,4.5616544198215,-1.460857272709906
1758278206698528500,206.77852856445315,-1.441586462789774,4.153450051027536,-1.6471572584345937
1758278206708612400,206.7886123046875,-1.948362264972925,3.693666301643848,-1.454130594803393
1758278206718697500,206.7986975097656,-2.2209283292651176,3.015791589999199,-1.148686635521054
1758278206728781600,206.80878149414065,-2.228119117552042,2.246263846051693,-1.0164037789270282
1758278206738865400,206.8188654785156,-2.178689608472585,1.3054898931264876,-1.106724393582344
1758278206748950500,206.82895043945317,-2.1142612677037715,0.2683423091173171,-1.2778455148756502
1758278206759034400,206.8390344238281,-1.908024409365654,-0.8248597550690173,-1.263692778621614
1758278206769119500,206.84911938476563,-1.7658230930864809,-1.9692501547008752,-1.1064476224675774
1758278206779203300,206.85920336914063,-1.6883482237398624,-3.135751848375797,-0.795027803646028
1758278206789287700,206.86928759765624,-1.542183702918142,-4.128495057991147,-0.4517044878244399
1758278206799372500,206.87937255859376,-1.2941209423720836,-4.961210202735662,-0.0412424032315611
1758278206809456600,206.8894565429688,-1.010176574975252,-5.586853791883588,0.4661060842730105
1758278206819541500,206.89954150390625,-0.7896130120556801,-6.016244741091132,0.9302730171769856
1758278206829625300,206.9096252441406,-0.6827146259564906,-6.309423385301232,1.3649277321316302
1758278206839709400,206.91970947265625,-0.5694423939764499,-6.453758206477761,1.7807875841148195
1758278206849794300,206.92979418945316,-0.4425579623598605,-6.500194963482022,2.12440432992503
1758278206859878700,206.93987866210935,-0.2144095703344792,-6.412310928323865,2.3836104157760736
1758278206869963500,206.94996362304687,-0.0088484923660755,-6.207259480378031,2.5388649826347827
1758278206880047600,206.96004760742187,0.1560451327145099,-5.8317234554767605,2.5798066493541
1758278206890132500,206.97013256835936,0.4158376401513814,-5.265857750943303,2.589741767913103
1758278206900216600,206.9802165527344,0.5632762725621462,-4.442448194682598,2.5741356179803607
1758278206910300400,206.99030053710936,0.7797825959801673,-3.3542706806600093,2.649609668898582
1758278206920385300,207.00038525390624,1.087589411936328,-2.017728062143921,2.858574783156812
1758278206930469600,207.0104697265625,1.3033937976300716,-0.5666980637043714,2.974654108446836
1758278206940554500,207.02055444335937,1.3131861467175183,0.8802718456894159,3.0577269439309838
1758278206950638600,207.030638671875,1.1636825446009635,2.089814808711409,3.012344664415717
1758278206960722400,207.04072241210935,0.9200637578517198,3.1052748770475387,2.8966873639300466
1758278206970807600,207.0508076171875,0.3834776315554976,3.820264975121617,2.7589012337446213
1758278206980891400,207.06089135742187,-0.2512859603762626,4.053306253755093,2.779870956537127
1758278206990976500,207.0709765625,-1.0392346194162965,3.810409936061501,2.8993761646226046
1758278207001060600,207.081060546875,-1.8030854867711663,3.3072663529008626,3.090882194557786
1758278207011144400,207.09114453125,-2.15592832608819,2.862138905379176,3.1653073209449647
1758278207021229600,207.1012294921875,-2.1909014397919178,2.679775674581528,3.046397740665078
1758278207031313400,207.1113134765625,-2.1995251834914087,2.7146920896619555,2.8548829429015514
1758278207041398500,207.1213984375,-2.277606786559522,2.7352538161754607,2.7867431803941725
1758278207051482400,207.131482421875,-2.353029107290506,2.681067467957735,2.7431559676021338
1758278207061567500,207.1415673828125,-2.174265362289548,2.5113527063310146,2.4460693561680613
1758278207071651600,207.15165161132813,-1.6744909633010625,2.288870231112837,1.93321934863776
1758278207081735400,207.1617353515625,-1.0695186985209584,2.2813865973591803,1.334506290382892
1758278207091820500,207.17182055664065,-0.6304600495189427,2.4008020813345907,0.8447024465929717
1758278207101904400,207.181904296875,-0.3086030078351497,2.464890814885497,0.4192039017140865
1758278207111989500,207.19198950195312,0.0658379153057932,2.370181902143359,0.1135342439170926
1758278207122073300,207.2020732421875,0.5817527172341942,1.9682219806969168,-0.0818212279878556
1758278207132156400,207.21215649414063,1.131773202382028,1.3119658111423254,-0.2030148275516927
1758278207142241500,207.2222414550781,1.5517103868067263,0.6101029056668281,-0.4576349738519638
1758278207152325400,207.23232543945312,1.7348580459803342,-0.0375678063720464,-0.7517247415576129
1758278207162410500,207.2424104003906,1.7555051126897334,-0.6756108583658933,-0.964555956659466
1758278207172494300,207.2524943847656,1.6799503977507353,-1.0769044248580932,-1.1419997051030395
1758278207182579500,207.26257934570316,1.5009537207767367,-1.0937667123317718,-1.2255541135590522
1758278207192663600,207.27266357421877,1.252010231873393,-0.7544815659850835,-1.2221440128546208
1758278207202747600,207.2827475585937,0.9664154669210314,-0.1991308257251977,-1.0565822061888872
1758278207212832500,207.2928325195313,0.7497805486872792,0.3926742067068815,-0.7984558053333312
1758278207222916400,207.3029162597656,0.6732299545787275,0.9398632678210734,-0.4477274739522486
1758278207233001500,207.31300146484372,0.6713084849968552,1.381803317478299,-0.033057050949335
1758278207243085300,207.3230852050781,0.6812823281310498,1.6649083114415406,0.4202708002932369
1758278207253170400,207.33317041015624,0.7521703664332627,1.7790613448441028,0.9073895697176456
1758278207263254500,207.34325463867188,0.8728840735256671,1.6147604249596594,1.422669288612902
1758278207273338600,207.35333862304688,0.9941840560734272,1.2334154215186834,1.9199903030999004
1758278207283423500,207.3634235839844,1.0299766694664954,0.6465589514046907,2.3779234561808407
1758278207293507600,207.37350756835937,0.9871837488573044,-0.1000917748242616,2.7151585381299257
1758278207303592400,207.3835925292969,0.9187082515895366,-0.9136053754925728,2.9456214907079934
1758278207313676300,207.39367626953128,0.8571060741573572,-1.7490291946738958,3.0989167401924727
1758278207323761400,207.40376147460935,0.8856377566367387,-2.547662037074566,3.10574746299535
1758278207333845500,207.4138454589844,0.8799193789899349,-3.237247060257196,2.969543341304361
1758278207343929600,207.4239296875,0.8369172726094722,-3.7572044155746696,2.731904213486612
1758278207354014500,207.43401440429687,0.7409528068482876,-4.185279606008529,2.406078268171847
1758278207364098600,207.4440986328125,0.5994353446474299,-4.472642841938137,2.0922262537673117
1758278207374183400,207.45418334960937,0.4147007085433229,-4.6680701369702815,1.7119453724265097
1758278207384267500,207.464267578125,0.0908195040881633,-4.801303718417882,1.349519150597602
1758278207394352400,207.47435229492189,-0.4765618657052516,-4.807372809198498,0.999518110577762
1758278207404436500,207.4844365234375,-1.0242542001664638,-4.7169238919883965,0.5464452570095658
1758278207414521300,207.4945212402344,-1.5325906757950782,-4.439565332722664,0.0496980968877673
1758278207424605400,207.50460546875,-2.142040085989237,-3.9609097096085546,-0.4116302515894174
1758278207434689500,207.514689453125,-2.6682407196104525,-3.2965222560465333,-0.858414672537893
1758278207444774400,207.5247744140625,-3.194779791405797,-2.4170021055072546,-1.1961062660828232
1758278207454858500,207.5348583984375,-3.744180683350563,-1.587515859681368,-1.625115814757347
1758278207464943400,207.544943359375,-3.933958574318885,-0.7442658769190311,-2.0378560734152797
1758278207475027500,207.55502734375,-3.962833955669403,0.2611889302313327,-2.316009290190041
1758278207485112300,207.5651123046875,-4.308321463787555,1.3145856382519006,-2.363923426270485
1758278207495196700,207.57519677734376,-4.67793862003386,2.33625566714406,-2.177956033501029
1758278207505280500,207.58528051757813,-4.837519525659084,3.244966840854287,-1.813850918674469
1758278207515365400,207.5953654785156,-4.847381578981876,3.863097570154071,-1.437268307329714
1758278207525449500,207.60544946289065,-4.772072363236546,4.075944202020764,-1.2017916182428598
1758278207535534300,207.6155344238281,-4.287557492700219,4.09363124988079,-1.135387008965015
1758278207545618400,207.62561840820317,-3.3159663767069576,4.03171401515007,-1.1742796342000366
1758278207555703300,207.63570336914063,-2.1011200465798376,3.914375921970606,-1.2245654678478837
1758278207565787600,207.64578759765624,-1.1485592097491024,3.391006712383032,-1.4707529360413552
1758278207575872500,207.65587255859376,-0.261878702593781,2.5902690066576004,-1.7751427100956438
1758278207585956600,207.6659565429688,0.3460463110446929,1.7980740883499382,-1.940889152613282
1758278207596040400,207.67604052734376,0.424061278617382,1.1247001952558755,-1.9301701902002093
1758278207606125300,207.6861252441406,0.515446599894762,0.7317091776847839,-1.831266163855791
1758278207616209400,207.69620947265625,0.8271995961934328,0.8942395807653665,-1.6379589297175403
1758278207626294300,207.70629418945316,1.1994821722567082,1.5941887615740298,-1.3244552903592586
1758278207636378600,207.71637866210935,1.4307517650425434,2.634645908522606,-0.9663532153397798
1758278207646463500,207.72646337890623,1.5124796156585216,3.611711072012782,-0.6335287894397974
1758278207656547600,207.73654760742187,1.5745850664377212,4.197483254021406,-0.4803828852981329
1758278207666632400,207.7466325683594,1.6450947729468344,4.400028856626153,-0.4389934748113155
1758278207676716500,207.7567165527344,1.6316273886084556,4.554259633395075,-0.3962403747558593
1758278207686801400,207.76680151367188,1.6194576428651808,4.827590836840868,-0.3008785510629415
1758278207696885500,207.77688549804688,1.7347218523800372,4.69783808324635,-0.1771536794558167
1758278207706969600,207.78696948242188,2.005835964298248,3.7483044852823015,-0.3235416337698698
1758278207717054500,207.79705444335937,2.385557750451565,2.2709026127457617,-0.6512076539933681
1758278207727138600,207.807138671875,2.8756138885021207,1.1797323466479777,-1.112162785243988
1758278207737223400,207.81722338867183,3.132750912994146,0.6893821940869093,-1.7721031962692737
1758278207747307500,207.8273076171875,2.893067712128162,0.6414864704459905,-2.4000793200179933
1758278207757392400,207.8373923339844,2.262312479054928,1.054872041270137,-2.7500603401631114
1758278207767476500,207.8474765625,1.4052993438780308,1.9484569575190545,-2.6878563974455
1758278207777561300,207.85756127929687,0.3686848438322543,3.2920389731526374,-2.388527706173062
1758278207787645700,207.86764575195312,-0.7342623692989348,4.755879937848449,-1.9468711496323343
1758278207797729500,207.8777294921875,-1.6743267126500605,5.597798379746079,-1.36206985848248
1758278207807814400,207.887814453125,-2.1239409501969813,5.181035441443324,-0.4575502912431955
1758278207817898500,207.8978984375,-1.9199930795788764,4.076836766946316,0.3597422434419393
1758278207827983400,207.9079833984375,-1.3330220431745052,3.1580770774304865,0.6468365993022919
1758278207838067500,207.9180673828125,-0.8336953879535197,2.326671261718869,0.5568038616776466
1758278207848152300,207.92815234375,-0.5545359167456626,1.3667296669870614,0.4184691576987505
1758278207858236700,207.9382365722656,-0.4037304382503032,0.3365571826875209,0.3674818977832794
1758278207868321500,207.9483215332031,-0.4668260691106319,-0.6907184111267328,0.3835796306252479
1758278207878405600,207.9584055175781,-0.5530033003509044,-1.659327296438813,0.4000413744740188
1758278207888490500,207.96849047851563,-0.6046902329683304,-2.569491591566801,0.3867382407866418
1758278207898574600,207.97857470703124,-0.6081342359423637,-3.456939027974009,0.3384653543964028
1758278207908659500,207.98865942382807,-0.5232552278190851,-4.278057842949033,0.2700119958952069
1758278207918743300,207.99874340820315,-0.4817191023379564,-5.032679694187641,0.1478916368752718
1758278207928827600,208.0088276367188,-0.3967243588805198,-5.586761437425017,0.1035810051795095
1758278207938912500,208.01891259765625,-0.3735393346587196,-5.881925702494383,0.053046238271892
1758278207948996600,208.02899658203123,-0.4468704917967319,-5.949097789013385,-0.0241397311307489
1758278207959081500,208.03908154296877,-0.5977355915248393,-5.8458139401495455,-0.039572241529636
1758278207969165600,208.04916552734372,-0.7245593059301376,-5.639094851252437,-0.066764565164037
1758278207979250400,208.05925048828124,-0.7414807031799108,-5.232943907856941,0.0025978710060939
1758278207989334500,208.06933447265624,-0.7415665548324585,-4.690072709941863,0.1934289608217775
1758278207999419400,208.07941943359376,-0.7650834778897464,-3.977037837588787,0.4061705248787999
1758278208009503500,208.0895034179688,-0.7461741947583854,-3.0850843219339845,0.6510332472745328
1758278208019588400,208.09958837890625,-0.69107789208889,-2.0015432355403897,0.93328140521273
1758278208029672400,208.10967236328125,-0.691908643824607,-0.8650859669953584,1.3031550204381346
1758278208039756500,208.1197565917969,-0.791426564283669,0.2156657809406519,1.6709281562529503
1758278208049841400,208.1298413085937,-0.9684013800412417,1.1179098044633864,2.046364666302502
1758278208059925500,208.13992553710935,-1.139464633667469,1.7006956641376016,2.4678444039940834
1758278208070010400,208.15001025390623,-1.162948385107517,1.8871219065904616,2.7240935397356747
1758278208080094500,208.16009448242187,-1.1910808391362429,1.756111846411228,2.931390136259794
1758278208090179300,208.1701794433594,-1.2685963327541947,1.2510060232669111,3.080882194069028
1758278208100263400,208.1802634277344,-1.1241393465027212,0.666456076529622,3.2563325767382976
1758278208110348500,208.1903486328125,-0.9434329430013896,0.1126075575262308,3.366623966276645
1758278208120432400,208.20043237304688,-0.7216033787339925,-0.3029524347275495,3.422366311764717
1758278208130517500,208.210517578125,-0.4370730281427502,-0.5316337645858525,3.365237188093364
1758278208140601900,208.22060180664064,-0.2639440741583704,-0.5395359160125255,3.06073606261909
1758278208150686700,208.2306867675781,-0.2022311298280954,-0.3455214103877544,2.4965499817356465
1758278208160770800,208.24077075195316,-0.1802577829509973,0.0536357285976409,1.9261393272489309
1758278208170855700,208.25085571289063,-0.3134621383041143,0.470665793403983,1.3807142070673406
1758278208180940000,208.26093994140624,-0.544794274932146,0.8439549161612987,1.0208503100071102
1758278208191023900,208.27102392578124,-0.6280377908080816,1.4869979683995247,0.8626851894639432
1758278208201109000,208.2811088867188,-0.6950514718949794,2.498688455069065,0.7641987309444696
1758278208211192800,208.29119287109376,-0.7260957217171787,3.5305770956367253,0.7339381788458674
1758278208221278000,208.30127783203125,-0.5553901954874396,4.253604954215884,0.8493832978855818
1758278208231361800,208.31136181640625,-0.1969607882097363,4.386763132339715,0.8158586294244974
1758278208241446700,208.3214467773437,0.28924364284873,3.8782267502248287,0.7312552964374422
1758278208251531000,208.33153100585935,0.7669280828431249,2.9935072774767875,0.8279748914148658
1758278208261615900,208.3416159667969,1.050749992904067,2.178461060413718,1.0161451279908418
1758278208271700000,208.35169995117187,1.1011062614396214,1.5176111333280802,1.2473119910545647
1758278208281784800,208.36178491210936,0.9227700942009688,1.001866427269578,1.622744263320416
1758278208291869000,208.3718688964844,0.7267413261443376,0.6224912625968456,2.1319193817302584
1758278208301953800,208.38195385742188,0.5807341878414154,0.3757645729601383,2.683879602769017
1758278208312038000,208.39203784179688,0.457253792514652,0.3438403254330158,3.1644851909071203
1758278208322122800,208.4021228027344,0.3066730626858771,0.4743126254737377,3.505578847980499
1758278208332206800,208.41220678710937,0.1759317364454269,0.6993675815284252,3.5242297724366187
1758278208342291000,208.422291015625,0.0727040016829967,0.8750432973861694,3.2403400578364727
1758278208352375800,208.4323757324219,0.0932106370083987,0.9697925421386956,2.7828412045195696
1758278208362460000,208.4424599609375,0.1848883653610944,1.007340474766493,2.237590125730633
1758278208372544800,208.4525446777344,0.178373722770065,1.1191203492969275,1.784724046780914
1758278208382628900,208.46262890625,-0.0002628887198865,1.2975602691709995,1.4396338674172755
1758278208392713700,208.47271362304687,-0.2706225290089845,1.5459505081057547,1.1114366629265249
1758278208402797800,208.4827978515625,-0.6247242092806845,1.715332092255354,0.8536321144364774
1758278208412882700,208.49288256835936,-1.0345417123597114,1.7234622072190044,0.7061420440994203
1758278208422967000,208.50296704101564,-1.386270233759284,1.5204934107661243,0.6986300610341132
1758278208433052000,208.51305200195316,-1.6085498798817397,1.2251561272174118,0.5793856227766722
1758278208443135700,208.5231357421875,-1.6987322551101445,0.9356266531646252,0.2660682267054915
1758278208453220900,208.5332209472656,-1.7242162404567003,0.5976683715075254,-0.1078054910067468
1758278208463304700,208.5433046875,-1.6878537182211877,0.1357125387817621,-0.487075222543627
1758278208473389800,208.5533898925781,-1.5854665259361267,-0.3742220196932554,-0.8254391623921692
1758278208483473700,208.5634736328125,-1.4448270521461963,-0.8635802386075258,-1.1260185843780637
1758278208493558800,208.57355883789063,-1.3349123869657515,-1.412861303564906,-1.467617852886021
1758278208503643000,208.58364282226563,-1.435747089111805,-2.023704798465967,-1.846437721763551
1758278208513728000,208.59372802734376,-1.4510019413888453,-2.548769121533632,-2.112558701569587
1758278208523811800,208.6038117675781,-1.5044301647156475,-3.0725445738345383,-2.4596695731058715
1758278208533895700,208.61389575195312,-1.431567757600546,-3.5305893705964086,-2.7341274424940347
1758278208543980800,208.6239807128906,-1.394507900750637,-3.7353579099476337,-2.7640368430674074
1758278208554064600,208.6340646972656,-1.3984680365532636,-3.812227214616537,-2.78211347476691
1758278208564149800,208.64414965820316,-1.488483238521218,-3.789776313355565,-2.838635572455823
1758278208574233900,208.65423388671877,-1.608099798026681,-3.6748850288063286,-2.8809000122115016
1758278208584319000,208.66431909179687,-1.6254969230294227,-3.448986023142933,-2.880461036272347
1758278208594402800,208.6744028320313,-1.6391443401098251,-3.169102329313755,-2.862171346344053
1758278208604488000,208.68448803710936,-1.756811519113183,-2.812849097031355,-2.8733783845350143
1758278208614571800,208.69457177734373,-1.7640882321178912,-2.3230337819993494,-2.843706592109799
1758278208624657000,208.70465698242188,-1.899140845686197,-1.6264321580529213,-2.850191570214927
1758278208634740700,208.71474072265624,-2.0665432387173173,-0.7414245160132646,-2.856577764120698
1758278208644825900,208.7248259277344,-2.1679747377127407,0.5073544788539409,-2.728048999363184
1758278208654910000,208.73490991210937,-2.458175242894888,2.054562878066301,-2.443462242409587
1758278208664995000,208.7449951171875,-2.9024522110670805,3.748011055293679,-1.6975275554955005
1758278208675079000,208.75507885742184,-3.1380677241027355,5.25463551518321,-0.5483171883612871
1758278208685163800,208.76516381835935,-2.960749501734972,5.667929900592565,0.3701654377788305
1758278208695248000,208.7752478027344,-2.3729940369546414,4.676384376329184,0.3402677276432514
1758278208705332700,208.78533276367187,-1.3750906680971384,3.246237006920576,-0.4532809433609246
1758278208715416800,208.79541674804688,-0.4639255253635346,2.1460861465096475,-1.202718085438013
1758278208725501700,208.8055017089844,0.0096684304468333,1.3688333612680434,-1.671789303126931
1758278208735586000,208.8155859375,0.2264658457659184,0.954347720247507,-1.851772360789776
1758278208745671000,208.8256708984375,0.4347217888414859,1.0682482401937246,-1.876390084695816
1758278208755755000,208.83575512695316,0.8528018010921776,1.6509920142918824,-1.755973899245262
1758278208765838800,208.8458388671875,1.2504261775523424,2.6930747166156768,-1.531544966134429
1758278208775923700,208.855923828125,1.3101906181633471,4.06662692309916,-1.1379431231886148
1758278208786007800,208.8660078125,0.8951572070669382,5.302872015085816,-0.5374830751359463
1758278208796092700,208.8760927734375,0.1809247224271297,6.282680339804291,0.2556143449693918
1758278208806177000,208.88617700195311,-0.4175614682693034,7.243024085596203,0.9741440153464674
1758278208816262000,208.89626196289063,-0.7169575987547636,7.975238290193676,1.6352160607501864
1758278208826346000,208.90634594726563,-0.5870382929543033,7.745861963808536,2.03478704123348
1758278208836430800,208.91643090820315,0.0710585360309109,5.954470129701495,1.91346835398525
1758278208846515000,208.92651489257813,1.270195876905322,3.608584464424848,1.2712114836886523
1758278208856599800,208.9365998535156,2.7202555690079926,1.8687913001298904,0.445913629463315
1758278208866684000,208.94668383789065,3.49291342767477,0.584686724859476,-0.5423132717713713
1758278208876768800,208.9567687988281,3.5334453445494174,-0.2285036352038383,-1.3890478817790746
1758278208886852900,208.96685278320317,3.0192437762796875,-0.5033692086100578,-1.984357122939825
1758278208896937700,208.97693774414063,1.9724878214478487,-0.5347860911369323,-2.427234161186218
1758278208907021800,208.98702172851563,0.7733499325841665,-0.3120668845534324,-2.7156355079919097
1758278208917107000,208.99710693359376,-0.2619956069717183,0.094147187206149,-2.773804496105015
1758278208927190800,209.0071906738281,-1.185239127370715,0.6461456944286823,-2.412365093356371
1758278208937276000,209.01727587890625,-1.936424574419856,1.179463466578722,-1.786306201405823
1758278208947359700,209.02735986328125,-2.4876439139634368,1.5592892976284023,-0.784559601123631
1758278208957444900,209.03744482421877,-2.5534867977052924,1.6750392448335885,0.3558810379691421
1758278208967528700,209.0475288085937,-2.10652395144999,1.3013690138041971,1.125065959828347
1758278208977613800,209.0576137695313,-1.4647937353760003,0.4364981508642435,1.2905363618835806
1758278208987698000,209.06769799804687,-0.921411665329337,-0.5640075094461441,1.0530397112764418
1758278208997783000,209.0777829589844,-0.6551017388224601,-1.4595651870727535,0.4728988131530582
1758278209007867000,209.0878669433594,-0.6722510265439748,-2.1578408817112447,-0.1308138069547712
1758278209017952000,209.09795190429688,-0.7203086627483367,-2.6635855872809886,-0.5590605545632541
1758278209028035800,209.10803588867188,-0.7712205193400382,-3.125403472840786,-1.094869632072374
1758278209038120700,209.1181206054688,-0.9157803814440963,-3.5513720463842158,-1.5216640619806945
1758278209048204800,209.1282048339844,-0.9689069914758204,-3.936127150529623,-1.845898061928898
1758278209058289700,209.13828955078125,-0.9727765263855456,-4.241844958317279,-2.104752557863295
1758278209068374000,209.1483740234375,-0.913558029219508,-4.354816672980785,-2.166651672415435
1758278209078459000,209.158458984375,-0.8096767989844084,-4.234983840376138,-1.8430358043655752
1758278209088543000,209.16854296875,-0.5621750333219766,-3.948950391745567,-1.2489273172967137
1758278209098627800,209.1786279296875,-0.595686184714362,-3.3704677822232245,-0.5668122646685689
1758278209108712000,209.1887119140625,-0.3554587939690798,-2.5933114430934188,0.2935112736979499
1758278209118796800,209.198796875,-0.216544390406087,-1.7422253598779438,1.0565697850987317
1758278209128880600,209.2088806152344,-0.1804052285976707,-0.9168167387545108,1.6550336908981202
1758278209138964700,209.21896484375,-0.1448844178833067,-0.2158200947195291,2.2330361156880856
1758278209149049600,209.22904956054688,-0.1161370468266308,0.364351198542118,2.6246348021179435
1758278209159133700,209.2391337890625,-0.1261351476192474,0.7996464033573866,3.142298785801232
1758278209169218600,209.24921850585935,-0.2112117241412401,1.096892150875926,3.519012914571166
1758278209179302400,209.2593024902344,-0.3647159402012825,1.1901952884733675,3.919065541091561
1758278209189387500,209.26938745117187,-0.570837355466187,1.2459124995201825,4.300887514394521
1758278209199471400,209.27947143554687,-0.7111766772657633,1.2773095083028077,4.674270745176076
