time,seconds_elapsed,z,y,x
1758278199962182400,200.04218237304687,0.5447216480873525,1.474534792667627,-2.1539210779190063
1758278199972266800,200.05226684570312,0.4554366600900888,0.968932125917077,-2.0083675286024807
1758278199982350600,200.0623505859375,0.2310262855492532,0.775907800373435,-1.919803694486618
1758278199992435500,200.072435546875,0.0943845030933618,0.9849164615124464,-2.0227040969908234
1758278200002519600,200.08251953125,0.3095072631984949,1.6284639561414718,-2.224122741392254
1758278200012603600,200.09260375976564,0.8695672040626407,2.6090526175826785,-2.4275544791817665
1758278200022688500,200.1026884765625,1.085072241483629,4.04008787574172,-2.3892115967839955
1758278200032772600,200.11277270507813,0.7282125677406788,6.034915539291501,-1.832394875624776
1758278200042856400,200.1228564453125,0.2627959270365536,8.287793835046887,-0.8369441606163978
1758278200052941600,200.13294165039065,-0.071675827679038,9.877505743467808,0.187285781891644
1758278200063025400,200.143025390625,0.0417718339331448,9.816107564175129,0.8430173430502415
1758278200073109500,200.15310961914065,0.7828039896279573,7.8619702229321,0.8912292930334806
1758278200083194400,200.1631943359375,1.8724831403851507,5.488188250470161,0.102187285798788
1758278200093278700,200.17327880859372,2.837235934790969,3.970780530759692,-1.100948440529406
1758278200103363600,200.18336352539063,3.142113200101256,3.052011488893628,-2.23373695743382
1758278200113447700,200.19344775390624,2.746698754775524,2.303891274634004,-3.018882541751861
1758278200123532000,200.20353198242188,1.9871007225595412,1.7798650624424217,-3.351626888152957
1758278200133617200,200.2136171875,1.4252337322734296,1.6790245150774716,-3.431275302146375
1758278200143701000,200.2237009277344,0.7350526428937911,1.823888328564167,-3.443291610893607
1758278200153785000,200.23378515625,-0.0392297482348978,1.95409700923264,-3.2425445821434256
1758278200163870200,200.2438701171875,-0.7626666260063648,2.140139220803976,-2.612522924041748
1758278200173954000,200.2539541015625,-1.4801310052394867,2.247050027993321,-1.6538009342327713
1758278200184038100,200.2640380859375,-1.999842861363292,2.144572819337249,-0.7339649937875569
1758278200194123000,200.274123046875,-2.236455568742752,1.8049954120457168,-0.0731941232874989
1758278200204207000,200.28420703125,-2.242052365836501,1.1212176138371228,0.2405214052557945
1758278200214291200,200.29429125976563,-2.025696264544129,0.1692582500308752,0.2441694063693285
1758278200224376300,200.30437622070312,-1.679036790037155,-0.8251841647177934,0.0784434221178293
1758278200234460200,200.3144602050781,-1.4594313315600156,-1.7849989181995392,-0.0922682415917515
1758278200244545000,200.324544921875,-1.513596783120185,-2.591601716566086,-0.2267491196867078
1758278200254629000,200.3346291503906,-1.7165220326922832,-3.3014854314118622,-0.4097060785938054
1758278200264713000,200.344712890625,-1.839423751348257,-3.880483004719019,-0.726365770830214
1758278200274798000,200.35479809570316,-1.726626224207878,-4.284042178055644,-1.026934963683039
1758278200284882200,200.36488208007813,-1.5520624151147902,-4.533595031028986,-1.2111209529284388
1758278200294966000,200.37496606445316,-1.4443769702911375,-4.54024455204606,-1.2603991439037023
1758278200305051100,200.38505102539065,-1.459337223535776,-4.405746065229177,-1.2524325489386916
1758278200315135000,200.3951350097656,-1.5759003868199883,-4.100193092614412,-0.9724431297127156
1758278200325219000,200.40521899414065,-1.7165740551404651,-3.52314606885314,-0.529608542368561
1758278200335304000,200.4153039550781,-1.956781133750081,-2.758078811445832,-0.0111968455905094
1758278200345388300,200.42538818359372,-2.36229567893818,-1.899654055905342,0.5079476224415004
1758278200355472100,200.43547216796875,-2.876280827978253,-1.0050099859923125,1.092463739974424
1758278200365557200,200.44555712890624,-3.4366678088396787,-0.0550327359139919,1.831072687110305
1758278200375641000,200.45564111328125,-3.917004224647581,0.8403162673979997,2.7059546564549204
1758278200385726200,200.46572631835937,-4.304661772236228,1.6331401312589644,3.855916134217381
1758278200395810000,200.4758100585937,-4.459361335560679,2.1570319034159184,5.340639727944136
1758278200405894100,200.48589404296877,-4.381019620251656,2.53036544983685,6.956141911181807
1758278200415979300,200.4959792480469,-4.254340867274999,2.6628677944004533,8.452682199430464
1758278200426063000,200.5060629882813,-4.000513697983324,2.4011177231550214,9.923242243248223
1758278200436147200,200.51614721679687,-3.369365373939276,2.055167273700237,11.45378358529806
1758278200446232000,200.5262321777344,-2.400457213419676,1.446865864497423,12.44141632003188
1758278200456316000,200.53631591796875,-1.1413643298089504,0.5664473038136959,12.29593115977645
1758278200466400300,200.5464001464844,-0.0404401469379663,-0.2694663447111844,10.944995858770609
1758278200476485000,200.55648510742188,0.5697860928475856,-0.4920552029132842,9.22696444442868
1758278200486569200,200.5665693359375,0.6258078397989273,-0.1209983692526817,7.733304680052399
1758278200496653000,200.57665307617188,0.3411386652588844,0.3590945931881666,6.237329039949178
1758278200506738200,200.58673828125,-0.13241525080204,0.7214350364297628,4.52398315307498
1758278200516822000,200.5968220214844,-0.7700339399039745,1.060447211053967,2.8621450428590176
1758278200526906000,200.60690600585937,-1.3722072216153145,1.4553122058033945,1.4383178163826464
1758278200536991200,200.6169912109375,-1.7281255228549242,1.9197317982941864,0.1618940779384225
1758278200547075000,200.62707495117183,-1.592778310254216,2.45712661062479,-1.05582203547135
1758278200557160200,200.63716015625,-1.1250590916961432,2.9821546933352945,-2.2146678075656294
1758278200567244000,200.647244140625,-0.5060317058175802,3.2850095129072665,-3.000858224761486
1758278200577328000,200.657328125,0.0325391645550727,3.090879856470227,-3.334095030854642
1758278200587413000,200.6674130859375,0.3741173902750015,2.29664261868,-3.007997575122118
1758278200597497000,200.6774970703125,0.6794008982986212,1.2336106518298386,-2.033533241780102
1758278200607581200,200.6875812988281,0.7536813555181026,0.1814794337004423,-0.8831723163712769
1758278200617666000,200.697666015625,0.754779087626934,-0.7448761177718639,0.1715860353913158
1758278200627750100,200.7077502441406,0.723016168141365,-1.5751163968354462,0.976339333433658
1758278200637834000,200.717833984375,0.5680670139700174,-2.2693290798187253,1.448962252254784
1758278200647919000,200.72791918945316,0.4391653242468833,-2.756548533138633,1.6815952423483131
1758278200658003200,200.73800317382813,0.5758259575337171,-3.003284575125575,1.784639291106909
1758278200668087000,200.74808715820316,0.8251654600173235,-2.862125461375713,1.7344198006935416
1758278200678172200,200.75817211914065,1.024897466506064,-2.3727584746330974,1.4412456865280865
1758278200688256000,200.76825610351565,1.0735381632953882,-1.6237228990942238,0.9321789969287811
1758278200698340000,200.77834008789063,1.0028671287447213,-0.6568132189154624,0.5119612054644153
1758278200708425000,200.7884250488281,0.8248308212354779,0.3955710971921682,0.2534273928517475
1758278200718509300,200.79850927734373,0.5776359295651317,1.438230722621083,0.2035920977166853
1758278200728594200,200.80859423828124,0.2735381241947412,2.4017928459376097,0.3545340072743594
1758278200738678000,200.81867797851564,-0.0233788297608494,3.1223493459671734,0.5500412356749177
1758278200748762000,200.82876220703125,-0.2290554238677024,3.538323179718852,0.7619717756099998
1758278200758847000,200.83884692382813,-0.2524830612063408,3.532474453690648,1.008922702456638
1758278200768931000,200.8489311523437,-0.2047562643915414,3.2608366101592776,1.314872346238792
1758278200779015200,200.85901513671877,-0.2514147013224661,2.680322787070274,1.6784654198899864
1758278200789100300,200.86910034179687,-0.3482539040915667,1.687504174131155,2.085129281243682
1758278200799184100,200.8791840820313,-0.2800267555616796,0.4870645550191402,2.4396691337369383
1758278200809268000,200.88926806640623,-0.0979922452617436,-0.7371721192657947,2.4708631672933694
1758278200819353000,200.89935302734372,0.0176022191207855,-1.829863895842433,2.1737201494969427
1758278200829437000,200.90943701171875,0.0910626651942729,-2.7211720993310213,1.8094427468433976
1758278200839521300,200.9195212402344,0.1633610452184453,-3.3501971476107832,1.4419332304008303
1758278200849606100,200.92960620117188,0.1897042412102222,-3.8519168354481454,1.0567463107094168
1758278200859690200,200.93969018554688,0.1060334763655439,-4.318282301309704,0.683778382730484
1758278200869774000,200.94977416992188,-0.0769225144271738,-4.638286993125081,0.3045385348752141
1758278200879859200,200.95985913085937,-0.3651432257026433,-4.785215922448039,-0.113923900821805
1758278200889943000,200.9699431152344,-0.6545598870307207,-4.772672082695364,-0.548363950112462
1758278200900028000,200.98002783203123,-0.9846575183153152,-4.613673945394158,-0.9816188812717794
1758278200910112300,200.9901123046875,-1.4693459918528795,-4.319283587306738,-1.3289070090711117
1758278200920196000,201.00019604492184,-1.897180943790078,-3.902707111486792,-1.6363289904281495
1758278200930281200,201.01028125,-1.905062636950612,-3.146646751877665,-1.870603610248864
1758278200940365000,201.0203649902344,-2.116859467503428,-2.042884130710364,-2.0492995507106184
1758278200950449000,201.03044897460936,-2.654330267679691,-0.6576631137430667,-2.1589225394681093
1758278200960534000,201.04053393554688,-3.216367938357592,1.1130249550312756,-1.8061887134835124
1758278200970618000,201.0506181640625,-3.445602225923538,2.7882465706944464,-0.9022136283844708
1758278200980702200,201.0607021484375,-3.568025659543276,4.014793275487422,0.0717272656053304
1758278200990787000,201.070787109375,-3.551189091032743,4.278523706895113,0.3124339643001556
1758278201000871200,201.08087109375,-3.08650997082293,4.234878041914105,-0.2698983063876629
1758278201010955000,201.090955078125,-2.2551941714823243,4.309501613482833,-1.2533768440514803
1758278201021040000,201.1010400390625,-1.5830002819530664,4.56279248394072,-1.935983844915032
1758278201031124200,201.11112426757813,-1.149562687703222,4.6432115900456905,-2.2295231391310693
1758278201041209000,201.121208984375,-0.819731744530797,4.077533517038822,-2.536900989085436
1758278201051293200,201.13129321289065,-0.6824158622056246,3.109289957907796,-2.6825901474803686
1758278201061377000,201.141376953125,-0.5400821517184377,2.29116097239852,-2.6379958034724
1758278201071462100,201.15146215820312,-0.3798451202720403,1.6974381236463785,-2.636749018281698
1758278201081546000,201.1615458984375,-0.2985439706355333,1.2990630749493837,-2.789681571933627
1758278201091630000,201.17163012695312,-0.3019064328059554,1.170823064005375,-3.191818603512645
1758278201101715200,201.18171508789064,-0.203789172925055,1.5040999098479746,-3.7227749072283514
1758278201111799000,201.19179907226564,-0.2403361118167638,2.4552333442240952,-3.93527433309257
1758278201121884200,201.2018842773437,-0.5021405435979366,3.9855286025583743,-3.414513260176778
1758278201131969000,201.21196899414065,-0.9622254678852856,5.772728830194473,-2.2327742498815057
1758278201142053000,201.22205322265623,-1.3421154502123591,7.430227742162346,-0.9041098173946142
1758278201152137000,201.23213696289065,-1.36707234294489,8.332280627027153,0.067968205332756
1758278201162222000,201.24222216796875,-0.8445464523136615,8.031451175802946,0.3650157999306917
1758278201172306200,201.25230615234372,0.1588926311001181,6.456136626046896,0.0703098000228405
1758278201182390000,201.26239013671875,1.3080512680470944,4.5231326737254856,-0.7524436304166913
1758278201192475100,201.27247509765624,2.101340119071305,3.117706488597393,-1.8257655206128955
1758278201202559000,201.28255908203124,2.1553025954052805,2.380069674429297,-2.6650202962592244
1758278201212644000,201.2926440429688,1.768115003415942,2.0944401304244997,-3.101267687232792
1758278201222728000,201.30272802734376,1.1307700166888537,2.021205967387557,-3.1022771565362808
1758278201232812300,201.31281225585937,0.4483936097107827,2.0264532203912733,-2.84318402954042
1758278201242897200,201.3228972167969,-0.0382967051684856,2.079224441114068,-2.3372663054913283
1758278201252981000,201.33298095703125,-0.4461906928390264,2.114536577513814,-1.6182625878617167
1758278201263065000,201.3430651855469,-0.8415661213286221,2.1427064409434795,-0.6707403297200799
1758278201273150000,201.35314990234372,-1.1314444088190794,2.0460762047499417,0.3756210728362202
1758278201283234000,201.36323413085935,-1.240145022034645,1.7377859161257745,1.3590697998836636
1758278201293318100,201.3733181152344,-1.1712824982106684,1.1073141761690375,2.0899929417572918
1758278201303403300,201.3834033203125,-0.9444973573625088,0.2021340991944074,2.4029842476792638
1758278201313487000,201.39348706054687,-0.7325948744781315,-0.9067126933693884,2.312463580407202
1758278201323571000,201.40357104492188,-0.4916454530686139,-2.043218477231264,1.981198366647959
1758278201333656000,201.41365600585937,-0.4026853131115436,-2.9249697478234764,1.5489184180006383
1758278201343740000,201.4237399902344,-0.5150006096929312,-3.520387710055709,1.1312059238880872
1758278201353824300,201.43382421875,-0.6720699708886444,-3.8250744212299583,0.7716385255564003
1758278201363909000,201.4439091796875,-0.7745944527525455,-3.901453312033415,0.3248432909529656
1758278201373993200,201.4539931640625,-0.8201251277625561,-3.881560863083601,-0.2575762926921248
1758278201384077000,201.4640771484375,-0.7758511017501354,-3.751544490116834,-0.9686926911380142
1758278201394162000,201.4741618652344,-0.6866998231351376,-3.50190337433815,-1.751815464391559
1758278201404246000,201.48424609375,-0.4843143795281648,-3.109187082055211,-2.431591479612887
1758278201414331000,201.49433081054687,-0.2517186527051031,-2.516475456172228,-2.7773607272818683
1758278201424415200,201.50441528320312,-0.1165871286816895,-1.8175778302431105,-2.756473129814863
1758278201434499000,201.5144990234375,-0.1301874917499721,-1.0992091956466437,-2.228264371241629
1758278201444584200,201.52458422851564,-0.3832084592252969,-0.4894850601643323,-1.365633103922009
1758278201454668000,201.53466796875,-0.8294605268627405,-0.0393716409236192,-0.3036933892879634
1758278201464751900,201.544751953125,-1.2998136010557413,0.2449912441462278,0.8885876194182782
1758278201474837000,201.5548369140625,-1.9285925656199452,0.4681821598947048,2.14694013299048
1758278201484921000,201.56492114257813,-2.6413889530420303,0.6916705972850322,3.423792837436497
1758278201495005200,201.57500512695316,-3.37653745752573,0.9856962137132882,4.617400856962799
1758278201505090000,201.58509008789065,-4.0618484566509725,1.333197399741411,5.839305288907886
1758278201515174100,201.5951740722656,-4.726562073427439,1.402427003312111,6.971335388660431
1758278201525258000,201.60525805664065,-5.182463428419828,0.9789292037963868,8.151278747710585
1758278201535343000,201.6153430175781,-4.723329667377472,0.215290517887473,9.73579776366353
1758278201545427200,201.62542724609372,-3.431532199516892,-0.7450543969482183,10.672436808741091
1758278201555511000,201.6355109863281,-1.9478619142353533,-1.631570689985156,10.561367128306626
1758278201565596200,201.64559619140624,-0.7904290776789188,-1.964790837204456,10.059982956033943
1758278201575680000,201.65567993164063,-0.0956874023854732,-1.784334901332855,9.389884139087796
1758278201585765000,201.6657651367188,0.0715641839981079,-1.3923796565502882,8.143248001468182
1758278201595849000,201.67584887695315,-0.0070277066797018,-0.9382646004527808,6.341680810305476
1758278201605933000,201.6859331054688,-0.0711626174598932,-0.4684866957992315,4.145459344534576
1758278201616018200,201.69601806640625,-0.0825765763998031,-0.0520031589597463,1.9611362602196636
1758278201626102000,201.70610205078123,-0.2000286513477563,0.416599272173643,0.0256291659709066
1758278201636186000,201.71618603515623,-0.3158966719746589,0.880372383454442,-1.6855404728427528
1758278201646271000,201.72627099609372,-0.1649175904780626,1.2899714214771985,-3.109334381571412
1758278201656355000,201.73635498046875,0.181364282888174,1.6731711128741502,-3.863712487182021
1758278201666439200,201.7464392089844,0.428501891413331,1.9632722493350503,-3.57717459616065
1758278201676524300,201.75652416992187,0.5579232210963964,1.97817463491261,-2.3997465809322893
1758278201686608100,201.76660815429688,0.6872258928358554,1.454859201338887,-1.1780612716306
1758278201696692000,201.77669189453124,0.8530553374618292,0.469255926606059,-0.4699493887629359
1758278201706777000,201.78677709960937,1.0690426054418087,-0.5855003793299198,-0.1607552831668406
1758278201716861000,201.79686083984376,1.29477122297436,-1.5268126769155264,-0.1235592327166348
1758278201726945300,201.8069453125,1.423473298472166,-2.2661194701224563,-0.2262332791190594
1758278201737030100,201.8170300292969,1.4208628237128258,-2.631189630588889,-0.4455986452300101
1758278201747114000,201.8271140136719,1.3289590315192936,-2.4746593447059397,-0.6768488757282495
1758278201757199000,201.83719921875,1.2127990422084929,-1.7793255487382411,-0.887766512293741
1758278201767283000,201.8472829589844,0.9811419114097952,-0.5923901388436555,-0.9675158293783664
1758278201777367000,201.85736694335935,0.7103299973085522,1.0045178185611965,-0.9325520680248736
1758278201787452000,201.86745190429687,0.3983659886077046,2.7688918818831443,-0.812805160138011
1758278201797536300,201.87753637695312,-0.0162947167187929,4.539332697898149,-0.3822382259536534
1758278201807620000,201.8876201171875,-0.1873591393887996,6.002344810554384,0.4466052284566685
1758278201817705200,201.89770532226564,-0.2644653215534985,6.874495893630385,1.4630518601447342
1758278201827789000,201.9077890625,-0.2567711137890816,7.549608739346265,2.615170515941083
1758278201837873000,201.9178728027344,-0.2496580669134855,7.922773943462968,3.7002979947432872
1758278201847958000,201.9279580078125,0.0639367578595876,7.219613399392366,4.61238273653984
1758278201858042000,201.9380419921875,1.0127893878221512,5.644509277516603,5.251715828344226
1758278201868126200,201.94812622070316,2.0075293242126704,3.450415763685107,4.926864281019568
1758278201878211000,201.95821118164065,2.4385393990546462,1.26796183424294,3.730186644789576
1758278201888295200,201.9682951660156,2.2494833926200863,-0.3111731505841016,2.397699293013662
1758278201898379000,201.97837890625,1.6159166092574595,-1.4990724370747803,1.454037363561988
1758278201908463900,201.9884638671875,1.140878007596731,-2.512798813486099,0.9894038360595704
1758278201918548200,201.99854833984372,0.9686743517637252,-3.2789971207499504,0.9318006651356816
1758278201928632000,202.0086320800781,0.8353098374128342,-3.877828690817952,0.8506897773742675
1758278201938717200,202.01871728515624,0.5121522710571065,-4.222803573238849,0.6277732946529984
1758278201948801000,202.02880102539064,-0.0319510990014299,-4.431315390771627,0.2167380863472819
1758278201958886100,202.0388862304688,-0.638050066256523,-4.460701644253731,-0.2717401348620653
1758278201968970000,202.04896997070315,-1.2544973725140094,-4.449150322669745,-0.8332102347850799
1758278201979054000,202.0590541992188,-1.8986685519993305,-4.3640743306696415,-1.3564923506110906
1758278201989139200,202.06913916015623,-2.5153069969147444,-4.280853026625514,-1.9837945206210017
1758278201999223000,202.07922314453128,-2.90560570666194,-4.111246401548385,-2.6058833398967978
1758278202009307100,202.08930712890623,-3.2208161499381065,-3.720695762866735,-3.1447464712142943
1758278202019392000,202.09939208984372,-3.625581191933154,-3.1110861936748027,-3.689601536422968
1758278202029476000,202.10947607421875,-3.856175661936402,-2.1445359944581983,-4.186884703117609
1758278202039560200,202.1195603027344,-3.979711440712213,-0.9752467158913612,-4.663744090464711
1758278202049645000,202.12964501953124,-4.060210626316071,0.2753098100423812,-4.477069426208734
1758278202059729200,202.13972924804688,-4.208179420080781,1.487795256257057,-3.803652278494835
1758278202069813000,202.14981298828124,-4.313604957148432,2.6264222700566053,-2.963147795048356
1758278202079898000,202.15989819335937,-4.149294100391865,3.529955748867988,-2.2842326344400643
1758278202089982000,202.16998193359376,-3.7428380365699527,3.907978914409876,-1.799343085372448
1758278202100066000,202.18006616210937,-3.077038378122449,3.8805163224667303,-1.4833552279829978
1758278202110151200,202.1901511230469,-2.330559062937647,3.559412144976854,-1.5001064562976358
1758278202120235000,202.20023510742183,-1.5000493192829192,3.076686495944857,-1.7765175055801867
1758278202130319400,202.2103193359375,-0.8501111007034778,2.579422618472576,-2.12138834310472
1758278202140403200,202.2204033203125,-0.3475641682617366,2.1251403891146183,-2.329054941985011
1758278202150487300,202.2304873046875,0.0326360490582883,1.8243284735471008,-2.281079138845205
1758278202160572400,202.24057250976563,0.2093330707877874,1.8382418480873104,-2.064546511942148
1758278202170656300,202.25065625,0.3798521345347165,2.1487357842355967,-1.6799983285456894
1758278202180740400,202.260740234375,0.5976788929015397,2.66393863850236,-1.2807102566570043
1758278202190825200,202.2708251953125,0.7607967404812573,3.179004714646936,-0.8470786011397838
1758278202200909300,202.2809094238281,0.6862626007616519,3.5076153222441677,-0.3506143496125936
1758278202210993400,202.29099340820312,0.7081880168437957,3.3959897614926096,0.0453536379426717
1758278202221078300,202.3010783691406,0.9687671446137128,2.929517912647128,0.2474082421600818
1758278202231162400,202.3111623535156,1.2548685439139604,2.734568171998858,0.5283996049702168
1758278202241246200,202.32124609375,1.903930418050289,2.9197102198600766,0.9086796095281838
1758278202251331300,202.33133129882813,2.6804364765778184,2.967021421611309,1.4811451507180928
1758278202261415200,202.34141528320316,2.8185370795398947,2.2978484873384235,2.2929303201586007
1758278202271499500,202.35149951171877,2.8062288021087647,1.5060253249526023,2.585647776597738
1758278202281584400,202.36158447265623,2.606841955795884,1.14043260191679,2.301472230793536
1758278202291668500,202.3716684570313,2.26255096398592,1.1653092690199611,1.5799153215497732
1758278202301752300,202.38175244140623,1.8834648453876373,1.5518623624980448,0.0317328166082501
1758278202311837200,202.39183715820312,1.3715879206731916,2.372695930790901,-1.699070693284273
1758278202321921300,202.40192138671875,0.5784703345626593,3.499228602170944,-3.0214672975480554
1758278202332006100,202.41200610351564,0.0709083504378795,4.580526293551921,-3.827281575885415
1758278202342090500,202.42209057617188,-0.2778235464289784,5.1188487421214575,-3.7240491649478673
1758278202352174300,202.43217431640625,-0.5777686160340905,4.925301269486546,-2.753459042690694
1758278202362259500,202.4422595214844,-1.2971455508902667,4.164843551701307,-1.604454719522595
1758278202372343300,202.45234326171877,-1.9964602331876755,3.222835088545084,-0.7897352501958608
1758278202382427100,202.4624272460937,-2.554306881916523,2.263469832396507,-0.5695777107939124
1758278202392512300,202.4725122070313,-2.9756828669726847,1.3254817107975485,-0.9292131328605114
1758278202402596400,202.48259643554687,-3.129750562134385,0.2730710912048816,-1.5723410869032144
1758278202412680400,202.49268041992187,-3.2568738440081475,-0.7332756963491439,-2.094039732930064
1758278202422765300,202.5027653808594,-3.167442287147045,-1.614158951935172,-2.3346948475681244
1758278202432849400,202.5128493652344,-2.8758509121283886,-2.4157658417105674,-2.009559807126969
1758278202442933200,202.5229333496094,-2.5591098982840776,-3.148601393076777,-1.2898144773498177
1758278202453018000,202.53301806640624,-2.2840768593564627,-3.762018537858128,-0.3408934583261609
1758278202463102500,202.5431025390625,-2.019884947916865,-4.307017979973554,0.5808566451773047
1758278202473186300,202.55318627929688,-1.8770453337341544,-4.803749942526221,1.30057625599131
1758278202483271400,202.563271484375,-1.9431582665890452,-5.23691865670681,1.7912107784517108
1758278202493355300,202.57335522460937,-1.974287125954777,-5.658679257166385,2.09428567051515
1758278202503439000,202.5834392089844,-1.8655699999958275,-6.024942426809668,2.294217583490163
1758278202513524200,202.59352416992184,-1.7084160292565822,-6.216551624858379,2.356763325382769
1758278202523608300,202.6036083984375,-1.5099515584856271,-6.229298293706775,2.298299299845844
1758278202533693400,202.613693359375,-1.0741206393584608,-6.179931912991404,2.293555758580565
1758278202543777300,202.62377734375,-0.4202610095515847,-6.067663378161192,2.2352102448567748
1758278202553861400,202.633861328125,0.1927963620066642,-5.912701364508271,1.9671870846912265
1758278202563946200,202.6439462890625,0.4681096791803836,-5.498834732168913,1.5975822034046052
1758278202574030300,202.6540302734375,0.6454774397782981,-4.728492749229074,1.1968893792845308
1758278202584114400,202.66411450195312,0.8757545143954455,-3.641045887568593,0.9567125496827066
1758278202594199300,202.67419921875,1.2322139367744327,-2.115935338395834,1.0179746815055608
1758278202604283400,202.6842834472656,1.4756117742493748,-0.4383323805540799,1.144678130532056
1758278202614367200,202.6943671875,1.6557029684618114,1.0775473989367483,1.2294012174412607
1758278202624452400,202.70445239257813,1.8841870221823451,2.1799153508752585,1.511049875116348
1758278202634536200,202.7145361328125,1.7402534752830865,2.6439631874442098,1.878264061874151
1758278202644620500,202.72462060546877,1.5748320269361138,2.4599720631837845,2.0647518252559003
1758278202654705400,202.73470532226565,1.6829864044457674,1.950937668418884,2.0106065397009254
1758278202664789200,202.74478930664063,1.825614713965356,1.4215648345023393,1.7904536764740944
1758278202674873300,202.75487329101563,1.9063669975474475,0.9819365689188242,1.5496246665738522
1758278202684958200,202.76495825195312,1.8890692412659524,0.6295090324044227,1.430519125330448
1758278202695042300,202.7750422363281,1.7536624074324965,0.3861749078154564,1.4209867423534392
1758278202705126400,202.78512646484376,1.5330542016535995,0.4269605071902275,1.5121069829538465
1758278202715211300,202.79521118164064,1.532939635363221,0.8430617667138576,1.6996252584271132
1758278202725295400,202.80529541015625,1.6222648092404006,1.61024616240561,1.985150757535547
1758278202735379200,202.8153791503906,1.6368495071709157,2.6345868718117478,2.257818090245128
1758278202745464300,202.82546435546877,1.3049585627287623,3.9771097337812185,2.363171731120348
1758278202755548200,202.83554809570316,1.0905039111435413,5.553639504545926,2.375437922975421
1758278202765633300,202.8456333007813,0.7762219808891415,6.978938849401474,2.33150964166075
1758278202775717400,202.85571728515623,0.2566600546300411,7.817895518884062,2.159768196512013
1758278202785801500,202.86580151367187,-0.2352151155412197,7.342633045339584,1.7576368640214204
1758278202795886300,202.87588623046875,-0.3157759682044386,5.528767513617873,1.2569140782669186
1758278202805970200,202.88597021484372,0.041453415633738,3.219049140265584,0.6877215673983097
1758278202816054300,202.89605419921875,0.3581602349475026,1.1033645617604255,0.0574610590394586
1758278202826139100,202.90613916015624,0.4878036829486489,-0.5592021549910307,-0.4835330198921262
1758278202836223500,202.91622338867188,0.5081698868900537,-1.6555822646915912,-0.9078566027075052
1758278202846307300,202.92630737304688,0.4093393641732633,-2.1179051771640776,-1.3137731528252363
1758278202856392400,202.9363923339844,0.3079614950612187,-1.9437749371826647,-1.5802452841565011
1758278202866476300,202.94647631835937,0.2297483745679259,-1.1563994018554686,-1.603738972468674
1758278202876560100,202.9565600585937,0.0887478123806417,-0.0098252284437417,-1.4500969553731382
1758278202886645200,202.96664526367184,-0.153209178636223,1.205953998619318,-1.1934450109843164
1758278202896729300,202.9767292480469,-0.5406940000064671,2.300453116878867,-0.90243231263645
1758278202906813400,202.9868134765625,-0.962387818840146,3.087586660143733,-0.6570010696377605
1758278202916898300,202.99689819335936,-1.2221185130871832,3.4115333675831554,-0.3991098292449489
1758278202926982400,203.006982421875,-1.2834259453564882,3.188969643822312,-0.1518168109623715
1758278202937066200,203.0170661621094,-1.100055729473382,2.514900754201412,-0.1197047492455691
1758278202947151400,203.0271513671875,-0.8000504541136324,1.5398229651361703,-0.2404374167667701
