time,seconds_elapsed,z,y,x
1759585037261522400,0.0275224609375,2.291400626373291,9.31464155883789,-1.3530232131958007
1759585037271506400,0.03750634765625,2.3843255783081054,9.30910496749878,-1.1493664344787597
1759585037281490700,0.04749072265625,2.438195115661621,9.406519047546386,-1.0027215827941893
1759585037291475500,0.057475341796875,2.504484574127197,9.41654476699829,-1.088463929748535
1759585037301459500,0.06745947265625,2.544737089538574,9.372850586700439,-1.3027449783325196
1759585037311443500,0.077443359375,2.540247961425781,9.349058207702637,-1.4737807594299315
1759585037321428500,0.087428466796875,2.4301146850585935,9.30207200012207,-1.5562310791015623
1759585037331412500,0.09741259765625,2.3177368446350095,9.310750981140137,-1.6448165405273436
1759585037341396500,0.107396484375,2.2788310676574706,9.23847601852417,-1.6597803009033203
1759585037351381500,0.117381591796875,2.3478140029907224,9.191040898132323,-1.5078981330871581
1759585037361365500,0.127365478515625,2.456750178527832,9.291148455047606,-1.2859855667114257
1759585037371349500,0.137349609375,2.546233465576172,9.45485199356079,-1.0380360572814942
1759585037381334500,0.14733447265625,2.5725696838378904,9.635015668487549,-0.7187094108581542
1759585037391318500,0.157318603515625,2.5080758766174314,9.554361000061034,-0.7990648040771484
1759585037401302500,0.167302490234375,2.3383868339538574,9.249698838806152,-1.138293251800537
1759585037411287600,0.17728759765625,2.2623709312438964,9.138967012023926,-1.3078326568603516
1759585037421271600,0.187271484375,2.343624150085449,9.176526050567626,-1.3667898727416992
1759585037431255600,0.197255615234375,2.4907179145812988,9.305064752197264,-1.3129203353881835
1759585037441240600,0.207240478515625,2.568828743743896,9.377938265228272,-1.2306196533203124
1759585037451224600,0.217224609375,2.574963885498047,9.378836090850829,-1.2961609237670897
1759585037461206800,0.227206787109375,2.511367903900146,9.389609998321532,-1.6298527801513671
1759585037471191600,0.237191650390625,2.5381530349731443,9.401132093811034,-1.7290625114440916
1759585037481175600,0.247175537109375,2.544886727142334,9.478195459747313,-1.513584362030029
1759585037491159600,0.25715966796875,2.581996852874756,9.489867192840576,-1.2972083869934081
1759585037501144600,0.26714453125,2.569576931762695,9.427318674468994,-1.07245270614624
1759585037511128600,0.277128662109375,2.513612467956543,9.322721989440918,-0.9472060317993164
1759585037521112600,0.287112548828125,2.5185505088806153,9.275735781860352,-0.977432827758789
1759585037531097600,0.29709765625,2.5315689804077146,9.39095673675537,-1.1546037506103515
1759585037541081600,0.30708154296875,2.616114226531982,9.50587841644287,-1.3569137908935547
1759585037551065600,0.317065673828125,2.6554689163208005,9.500790737915038,-1.5894506271362303
1759585037561050600,0.327050537109375,2.639457692718506,9.444676636505127,-1.6726491348266601
1759585037571034600,0.33703466796875,2.5807997520446775,9.300425986480713,-1.5910966407775877
1759585037581018600,0.3470185546875,2.574963885498047,9.172036922454833,-1.3823521835327148
1759585037591003600,0.357003662109375,2.4953566802978515,9.156624249267578,-1.159392153930664
1759585037600987600,0.366987548828125,2.5616461387634275,9.208099584960937,-1.0462661254882812
1759585037610971600,0.3769716796875,2.647538123321533,9.306710765838622,-1.0130465774536133
1759585037620956700,0.386956787109375,2.634070738983154,9.392303475189209,-1.2093711135864258
1759585037630940700,0.396940673828125,2.4984990699768064,9.375394425964355,-1.5378256538391113
1759585037640924700,0.406924560546875,2.485330960845947,9.295039032745361,-1.6683096443176268
1759585037650909700,0.41690966796875,2.533813544464111,9.298480697631835,-1.5544354278564452
1759585037660893700,0.426893798828125,2.5827450408935544,9.340977777099608,-1.382801096343994
1759585037670878700,0.436878662109375,2.6337714637756346,9.313294820404051,-1.258452247619629
1759585037680862700,0.44686279296875,2.581099027252197,9.268852452087401,-1.0748469078063965
1759585037690846700,0.4568466796875,2.5287258659362792,9.213935451507568,-1.0119991142272948
1759585037700831700,0.466831787109375,2.5112182662963867,9.189694159698485,-1.118541088104248
1759585037710815700,0.476815673828125,2.5213936233520506,9.284714038085937,-1.2280758140563963
1759585037720799700,0.4867998046875,2.598905902099609,9.421632445526123,-1.3193547523498534
1759585037730784800,0.49678466796875,2.6186580657958984,9.510816457366943,-1.3825018211364746
1759585037740768800,0.506768798828125,2.6363153030395505,9.485826977539062,-1.3953706550598144
1759585037750752800,0.516752685546875,2.546233465576172,9.37210239868164,-1.3651438591003417
1759585037760737500,0.526737548828125,2.5234885498046875,9.310302068328857,-1.2737152832031249
1759585037770721800,0.5367216796875,2.6171616897583005,9.306860403442382,-1.2219406723022461
1759585037780705800,0.546705810546875,2.5317186180114746,9.26361513595581,-1.35347212600708
1759585037790690600,0.556690673828125,2.55386498336792,9.245359348297118,-1.4685434432983397
1759585037800674600,0.566674560546875,2.5803508392333985,9.314043008422852,-1.488145969390869
1759585037810658800,0.576658935546875,2.6226982810974118,9.387814347076416,-1.4885948822021484
1759585037820643600,0.5866435546875,2.7105355545043945,9.455001631164551,-1.488295606994629
1759585037830627600,0.596627685546875,2.7569232116699216,9.43569838027954,-1.4044985488891601
1759585037840611600,0.606611572265625,2.704998963165283,9.318232861328125,-1.3455413330078123
1759585037850596600,0.6165966796875,2.501342184448242,9.158569538116454,-1.4393641105651855
1759585037860580600,0.62658056640625,2.3687632675170898,9.133131145477295,-1.4036007232666015
1759585037870564600,0.636564697265625,2.3612813873291016,9.28351693725586,-1.2409446479797364
1759585037880549600,0.646549560546875,2.494907767486572,9.378836090850829,-1.214907704925537
1759585037890533600,0.65653369140625,2.7219080123901365,9.378836090850829,-1.3211504035949706
1759585037900517600,0.666517578125,2.712780118560791,9.347861106872559,-1.4200608596801756
1759585037910502700,0.676502685546875,2.6322750877380368,9.27648396987915,-1.449838742828369
1759585037920486700,0.686486572265625,2.5975591636657716,9.238775293731688,-1.4733318466186522
1759585037930470700,0.696470703125,2.5412954246520996,9.241917683410644,-1.4438532386779783
1759585037940455700,0.70645556640625,2.5239374626159665,9.258377819824219,-1.3627496574401854
1759585037950439700,0.716439697265625,2.5469816535949708,9.284714038085937,-1.295412735748291
1759585037960423700,0.726423583984375,2.5380033973693847,9.267505713653565,-1.2840402778625488
1759585037970408700,0.73640869140625,2.5309704299926756,9.230545225524901,-1.3661913223266602
1759585037980392700,0.746392822265625,2.4932617538452146,9.208997410583496,-1.502960092163086
1759585037990376700,0.756376708984375,2.447622284698486,9.200916979980468,-1.5755343299865723
1759585038000361700,0.76636181640625,2.4335563499450683,9.399635717773437,-1.594837580871582
1759585038010345700,0.776345703125,2.4105121589660645,9.505429503631591,-1.507449220275879
1759585038020329700,0.786329833984375,2.423530630493164,9.5262291305542,-1.3441945945739746
1759585038030314800,0.796314697265625,2.4848820480346676,9.543437454986572,-1.1780968544006347
1759585038040298800,0.806298828125,2.5321675308227536,9.452008879089355,-1.2246341491699217
1759585038050282800,0.81628271484375,2.50912333984375,9.335740460968017,-1.4654010536193847
1759585038060267800,0.826267822265625,2.5246856506347655,9.318981049346924,-1.599177071380615
1759585038070251800,0.836251708984375,2.56014976272583,9.309853155517578,-1.5625158584594725
1759585038080235800,0.84623583984375,2.5103204406738278,9.247903187561034,-1.5031097297668456
1759585038090220800,0.856220703125,2.4296657722473145,9.205106832885741,-1.4555249717712402
1759585038100204800,0.866204833984375,2.457199091339111,9.147047442626953,-1.363647483062744
1759585038110188800,0.876188720703125,2.511367903900146,9.234884716033935,-1.2249334243774412
1759585038120173600,0.886173583984375,2.568978381347656,9.428066862487793,-1.1709142494201659
1759585038130157800,0.89615771484375,2.621501180267334,9.53790086364746,-1.2891279563903808
1759585038140142600,0.906142578125,2.625691033172607,9.494505958557129,-1.5885528015136718
1759585038150126600,0.916126708984375,2.517503045654297,9.431957440185545,-1.822137100982666
1759585038160110600,0.926110595703125,2.428019758605957,9.35309842300415,-1.7586907569885253
1759585038170095600,0.936095703125,2.4534581512451172,9.291447730255127,-1.5676035369873047
1759585038180079600,0.94607958984375,2.504634211730957,9.319878874969483,-1.3033435287475585
1759585038190063600,0.956063720703125,2.602946117401123,9.361777404022217,-1.0666168395996094
1759585038200048600,0.966048583984375,2.677615281677246,9.318232861328125,-1.064970825958252
1759585038210032600,0.97603271484375,2.6134207496643067,9.250147751617432,-1.3386580032348632
1759585038220016600,0.9860166015625,2.597708801269531,9.243114784240722,-1.6398784996032714
1759585038230001700,0.996001708984375,2.6370634910583495,9.33349589691162,-1.7378911300659179
1759585038239985700,1.005985595703125,2.6089316215515135,9.368361458587646,-1.6121955429077148
1759585038249969700,1.0159697265625,2.5849896049499512,9.274389043426513,-1.46195938873291
1759585038259954700,1.02595458984375,2.5116671791076657,9.125349990081787,-1.4004583335876464
1759585038269938700,1.035938720703125,2.4609400314331054,9.175029674530029,-1.2484265281677245
1759585038279922700,1.045922607421875,2.568379830932617,9.32032778778076,-1.1891700370788574
1759585038289907700,1.05590771484375,2.714725407409668,9.441085334014891,-1.2572551467895507
1759585038299891700,1.0658916015625,2.7350761215209958,9.478494734954834,-1.3857938484191894
1759585038309875700,1.075875732421875,2.5903765586853025,9.338882850646971,-1.58960026473999
1759585038319860700,1.08586083984375,2.476352704620361,9.194332925415038,-1.636885747528076
1759585038329844700,1.0958447265625,2.4453777206420897,9.21154124984741,-1.4698901817321777
1759585038339828700,1.105828857421875,2.5151088439941405,9.262717310333251,-1.308131932067871
1759585038349813800,1.115813720703125,2.6158149513244626,9.318981049346924,-1.1662754837036131
1759585038359797800,1.1257978515625,2.634818927001953,9.427468312072753,-1.0504559783935545
1759585038369781800,1.13578173828125,2.5751135231018063,9.391106374359131,-1.159990704345703
1759585038379766800,1.145766845703125,2.479644731903076,9.347262556457519,-1.408987677001953
1759585038389750800,1.155750732421875,2.4898200889587403,9.349656758117675,-1.6092027908325195
1759585038399734800,1.16573486328125,2.5947160491943357,9.39035818634033,-1.6615759521484375
1759585038409719800,1.1757197265625,2.636016027832031,9.402628469848633,-1.5544354278564452
1759585038419703800,1.185703857421875,2.6363153030395505,9.377489352416992,-1.4092869522094726
1759585038429687600,1.1956875,2.4779987182617185,9.21887349243164,-1.3896844261169432
1759585038439672800,1.2056728515625,2.3523031311035156,9.1416604888916,-1.377713417816162
1759585038449656800,1.21565673828125,2.397942600250244,9.236381092071532,-1.2835913650512694
1759585038459640600,1.225640625,2.5213936233520506,9.329006768798827,-1.2445359504699707
1759585038469627100,1.235627197265625,2.61117618560791,9.457395832824707,-1.3063362808227539
1759585038479611100,1.245611083984375,2.694823606109619,9.551966798400878,-1.4628572143554686
1759585038489595100,1.25559521484375,2.614318575286865,9.432855265808104,-1.6692074699401855
1759585038499580200,1.265580078125,2.4513632247924804,9.265859700012207,-1.6617255897521972
1759585038509564200,1.275564208984375,2.4343045379638673,9.281272373199462,-1.4999673400878906
1759585038519549200,1.285549072265625,2.4992472579956053,9.285611863708496,-1.3524246627807617
1759585038529533200,1.295533203125,2.5641899780273434,9.297732509613036,-1.2256816123962402
1759585038539517200,1.30551708984375,2.6223990058898923,9.369857834625243,-1.1501146224975585
1759585038549502200,1.315502197265625,2.590226921081543,9.481936399841308,-1.1667243965148926
1759585038559486200,1.325486328125,2.549226217651367,9.43016178894043,-1.399410870361328
1759585038569470200,1.33547021484375,2.47725053024292,9.30177272491455,-1.6511013198852538
1759585038579455200,1.345455322265625,2.4631845954895017,9.260023833465576,-1.6466121917724608
1759585038589439200,1.355439208984375,2.510918991088867,9.329006768798827,-1.4695909065246582
1759585038599423200,1.36542333984375,2.59202257232666,9.367912545776367,-1.3213000411987303
1759585038609408300,1.375408203125,2.608781983947754,9.375843338775635,-1.149216796875
1759585038619392300,1.385392333984375,2.5189994216918943,9.2963857711792,-1.0809820495605469
1759585038629376300,1.395376220703125,2.3880665184020993,9.137171360778808,-1.2184990074157713
1759585038639361000,1.405361083984375,2.4247277313232423,9.21273835067749,-1.3584101669311524
1759585038649345300,1.41534521484375,2.507327688598633,9.413103102111815,-1.4636054023742675
1759585038659329300,1.425329345703125,2.553266432952881,9.511415007781983,-1.5269021087646484
1759585038669314000,1.43531396484375,2.4691700996398924,9.48088893661499,-1.4718354705810546
1759585038679298000,1.445298095703125,2.371157469177246,9.409661437225342,-1.369483349609375
1759585038689282300,1.4552822265625,2.377142973327637,9.36626653213501,-1.252017830657959
1759585038699267000,1.46526708984375,2.4070704940795897,9.374945513153076,-1.2678794166564942
1759585038709251000,1.4752509765625,2.436100189208984,9.345317267608642,-1.4000094207763671
1759585038719235000,1.485235107421875,2.513313192749023,9.278878171539306,-1.409137314605713
1759585038729220000,1.49522021484375,2.569576931762695,9.319130686950682,-1.3344681503295899
1759585038739204000,1.5052041015625,2.611774736022949,9.354295523834228,-1.2446855880737304
1759585038749188000,1.51518798828125,2.5960627876281737,9.325864379119873,-1.2485761657714842
1759585038759173000,1.525173095703125,2.5082255142211913,9.330054232025146,-1.2363058822631836
1759585038769157000,1.5351572265625,2.492214290618896,9.336488648986816,-1.2716203567504882
1759585038779141000,1.54514111328125,2.3910592704772946,9.271097016143798,-1.4010568840026854
1759585038789126100,1.555126220703125,2.312499528503418,9.217227478790283,-1.5671546241760252
1759585038799110100,1.565110107421875,2.3587375480651853,9.316886122894287,-1.5300444984436035
1759585038809094100,1.57509423828125,2.4534581512451172,9.496900160217285,-1.3825018211364746
1759585038819079200,1.5850791015625,2.5363573837280273,9.547328032684325,-1.2874819427490234
1759585038829063200,1.595063232421875,2.5483283920288082,9.479991110992431,-1.271021806335449
1759585038839047200,1.605047119140625,2.458695467376709,9.35309842300415,-1.2569558715820313
1759585038849032200,1.6150322265625,2.4091654205322266,9.248651375579833,-1.3045406295776367
1759585038859016200,1.62501611328125,2.3451205261230466,9.253290141296386,-1.3588590797424316
1759585038869000200,1.635000244140625,2.351854218292236,9.281272373199462,-1.3666402351379394
1759585038878985200,1.644985107421875,2.4830863967895507,9.355043711853027,-1.335515613555908
1759585038888969200,1.65496923828125,2.5897780082702635,9.497498710632323,-1.2876315803527831
1759585038898954200,1.664954345703125,2.652476164245605,9.520842176818848,-1.2541127571105957
1759585038908938200,1.674938232421875,2.612522924041748,9.395595502471924,-1.3265373573303223
1759585038918922200,1.684922119140625,2.4965537811279295,9.252990866088867,-1.496525675201416
1759585038928907300,1.6949072265625,2.3341969810485836,9.172485835266112,-1.541716231536865
1759585038938891300,1.704891357421875,2.385223403930664,9.172485835266112,-1.3944728294372557
1759585038948875300,1.714875244140625,2.4570494537353516,9.288305340576171,-1.1555015762329102
1759585038958860000,1.724860107421875,2.51540811920166,9.407566510772705,-0.9377788627624511
1759585038968844300,1.73484423828125,2.5674820053100587,9.41684404220581,-0.9479542198181152
1759585038978828300,1.744828369140625,2.5942671363830563,9.432705628204346,-1.2041337974548338
1759585038988813000,1.75481298828125,2.54099614944458,9.409062886810302,-1.5465046348571776
1759585038998797000,1.764797119140625,2.4437317070007323,9.345167630004882,-1.697488977050781
1759585039008781300,1.77478125,2.4359505516052247,9.320627062988281,-1.539322029876709
1759585039018766000,1.78476611328125,2.4806921951293943,9.305513665008544,-1.2835913650512694
1759585039028750000,1.79475,2.4856302360534666,9.297582872009277,-1.0485106895446776
1759585039038734000,1.804734130859375,2.5278280403137208,9.276633607482909,-0.9187748870849609
1759585039048719000,1.814718994140625,2.544886727142334,9.23189196395874,-1.0811316871643066
1759585039058703000,1.824703125,2.47710089263916,9.248501737976074,-1.3670891479492187
1759585039068687000,1.83468701171875,2.4660277099609376,9.361178853607177,-1.5610194824218748
1759585039078672100,1.844672119140625,2.5095722526550293,9.434650917053222,-1.5746365043640136
1759585039088656100,1.85465625,2.539499773406982,9.468319377899169,-1.3971663063049315
1759585039098640100,1.86464013671875,2.518101596069336,9.449465039825439,-1.2131120536804199
1759585039108625200,1.874625244140625,2.531868255615234,9.375394425964355,-1.092354507446289
1759585039118609200,1.884609130859375,2.56000012512207,9.354744436645507,-1.121084927368164
1759585039128593200,1.89459326171875,2.529474053955078,9.2573303565979,-1.318307289123535
1759585039138578200,1.904578125,2.442833881378174,9.148992731475829,-1.5699977386474608
1759585039148562200,1.914562255859375,2.379836450195312,9.206603208923338,-1.6826748542785643
1759585039158546200,1.924546142578125,2.504484574127197,9.357737188720703,-1.5750854171752928
1759585039168531200,1.93453125,2.6420015319824217,9.443928448486327,-1.3302782974243164
1759585039178515200,1.94451513671875,2.627935597229004,9.449764315032958,-1.1387421646118163
1759585039188499200,1.954499267578125,2.563441790008545,9.335890098571777,-1.0913070442199706
1759585039198484200,1.964484130859375,2.507926239013672,9.255385067749023,-1.1273697067260742
1759585039208468200,1.97446826171875,2.512265729522705,9.260772021484375,-1.1975497428894042
1759585039218452200,1.9844521484375,2.6008511909484864,9.280075272369384,-1.2861352043151855
1759585039228437200,1.994437255859375,2.645143921661377,9.307010041046142,-1.369483349609375
1759585039238421200,2.004421142578125,2.5936685859680173,9.30192236251831,-1.562815133666992
1759585039248406300,2.01440625,2.5010429092407227,9.217676391601563,-1.7536030784606933
1759585039258390300,2.024390380859375,2.4392425788879395,9.216628928375243,-1.6632219657897949
1759585039268374300,2.034374267578125,2.544737089538574,9.254786517333983,-1.4244003501892089
1759585039278359300,2.044359375,2.6722283279418946,9.286958602142333,-1.1864765602111815
1759585039288343300,2.05434326171875,2.767547481536865,9.31419264602661,-1.122431665802002
1759585039298327300,2.064327392578125,2.821117743682861,9.34082813949585,-1.1082160934448242
1759585039308312000,2.07431201171875,2.7467478546142576,9.387215796661376,-1.247528702545166
1759585039318296300,2.08429638671875,2.6619033332824706,9.493907408142089,-1.3404536544799803
1759585039328280300,2.0942802734375,2.633472188568115,9.560047229003906,-1.4317325927734375
1759585039338265000,2.10426513671875,2.5240871002197265,9.462633148956298,-1.5432126075744628
1759585039348249000,2.1142490234375,2.4492682983398435,9.279775997161865,-1.573140128326416
1759585039358233000,2.124233154296875,2.4788965438842774,9.221716606903076,-1.396867031097412
1759585039368218000,2.134218017578125,2.637961316680908,9.2565821685791,-1.1496657096862792
1759585039378202000,2.1442021484375,2.7724855224609373,9.296535408782958,-1.0871171913146973
1759585039388186000,2.15418603515625,2.8069021713256834,9.303418738555907,-1.2033856094360351
1759585039398171100,2.164171142578125,2.7875989204406735,9.285911138916015,-1.4411597618103027
1759585039408155100,2.174155029296875,2.6927286796569825,9.261370571899414,-1.7696143020629882
1759585039418139100,2.18413916015625,2.4965537811279295,9.216479290771483,-1.9298761756896972
1759585039428124200,2.194124267578125,2.4729110397338867,9.171139096832276,-1.7227777320861815
1759585039438108200,2.204108154296875,2.6048914062499997,9.246107536315918,-1.3542203140258788
1759585039448092200,2.214092041015625,2.6816554969787596,9.311349531555175,-1.0007762939453124
1759585039458077200,2.2240771484375,2.67492180480957,9.363124142456055,-0.8614636848449706
1759585039468061000,2.23406103515625,2.740014162445068,9.350554583740234,-1.0660182891845702
1759585039478044700,2.244044677734375,2.7129297561645505,9.396642965698241,-1.3771148674011229
1759585039488030000,2.254030029296875,2.6390087799072264,9.43599765548706,-1.6027683738708496
1759585039498014000,2.264013916015625,2.5576059234619137,9.402478832244872,-1.7399860565185545
1759585039507997700,2.273997802734375,2.495057405090332,9.336787924194335,-1.776647269439697
1759585039517983000,2.28398291015625,2.4984990699768064,9.334842635345458,-1.5260042831420897
1759585039527967000,2.293967041015625,2.531269705200195,9.35908392715454,-1.2445359504699707
1759585039537950700,2.30395068359375,2.620304079437256,9.343970529174804,-1.0950479843139649
1759585039547936000,2.31393603515625,2.688987739562988,9.3346929977417,-1.0911574066162109
1759585039557920000,2.323919921875,2.759467050933838,9.361178853607177,-1.2116156776428222
1759585039567905000,2.333905029296875,2.765003642272949,9.400832818603515,-1.342698218536377
1759585039577889000,2.343888916015625,2.6933272300720215,9.376292251586914,-1.422455061340332
1759585039587873000,2.353873046875,2.6226982810974118,9.343820891571044,-1.4501380180358885
1759585039597858000,2.363858154296875,2.5980080764770506,9.329605319213867,-1.4305354919433593
1759585039607842000,2.373842041015625,2.5330653564453125,9.281870923614502,-1.4787188003540037
1759585039617826000,2.383825927734375,2.5311200675964356,9.193734375,-1.4736311218261717
1759585039627811000,2.39381103515625,2.561496501159668,9.215132552337646,-1.3600561805725098
1759585039637795000,2.403795166015625,2.655169641113281,9.28246947402954,-1.2767080352783202
1759585039647778800,2.41377880859375,2.682702960205078,9.30162308731079,-1.2297218276977537
1759585039657763800,2.423763916015625,2.6659435485839844,9.304915114593506,-1.1767501159667968
1759585039667748000,2.433748046875,2.606687057495117,9.299677798461914,-1.1526584617614746
1759585039677731800,2.44373193359375,2.5739164222717283,9.278578896331787,-1.1646294700622557
1759585039687716900,2.453716796875,2.5924714851379393,9.25089593963623,-1.2544120323181152
1759585039697700900,2.463700927734375,2.6095301719665525,9.243563697052002,-1.3742717529296875
1759585039707684900,2.473684814453125,2.6493337745666503,9.260622383880614,-1.5394716674804687
1759585039717670000,2.483669921875,2.6720786903381346,9.331101695251464,-1.6479589302062987
1759585039727654000,2.49365380859375,2.63661457824707,9.364919793701171,-1.5785270820617674
1759585039737637600,2.5036376953125,2.623296831512451,9.386168333435059,-1.3914800773620604
1759585039747623000,2.513622802734375,2.627935597229004,9.383025943756103,-1.2029366966247559
1759585039757607000,2.52360693359375,2.560598675537109,9.323470177459717,-1.1376947013854979
1759585039767590700,2.533590576171875,2.5417443374633786,9.253589416503905,-1.1658265708923339
1759585039777576000,2.543575927734375,2.553266432952881,9.274089768218994,-1.283890640258789
1759585039787560000,2.553559814453125,2.546233465576172,9.274538681030274,-1.4818611900329588
1759585039797543700,2.563543701171875,2.5845406921386718,9.248202462768553,-1.5560814414978026
1759585039807529000,2.573529052734375,2.620902629852295,9.305364027404785,-1.5304934112548827
1759585039817512700,2.5835126953125,2.6611551452636717,9.304765476989745,-1.5084966835021971
1759585039827496700,2.59349658203125,2.66220260848999,9.472808506011962,-1.2897265068054198
1759585039837482000,2.60348193359375,2.671779415130615,9.522338552856445,-1.1501146224975585
1759585039847465700,2.6134658203125,2.604143218231201,9.399336442565918,-1.173458088684082
1759585039857451000,2.623450927734375,2.5393501358032227,9.202562993621825,-1.3090297576904295
1759585039867435000,2.63343505859375,2.5112182662963867,9.12983911819458,-1.3949217422485352
1759585039877418800,2.643418701171875,2.565387078857422,9.099462684631348,-1.3819032707214354
1759585039887404000,2.653404052734375,2.607884158325195,9.133280783081053,-1.2713210815429687
1759585039897388000,2.663387939453125,2.621501180267334,9.26989991531372,-1.2126631408691406
1759585039907371800,2.673371826171875,2.680009483337402,9.345466905212401,-1.2606968116760253
1759585039917357000,2.683357177734375,2.70065947265625,9.368361458587646,-1.3557166900634765
1759585039927341000,2.693341064453125,2.674323254394531,9.373898049926757,-1.4990695144653319
1759585039937324800,2.70332470703125,2.6050410438537597,9.296834683990477,-1.577629256439209
1759585039947310000,2.71331005859375,2.600402278137207,9.235034353637694,-1.5562310791015623
1759585039957293800,2.7232939453125,2.6514287010192867,9.222015882110595,-1.4233528869628906
1759585039967277800,2.73327783203125,2.6695348510742187,9.276184694671631,-1.2651859397888183
1759585039977262800,2.743262939453125,2.652027251434326,9.354295523834228,-1.1807903312683106
1759585039987246800,2.753246826171875,2.5923218475341794,9.338882850646971,-1.2855366539001465
1759585039997230800,2.76323095703125,2.5754127983093262,9.294739757537842,-1.4362217208862305
1759585040007215900,2.7732158203125,2.614917125701904,9.253888691711426,-1.5158289260864257
1759585040017199900,2.783199951171875,2.645742472076416,9.279327084350586,-1.4456488899230957
1759585040027183900,2.793183837890625,2.6693852134704588,9.290400267028808,-1.3744213905334473
1759585040037169000,2.8031689453125,2.699163096618652,9.330353507232665,-1.3379098152160644
1759585040047152600,2.813152587890625,2.694973243713379,9.264961874389648,-1.3908815269470214
1759585040057137000,2.823136962890625,2.673724703979492,9.293841931915283,-1.421108322906494
1759585040067122000,2.833121826171875,2.6611551452636717,9.302670550537108,-1.5824176597595214
1759585040077105700,2.843105712890625,2.6804583961486816,9.24520971069336,-1.7323545387268064
1759585040087089700,2.853089599609375,2.6581623931884764,9.284863675689696,-1.682225941467285
1759585040097075000,2.863074951171875,2.6382605918884274,9.283965850067139,-1.5411176811218261
1759585040107058700,2.87305859375,2.6132711120605467,9.27004955291748,-1.3287819213867187
1759585040117042700,2.883042724609375,2.524386375427246,9.233687615203857,-1.2087725631713866
1759585040127027700,2.89302783203125,2.5245360130310055,9.37210239868164,-1.143380930328369
1759585040137011700,2.90301171875,2.6548703659057615,9.426720124053954,-1.2538134819030762
1759585040146997000,2.9129970703125,2.712181568145752,9.487622628784179,-1.4474445411682129
1759585040156980700,2.922980712890625,2.692279766845703,9.492261394500732,-1.613991194152832
1759585040166964700,2.93296484375,2.718466347503662,9.377788627624511,-1.7287632362365721
1759585040176950000,2.942949951171875,2.7482442306518555,9.280524185180663,-1.7325041763305664
1759585040186933800,2.952933837890625,2.648286311340332,9.18086554107666,-1.661276676940918
1759585040196917800,2.962917724609375,2.5308207923889157,9.113678256988525,-1.4832079284667967
1759585040206903000,2.972903076171875,2.4925135658264157,9.123404701232909,-1.2406453727722166
1759585040216886800,2.98288671875,2.571671858215332,9.219472042846679,-1.1022305892944335
1759585040226870800,2.992870849609375,2.738068873596191,9.456797282409667,-1.0455179374694823
1759585040236856000,3.00285595703125,2.8082489097595214,9.46143604812622,-1.277605860900879
1759585040246839800,3.01283984375,2.722955475616455,9.340977777099608,-1.626710390472412
1759585040256823800,3.02282373046875,2.61117618560791,9.366565807342528,-1.7741034301757812
1759585040266808800,3.032808837890625,2.6554689163208005,9.43016178894043,-1.716792227935791
1759585040276792800,3.042792724609375,2.6683377502441403,9.488071541595458,-1.6039654747009275
1759585040286776800,3.05277685546875,2.671180864715576,9.388113622283935,-1.5708955642700195
1759585040296761900,3.062761962890625,2.666242823791504,9.425523023223876,-1.4541782333374023
1759585040306745900,3.072745849609375,2.7717373344421383,9.838672447204589,-1.2370540702819823
1759585040316729900,3.082729736328125,2.9523499221801757,10.059238275146484,-1.1812392440795898
1759585040326715000,3.09271484375,3.0316578521728514,10.247482380676269,-1.2955623733520507
1759585040336699000,3.102698974609375,2.9625252792358396,10.330980163574218,-1.463904677581787
1759585040346683000,3.112682861328125,2.7925369613647457,10.036343721771239,-1.695693325805664
1759585040356667600,3.122667724609375,2.6135703872680662,9.683348614501952,-1.7143980262756346
1759585040366651600,3.132651611328125,2.439990766906738,9.522937103271484,-1.557128904724121
1759585040376637000,3.142636962890625,2.352602406311035,9.324667278289795,-1.4665981544494628
1759585040386620700,3.15262060546875,2.3645734146118165,9.06609349899292,-1.3702315376281737
1759585040396604700,3.162604736328125,2.305915473937988,8.846724771881103,-1.2204442962646485
1759585040406590000,3.17258984375,2.220472402191162,8.557624921417236,-1.0547954689025878
1759585040416573700,3.18257373046875,2.0784663162231443,8.284237019348144,-0.8450035484313965
1759585040426557700,3.1925576171875,1.860893240356445,8.065317205047608,-0.678007982635498
1759585040436542700,3.202542724609375,1.7790414710998534,7.872284696197509,-0.6253355461120605
1759585040446526700,3.212526611328125,1.758241844177246,7.715763762664794,-0.6290764862060546
1759585040456510700,3.2225107421875,1.7096096229553222,7.535749725341796,-0.8231564582824706
1759585040466494500,3.232494384765625,1.612644455718994,7.415890004730224,-0.9451111053466796
1759585040476478500,3.242478515625,1.4302362167358398,7.418134568786621,-0.9144353965759277
1759585040486462700,3.252462646484375,1.2174515441894531,7.398831317901611,-0.8363245674133301
1759585040496447500,3.262447509765625,1.0758943710327147,7.2450038612365715,-0.7408557762145995
1759585040506431500,3.272431396484375,1.0574889457702636,7.060201420593262,-0.5891232460021972
1759585040516415500,3.28241552734375,0.9867103591918944,6.917447146606445,-0.5178957466125488
1759585040526400500,3.292400390625,0.888697728729248,6.630591860198974,-0.5930138236999511
1759585040536384500,3.302384521484375,0.8779238212585448,6.30168840713501,-0.6988076095581054
1759585040546368500,3.312368408203125,0.7761702507019043,5.880907465362548,-0.6497264755249023
1759585040556353500,3.322353515625,0.7454945419311523,5.469404055023193,-0.5234323379516601
1759585040566337500,3.332337646484375,0.6679822631835937,5.194669414520264,-0.42706572113037106
1759585040576321500,3.342321533203125,0.6057330200195312,4.826710546875,-0.5449801528930663
1759585040586306600,3.352306640625,0.4447229583740234,4.46294153213501,-0.7230489013671875
1759585040596290600,3.36229052734375,0.26605565948486326,4.242525341796875,-0.8066963218688964
1759585040606274600,3.372274658203125,0.02454056701660156,4.075679413604736,-0.8475473876953125
1759585040616259600,3.382259521484375,-0.3124433166503906,3.869628433227539,-0.718260498046875
1759585040626243600,3.39224365234375,-0.7971195152282714,3.4485482162475583,-0.479438882446289
1759585040636228600,3.402228515625,-1.2445359504699707,2.909403929901123,-0.31184476623535157
1759585040646212600,3.412212646484375,-1.6780360885620116,2.4187422271728516,-0.18989011917114257
1759585040656196600,3.422196533203125,-2.1607669982910154,2.1000141311645506,-0.1484405029296875
1759585040666181600,3.432181640625,-2.489221538543701,1.9056348838806152,-0.29089550170898437
1759585040676165600,3.44216552734375,-2.4257751945495603,2.0733786376953125,-0.16879121704101563
1759585040686149600,3.452149658203125,-2.3933038345336914,2.5145102935791015,0.21532851181030271
1759585040696134700,3.462134765625,-2.0307319206237793,3.11560454788208,0.7422025146484375
1759585040706118700,3.47211865234375,-1.7220295440673827,4.154089517974853,1.4193126716613769
1759585040716102700,3.4821025390625,-1.8944120635986328,5.025279647064209,1.7414824325561522
1759585040726087700,3.492087646484375,-2.6306290740966793,5.587168849182128,1.6306009681701659
1759585040736071700,3.50207177734375,-3.3883938995361325,5.826140102386474,0.9380781379699706
1759585040746055700,3.5120556640625,-3.83072265625,6.038026949310303,0.2962824554443359
1759585040756040400,3.52204052734375,-3.922450507354736,6.2846297203063965,0.14694412689208983
1759585040766024700,3.532024658203125,-3.69634808807373,6.626102732086181,0.37978023834228514
1759585040776008700,3.5420087890625,-3.15391177444458,7.05451519165039,0.8352771041870116
1759585040785993500,3.551993408203125,-3.210175513458252,7.552209861755371,1.2159551681518554
1759585040795977500,3.5619775390625,-3.7783494949340817,8.457068451690674,2.301725621032715
1759585040805961700,3.571961669921875,-4.278737641906738,9.02718772201538,3.0259716232299803
1759585040815946500,3.581946533203125,-4.636820427703857,8.985738105773926,2.6069863327026366
1759585040825930500,3.591930419921875,-4.681711708831787,9.185354669189453,2.029085906982422
1759585040835914500,3.60191455078125,-4.774038110351563,9.708487731933593,1.2392986343383787
1759585040845899500,3.6118994140625,-5.013009363555908,10.376021082305908,0.42721535873413086
1759585040855883500,3.621883544921875,-5.224896210479736,10.956465347290038,-0.08858546142578125
1759585040865867500,3.631867431640625,-5.569062699127197,11.469423052978515,-0.16475100173950194
1759585040875852500,3.6418525390625,-5.979817921447753,11.777377241516113,0.2059013427734375
1759585040885836500,3.65183642578125,-6.388328579711914,11.980734745025634,0.7704840217590332
1759585040895820500,3.661820556640625,-6.481103894042969,12.241253813171387,1.3159130874633789
1759585040905805600,3.6718056640625,-6.5014546081542965,12.601281887817382,1.7105074485778808
1759585040915789600,3.68178955078125,-6.715586019134521,13.037325865173338,1.8668787445068358
1759585040925774600,3.691774658203125,-7.116165884399414,13.5477397315979,1.6736965980529783
1759585040935758600,3.701758544921875,-7.7042416671752925,13.9568489402771,1.2330138549804688
1759585040945742600,3.71174267578125,-8.314912728118896,14.013262316894531,1.0205284576416016
1759585040955727600,3.7217275390625,-8.806322618865966,13.814693216705322,1.044470474243164
1759585040965711600,3.731711669921875,-9.234735078430175,13.535768723297119,1.3956699302673339
1759585040975695600,3.741695556640625,-9.613018940734863,13.580360729217528,2.139219183349609
1759585040985680600,3.7516806640625,-9.79961703262329,13.90567287979126,3.1489737335205077
1759585040995664600,3.76166455078125,-9.608230537414551,14.264354216003417,4.041562039947509
1759585041005648600,3.771648681640625,-9.223811533355713,14.72164673309326,4.788552957916259
1759585041015633700,3.781633544921875,-8.904185611724852,14.916325255584717,5.336376225280762
1759585041025617700,3.79161767578125,-8.821735292053223,14.38945125274658,5.310339282226562
1759585041035601700,3.8016015625,-9.24371333465576,13.563302042388916,4.73064320526123
1759585041045586700,3.811586669921875,-9.704746791839598,12.630461220550536,3.9682396141052245
1759585041055570700,3.82157080078125,-9.989507151794433,11.888408343505859,3.299359525299072
1759585041065554700,3.8315546875,-10.045621253204345,11.336844136047363,2.793135511779785
1759585041075539700,3.841539794921875,-9.690980132293701,11.046397547149658,2.549226217651367
1759585041085523700,3.851523681640625,-8.479364454650879,11.44114154586792,2.708889540863037
1759585041095507700,3.8615078125,-6.0784291023254395,12.807482505798339,2.767697119140625
1759585041105492500,3.871492431640625,-3.2058360229492187,15.46953547668457,2.5112182662963867
1759585041115476700,3.881476806640625,-0.5741594856262207,19.226636431884764,2.007238816833496
1759585041125460700,3.891460693359375,0.4643254844665527,21.622783380889892,1.271171443939209
1759585041135445500,3.901445556640625,-0.3145382431030273,22.139781301879882,0.07885901718139648
1759585041145429500,3.911429443359375,-1.8570026626586913,20.024953047943114,-1.6359879219055176
1759585041155414500,3.92141455078125,-4.362085787200927,14.725387673187255,-3.5591304054260253
1759585041165398500,3.9313984375,-6.406883642578125,12.057798110961913,-4.546140039825439
1759585041175382500,3.941382568359375,-6.862530146026611,9.110685504913329,-4.5875896560668945
1759585041185367600,3.951367431640625,-5.776011505126953,6.0610711402893065,-4.068646446228027
1759585041195351600,3.9613515625,-3.4931402221679684,3.8193501983642575,-2.4908675521850583
1759585041205335600,3.97133544921875,-1.2086229255676268,2.4161983879089353,-0.3176806327819824
1759585041215320600,3.981320556640625,-0.5355529838562011,2.3129484413146972,1.8564041122436523
1759585041225304600,3.9913046875,-1.150563535308838,2.982726355743408,3.187729872894287
1759585041235288600,4.00128857421875,-2.0828058067321775,3.800645497894287,3.6447231147766113
1759585041245273600,4.011273681640625,-2.5966613380432126,4.665850122833252,4.009988505554199
1759585041255257600,4.021257568359375,-2.2144868980407715,5.825242276763916,4.7931917236328125
1759585041265241600,4.03124169921875,-0.8143278396606445,7.085939088439941,5.021089794158935
1759585041275226600,4.0412265625,0.2659060218811035,7.7976155319213865,3.748272336578369
1759585041285210600,4.051210693359375,0.31214404144287106,8.609100257110596,2.15777424621582
1759585041295194600,4.061194580078125,-0.13721768264770506,10.143184970855712,0.9950900650024413
1759585041305179600,4.0711796875,-0.5312134933471679,11.707945393371581,0.030226795959472655
1759585041315163600,4.08116357421875,-0.4830301849365234,12.986449079895019,-0.9308955329895019
1759585041325147600,4.091147705078125,-0.17702128524780272,13.47800860824585,-2.015468885040283
1759585041335132700,4.101132568359375,-0.09741408004760742,12.856264364624023,-3.0337527786254883
1759585041345116700,4.11111669921875,-0.19617489852905273,11.382184329986572,-3.6584897743225095
1759585041355101700,4.121101806640625,-0.40895957107543945,10.124779545593261,-3.2761656967163084
1759585041365085700,4.131085693359375,-0.20919337005615232,9.398887529754639,-2.0860978340148923
1759585041375069700,4.141069580078125,0.4342483261108398,9.056965605163574,-0.736067372894287
1759585041385054500,4.151054443359375,1.4354735328674315,9.138518099212646,0.5184942970275879
1759585041395038700,4.161038818359375,2.0594623405456542,9.46083749771118,1.04057989654541
1759585041405022700,4.171022705078125,1.931222914123535,9.809044201660155,0.48108489608764643
1759585041415007500,4.181007568359375,1.7585411193847655,10.128370848083495,-0.5032312614440918
1759585041424991500,4.190991455078125,1.8803461288452148,10.524162310028075,-1.2993033134460448
1759585041434975700,4.200975830078125,2.1883003173828124,10.883142921447753,-1.6702549331665038
1759585041444960500,4.21096044921875,2.6849475242614744,11.010933435058593,-1.994519620513916
1759585041454944500,4.220944580078125,3.153313224029541,10.897807406616211,-2.341678861236572
1759585041464930000,4.230929931640625,3.2525229553222657,10.576984384155272,-2.6013001037597654
1759585041474915000,4.2409150390625,3.0213328575134275,10.171167202758788,-2.659209856414795
1759585041484899000,4.250899169921875,2.5809493896484375,9.445424824523926,-2.4723124893188477
1759585041494883000,4.260883056640625,2.5406968742370606,9.0274869972229,-2.0228011276245117
1759585041504868000,4.2708681640625,3.0364462554931637,8.834005575561523,-1.4950292991638183
1759585041514852000,4.28085205078125,3.678541213226318,8.681524857330322,-1.190666413116455
1759585041524836000,4.290836181640625,4.023605527496338,8.61179373397827,-1.1145008728027344
1759585041534821000,4.300821044921875,4.062212029266357,8.520365158081054,-1.0764929214477539
1759585041544805000,4.31080517578125,3.83700743560791,8.464400694274902,-1.0538976432800293
1759585041554789000,4.3207890625,3.51768078918457,8.527098850250244,-1.1393407150268553
1759585041564774100,4.330774169921875,3.1344588859558105,8.531438340759276,-1.2406453727722166
1759585041574758100,4.340758056640625,3.0967502098083495,8.736890770721436,-1.1872247482299805
1759585041584742100,4.3507421875,3.244442524719238,8.922740674591063,-1.1297639083862303
1759585041594727000,4.360726806640625,3.3726819511413573,8.903736698913574,-1.1878232986450195
1759585041604711200,4.370711181640625,3.3643022453308102,8.805574430847168,-1.3127706977844238
1759585041614696000,4.380696044921875,3.4747347969055173,8.728511064910888,-1.423053611755371
1759585041624680000,4.390679931640625,3.596240531158447,8.651746974182128,-1.6240169136047362
1759585041634664000,4.400663818359375,3.625120588684082,8.598625624847411,-1.8737620742797851
1759585041644649000,4.41064892578125,3.5104981842041014,8.655487914276122,-1.8861819953918455
1759585041654633000,4.420633056640625,3.3264439315795897,8.768613942718506,-1.6629226905822754
1759585041664617000,4.430616943359375,3.2044892845153807,8.8612396194458,-1.345092420196533
1759585041674602000,4.44060205078125,3.127725193786621,8.888473663330078,-1.112854859161377
1759585041684586000,4.4505859375,3.1082723052978514,8.744971201324462,-1.1264718811035155
1759585041694570000,4.460570068359375,3.2977135116577148,8.566603177642822,-1.1608885299682616
1759585041704555000,4.470554931640625,3.623175299835205,8.555230719757079,-1.111508120727539
1759585041714539000,4.4805390625,3.835062146759033,8.502259008026122,-1.1572972274780273
1759585041724523000,4.49052294921875,3.800645497894287,8.351424303436279,-1.2364555198669434
1759585041734508000,4.500508056640625,3.666420567321777,8.343343872833252,-1.2246341491699217
1759585041744492000,4.510491943359375,3.604769874572754,8.499715168762206,-1.1122563087463377
1759585041754476000,4.52047607421875,3.599981471252441,8.782829515075683,-0.9503484214782715
1759585041764461000,4.5304609375,3.534140925598144,8.997858751678466,-0.8945335952758788
1759585041774445000,4.540445068359375,3.3859996978759765,8.985738105773926,-1.0027215827941893
1759585041784429000,4.550428955078125,3.4433109001159665,8.735394394683837,-1.2817957138061522
1759585041794414000,4.5604140625,3.6258687767028808,8.71429549255371,-1.4893430702209471
1759585041804398000,4.570398193359375,3.680785777282715,8.757391122436523,-1.6588824752807616
1759585041814382000,4.580382080078125,3.771765440368652,8.754548007965088,-2.0136732337951657
1759585041824367000,4.5903671875,3.6789901260375975,8.900743946838379,-1.901893943786621
1759585041834351000,4.60035107421875,3.5890579261779783,8.962095364379882,-1.5957354064941405
1759585041844336000,4.610336181640625,3.5763387298583984,8.988132307434082,-1.3536217636108399
1759585041854320000,4.620320068359375,3.5609260566711423,9.011026860809325,-1.1598410667419432
1759585041864304000,4.63030419921875,3.587411912536621,9.034968877410888,-1.1177929000854492
1759585041874289200,4.6402890625,3.5612253318786617,8.923039949798584,-1.2840402778625488
1759585041884273200,4.650273193359375,3.6131495803833005,8.789563207244873,-1.5556325286865234
1759585041894257200,4.660257080078125,3.67749375,8.758139310455322,-1.828421880340576
1759585041904242000,4.670241943359375,3.735553140258789,8.735843307495117,-1.9437924728393554
1759585041914226200,4.68022607421875,3.8308722938537594,8.65623610229492,-2.1097405754089356
1759585041924210200,4.690210205078125,3.764283560180664,8.703970497894286,-2.0266917053222655
1759585041934195000,4.70019482421875,3.737498429107666,8.881141420745848,-1.770362490081787
1759585041944179000,4.710178955078125,3.6782419380187985,9.048735536956787,-1.4203601348876953
1759585041954163200,4.7201630859375,3.6713586082458494,9.192836549377441,-1.1139023223876952
1759585041964148000,4.73014794921875,3.6547488342285153,9.249698838806152,-0.8776245460510254
1759585041974132000,4.740132080078125,3.601926760101318,9.222464794921875,-0.9575310264587402
1759585041984116000,4.750115966796875,3.489698557281494,9.188796334075928,-1.326686994934082
1759585041994101000,4.76010107421875,3.4093431640625,9.093327542877196,-1.7239748329162596
1759585042004085000,4.7700849609375,3.3379660270690916,9.053523940277099,-1.944091748046875
1759585042014069000,4.780069091796875,3.2748189582824705,9.080757984161377,-1.9397522575378416
1759585042024054000,4.790053955078125,3.2855928657531734,9.152584033966065,-1.9310732765197753
1759585042034038000,4.8000380859375,3.199102330780029,9.151536570739745,-1.5843629486083983
1759585042044023000,4.81002294921875,3.145532068634033,9.016713089752196,-1.1730091758728027
1759585042054007000,4.820007080078125,3.2116718894958494,8.864980559539795,-0.797418790435791
1759585042063991000,4.829990966796875,3.3004069885253906,8.82323166809082,-0.6471826362609863
1759585042073976000,4.83997607421875,3.386897523498535,8.843582382202149,-0.8096890739440917
1759585042083960000,4.8499599609375,3.4439094505310055,8.834304850769042,-1.1598410667419432
1759585042093944000,4.859944091796875,3.529352522277832,8.838045790863037,-1.4909890838623046
1759585042103929000,4.86992919921875,3.58142640838623,8.889970039367675,-1.645115815734863
1759585042113913000,4.8799130859375,3.5309985359191893,8.95147109451294,-1.5469535476684568
1759585042123897000,4.88989697265625,3.546560846710205,8.942941751098632,-1.2592004356384277
1759585042133882000,4.899882080078125,3.497180437469482,8.896554093933105,-1.018283893585205
1759585042143866000,4.9098662109375,3.540126429748535,8.870367513275147,-0.9214683639526366
1759585042153850000,4.91985009765625,3.653851008605957,8.966135579681396,-0.941070890045166
1759585042163835100,4.929835205078125,3.845237503814697,9.145401428985595,-1.1080664558410644
1759585042173819100,4.939819091796875,3.9407062950134275,9.25703108139038,-1.2472294273376463
1759585042183803100,4.94980322265625,4.11174207611084,9.390058911132812,-1.5001169776916503
1759585042193788200,4.9597880859375,3.9577649818420406,9.209895236206053,-1.3756184913635252
1759585042203772200,4.969772216796875,3.8057331764221187,8.924237050628662,-1.1302128211975098
1759585042213756200,4.979756103515625,3.6418800003051754,8.716390419006347,-0.9635165306091308
1759585042223741000,4.989740966796875,3.565714459991455,8.565854989624023,-0.9041104019165038
1759585042233725200,4.99972509765625,3.436726845550537,8.449586571502685,-1.0920552322387695
1759585042243710000,5.0097099609375,3.3994670822143553,8.636932851409911,-1.3480851722717284
1759585042253694000,5.01969384765625,3.630806817626953,9.025691345977783,-1.5158289260864257
1759585042263678000,5.029677978515625,3.9501334640502925,9.122506875610352,-1.666962905883789
1759585042273663000,5.0396630859375,3.986196126556396,9.147645993041992,-1.5406687683105469
1759585042283647000,5.04964697265625,3.8853403816223144,9.253589416503905,-1.705868682861328
1759585042293631000,5.059630859375,3.7096658348083493,9.113678256988525,-1.777994007873535
1759585042303616000,5.069615966796875,3.5045126800537107,8.869469687652588,-1.601271997833252
1759585042313600000,5.07960009765625,3.3418566047668454,8.68930601272583,-1.4504372932434082
1759585042323584000,5.089583984375,3.605218787384033,8.658630303955078,-1.3946224670410154
1759585042333569000,5.099569091796875,4.0441058792114255,8.780136038208008,-1.4181155708312987
1759585042343553000,5.109552978515625,4.284423870849609,8.821436016845702,-1.4872481437683105
1759585042353537000,5.119537109375,4.196885872650146,8.853458464050293,-1.622221262359619
1759585042363522000,5.12952197265625,4.00953959274292,8.850016799163818,-1.6961422386169434
1759585042373506000,5.139506103515625,3.815160345458984,8.724021936798096,-1.5925930168151854
1759585042383490000,5.149489990234375,3.6285622535705566,8.710255277252196,-1.4142249931335449
1759585042393475000,5.15947509765625,3.506906881713867,8.732252005004883,-1.2304700157165527
1759585042403459000,5.169458984375,3.506158693695068,8.843432744598388,-1.214907704925537
1759585042413443000,5.179443115234375,3.6337995697021483,8.933963494873046,-1.3628992950439451
1759585042423428000,5.189427978515625,3.732111475372314,9.045742784881591,-1.4936825607299804
1759585042433412000,5.199412109375,3.691559684753418,9.119813398742675,-1.6717513092041014
1759585042443396000,5.20939599609375,3.660135787963867,9.112032243347167,-1.7847277000427244
1759585042453381000,5.219381103515625,3.60716407623291,9.057564155578612,-1.731456713104248
1759585042463365000,5.229365234375,3.621828561401367,8.979004413604736,-1.5677531745910644
1759585042473349000,5.23934912109375,3.6706104202270504,8.91825154647827,-1.3533224884033201
1759585042483334100,5.249334228515625,3.5836709724426266,8.915707707214356,-1.2961609237670897
1759585042493318100,5.259318115234375,3.573345977783203,8.897152644348145,-1.3851952980041502
1759585042503303200,5.26930322265625,3.63903688583374,8.895656268310546,-1.5919944664001464
1759585042513287200,5.279287109375,3.736750241088867,8.9255837890625,-1.767070462799072
1759585042523271200,5.289271240234375,3.7578491432189938,8.948627980041504,-1.9194015434265135
1759585042533256000,5.299255859375,3.7298669113159177,8.928576541137694,-2.014122146606445
1759585042543240200,5.309240234375,3.6297593544006346,8.86168853225708,-1.927332336425781
1759585042553224200,5.31922412109375,3.522918105316162,8.775796547698974,-1.7911621170043943
1759585042563209000,5.329208984375,3.4962826118469237,8.715492593383788,-1.6689081947326658
1759585042573193000,5.33919287109375,3.548506135559082,8.756642934417725,-1.6651672546386718
1759585042583177200,5.34917724609375,3.6833296165466307,8.819191452789306,-1.7386393180847166
1759585042593162000,5.359161865234375,3.7689223258972167,8.86064106903076,-1.7848773376464844
1759585042603146000,5.36914599609375,3.8681320571899414,8.89924757080078,-1.7809867599487303
1759585042613130000,5.3791298828125,3.860051626586914,8.992022885131835,-1.753752716064453
1759585042623115000,5.389114990234375,3.751414726257324,8.940697187042236,-1.556380716705322
1759585042633099000,5.39909912109375,3.764133922576904,8.876353017425537,-1.9723732551574706
1759585042643083000,5.4090830078125,3.6284126159667967,8.987533757019042,-2.0217536643981933
1759585042653068000,5.419068115234375,3.620481822967529,8.954463846588133,-1.871816785430908
1759585042663052000,5.429052001953125,3.601926760101318,8.889072213745116,-1.7989432723999021
1759585042673037000,5.439037109375,3.576039454650879,8.904335249328613,-1.797895809173584
1759585042683021000,5.44902099609375,3.656843760681152,8.913762418365478,-1.8846856193542478
1759585042693005000,5.459005126953125,3.788524851989746,8.944138851928711,-1.9084779983520506
1759585042702990000,5.468989990234375,3.816357446289062,9.007136283111572,-1.916558428955078
1759585042712974000,5.47897412109375,3.724479957580566,8.998307664489746,-1.778742195892334
1759585042722958000,5.4889580078125,3.685574180603027,8.840888905334472,-1.7347487403869628
1759585042732943000,5.498943115234375,3.6064158882141113,8.759635686492919,-1.7360954788208007
1759585042742927000,5.508927001953125,3.521721004486084,8.767117566680907,-1.5894506271362303
1759585042752911000,5.5189111328125,3.604021686553955,8.75903713607788,-1.5860089622497557
1759585042762896100,5.528896240234375,3.6577415863037106,8.75843858566284,-1.5693991882324219
1759585042772880100,5.538880126953125,3.6565444854736326,8.813505223846436,-1.5511434005737303
1759585042782864100,5.548864013671875,3.623773850250244,8.92543415145874,-1.2183493698120116
1759585042792849200,5.55884912109375,3.7134067749023436,8.88667801208496,-1.11075993270874
1759585042802833200,5.568833251953125,3.794360718536377,8.769362130737305,-1.6314987937927246
1759585042812817200,5.578817138671875,3.716399526977539,8.805873706054687,-1.9526210914611815
1759585042822802200,5.58880224609375,3.6816836029052733,8.81036283416748,-2.1685481536865234
1759585042832786200,5.5987861328125,3.629310441589355,8.881889608764649,-2.2756886779785157
1759585042842770200,5.608770263671875,3.625719139099121,8.936058421325683,-2.2698528114318846
1759585042852755000,5.6187548828125,3.5604771438598632,8.832359561920166,-2.241421666717529
1759585042862739200,5.6287392578125,3.5927988662719725,8.81724616394043,-2.25384158782959
1759585042872723200,5.63872314453125,3.7282208976745603,8.894010254669189,-1.9816507865905761
1759585042882708000,5.6487080078125,4.006546840667724,8.922890312194824,-1.8881272842407226
1759585042892692000,5.65869189453125,4.017021472930908,8.909722203063964,-2.0226514900207517
1759585042902677000,5.668677001953125,3.7740100044250484,8.901043222045898,-2.1727380065917967
1759585042912661000,5.678660888671875,3.6017771224975585,8.888324025726318,-2.2641665824890134
1759585042922645000,5.68864501953125,3.545663021087646,8.8359508644104,-2.1398177337646485
1759585042932630000,5.698630126953125,3.5015199279785154,8.75275235671997,-1.82587804107666
1759585042942614000,5.708614013671875,3.5283050590515135,8.74003316040039,-1.4968249504089355
1759585042952598000,5.718597900390625,3.623025662231445,8.782380602264404,-1.2738649208068846
1759585042962583000,5.7285830078125,3.8130654190063473,8.881141420745848,-1.299901863861084
1759585042972567000,5.738567138671875,3.931428763580322,8.95102218170166,-1.5701473762512206
1759585042982551000,5.748551025390625,3.877110313415527,8.97601166152954,-1.943493197631836
1759585042992536000,5.7585361328125,3.7759552932739258,8.95715732345581,-2.242020217132568
1759585043002520000,5.76852001953125,3.67734411239624,8.89371097946167,-2.295740116882324
1759585043012504000,5.778504150390625,3.5914521278381346,8.8482211479187,-2.11961665725708
1759585043022489000,5.788489013671875,3.603872048950195,8.764573727416991,-1.8122610191345214
1759585043032473000,5.79847314453125,3.6713586082458494,8.680776669311523,-1.5090952339172363
1759585043042457000,5.80845703125,3.7535096527099605,8.646808933258056,-1.3409025672912598
1759585043052442000,5.818442138671875,3.810671217346191,8.68317087097168,-1.4188637588500976
1759585043062426000,5.828426025390625,3.7969045578002927,8.770858506774902,-1.6098013412475585
1759585043072410000,5.83841015625,3.808127378082275,8.856451216125487,-1.8315642700195311
1759585043082395100,5.84839501953125,3.8214451248168944,8.901192859649658,-2.056319950866699
1759585043092379100,5.858379150390625,3.737498429107666,8.900743946838379,-2.1281460006713866
1759585043102364200,5.8683642578125,3.686771281433105,8.809165733337402,-1.9598036964416503
1759585043112348200,5.87834814453125,3.6845267173767087,8.749759604644774,-1.7491139503479003
1759585043122332200,5.888332275390625,3.7098154724121093,8.668656023406982,-1.5614683952331543
1759585043132317200,5.898317138671875,3.726724521636963,8.65010096054077,-1.5264531959533691
1759585043142301200,5.90830126953125,3.8027404243469234,8.723722661590577,-1.6244658264160154
1759585043152285200,5.91828515625,3.8578070625305174,8.771905970001221,-1.8008885612487793
1759585043162270000,5.92827001953125,3.8974610275268553,8.810662109374999,-1.9424457344055175
1759585043172254200,5.938254150390625,3.8892309593200682,8.8995468460083,-1.9955670837402342
1759585043182238200,5.94823828125,3.830124105834961,8.953266745758055,-1.9635446365356444
1759585043192223000,5.958222900390625,3.8206969367980954,8.911218579101561,-1.8562544746398926
1759585043202207000,5.96820703125,3.774608554840088,8.877699755859375,-1.6967407890319823
1759585043212191200,5.978191162109375,3.772663265991211,8.832658837127685,-1.5553332534790039
1759585043222176000,5.988176025390625,3.8302737434387204,8.858845417785645,-1.5480010108947753
1759585043232160000,5.998159912109375,3.895665376281738,8.916006982421875,-1.6467618293762205
1759585043242144000,6.00814404296875,3.9246950714111324,8.884134172821044,-1.74926358795166
1759585043252129000,6.01812890625,3.8902784225463867,8.811111022186278,-1.8197428993225098
1759585043262113000,6.028113037109375,3.8681320571899414,8.814253411865234,-1.807472615814209
1759585043272097000,6.038096923828125,3.8045360755920408,8.7853733543396,-1.7471686614990234
1759585043282082000,6.04808203125,3.81141940536499,8.656535377502442,-1.7073650588989258
1759585043292066000,6.058066162109375,3.8404491004943844,8.664466170501708,-1.620425611114502
1759585043302051000,6.068051025390625,3.79870020904541,8.713696942138672,-1.5459060844421386
1759585043312035000,6.07803515625,3.830124105834961,8.741230261230468,-1.5572785423278808
1759585043322019000,6.08801904296875,3.872471547698974,8.75305163192749,-1.608903515625
1759585043332004000,6.098004150390625,3.877409588623047,8.829666085052489,-1.726967584991455
1759585043341988000,6.107988037109375,3.944896147918701,8.885480911254882,-1.8115128311157225
1759585043351972000,6.11797216796875,3.8934208122253415,8.922441399383544,-1.9051859710693357
1759585043361957000,6.12795703125,3.858854525756836,8.858546142578124,-1.882740330505371
1759585043371941000,6.137941162109375,3.867832781982422,8.798840738677978,-1.6992846282958984
1759585043381925000,6.147925048828125,3.79855057144165,8.754248732757567,-1.6027683738708496
1759585043391910100,6.15791015625,3.706822720336914,8.749460329437255,-1.5831658477783201
1759585043401894100,6.16789404296875,3.6682162185668945,8.758588223266601,-1.5891513519287108
1759585043411878100,6.177878173828125,3.754108203125,8.713248029327392,-1.6246154640197752
1759585043421863200,6.18786328125,3.7858313751220702,8.693795140838622,-1.6726491348266601
1759585043431847200,6.19784716796875,3.7542578407287595,8.75230344390869,-1.7636287979125975
1759585043441831000,6.207830810546875,3.887584945678711,8.898050469970702,-1.8353052101135252
1759585043451816200,6.217816162109375,3.9731776550292968,9.037961629486084,-1.7944541442871094
1759585043461800200,6.22780029296875,3.9682396141052245,8.993070348358154,-1.7536030784606933
1759585043471782100,6.2377822265625,3.872770822906494,8.894010254669189,-1.730708525085449
1759585043481767200,6.24776708984375,3.7645828353881834,8.768763580322265,-1.6410756004333495
1759585043491751200,6.257751220703125,3.6947020744323726,8.692598040008544,-1.578227806854248
1759585043501736200,6.267736083984375,3.6201825477600096,8.65773247833252,-1.5708955642700195
1759585043511720200,6.27772021484375,3.6583401367187496,8.74048207321167,-1.5976806953430174
1759585043521704200,6.2877041015625,3.7379473419189453,8.810662109374999,-1.6645687042236328
1759585043531689200,6.297689208984375,3.828627729797363,8.819790003204345,-1.6832734046936033
1759585043541673200,6.307673095703125,3.8872856704711913,8.812607398223877,-1.6645687042236328
1759585043551657200,6.3176572265625,3.847781343078613,8.82383021850586,-1.6973393394470213
1759585043561642200,6.327642333984375,3.7862802879333493,8.839242891693115,-1.668160006713867
1759585043571626200,6.337626220703125,3.753360015106201,8.84777223510742,-1.608903515625
1759585043581610200,6.3476103515625,3.756053491973877,8.921094660949706,-1.5165771141052244
1759585043591595300,6.35759521484375,3.8162078086853026,9.030928662109375,-1.2331634925842285
1759585043601579300,6.367579345703125,3.8616976402282712,8.891765690612793,-1.5783774444580077
1759585043611563300,6.377563232421875,3.7764042060852048,8.827720796203613,-1.944091748046875
1759585043621548300,6.38754833984375,3.6936546112060546,8.875604829406738,-2.1903952438354493
1759585043631532300,6.3975322265625,3.6954502624511716,8.75290199432373,-2.4561516281127926
1759585043641516300,6.407516357421875,3.6577415863037106,8.719532808685303,-2.3850737663269044
1759585043651501000,6.4175009765625,3.7389948051452633,8.815450512695312,-1.9155109657287597
1759585043661485300,6.4274853515625,3.8486791687011714,8.824728044128417,-1.6784850013732908
1759585043671469300,6.43746923828125,3.8602012641906738,8.834304850769042,-1.60246909866333
1759585043681454000,6.4474541015625,3.7802947837829586,8.820837466430664,-1.7542016288757323
1759585043691438000,6.45743798828125,3.720140467071533,8.775946185302734,-1.8888754722595213
1759585043701422300,6.46742236328125,3.734206401824951,8.791807771301269,-1.9098247367858885
1759585043711407000,6.477406982421875,3.7963060073852537,8.799888201904297,-1.852663172149658
1759585043721391000,6.48739111328125,3.8295255554199215,8.792555959320067,-1.7660229995727539
1759585043731376000,6.497376220703125,3.840748375701904,8.774300171661377,-1.6952444129943847
1759585043741360000,6.507360107421875,3.845237503814697,8.740781348419189,-1.6350900962829589
1759585043751344000,6.51734423828125,3.762188633728027,8.68212340774536,-1.7223288192749022
1759585043761329200,6.5273291015625,3.703979605865478,8.706364699554443,-1.8846856193542478
1759585043771313200,6.537313232421875,3.7729625411987304,8.810213196563721,-1.9384055191040037
1759585043781297200,6.547297119140625,3.9022494308471676,8.858695780181884,-1.9301754508972166
1759585043791282200,6.5572822265625,3.9112276870727536,8.843283106994628,-1.837998686981201
1759585043801266200,6.56726611328125,3.8084266532897946,8.806472256469727,-1.695693325805664
1759585043811250200,6.577250244140625,3.790470140838623,8.788515744018554,-1.6534955215454101
1759585043821235200,6.587235107421875,3.7913679664611815,8.692298764801025,-1.6475100173950195
1759585043831219200,6.59721923828125,3.800495860290527,8.645761470031738,-1.7296610618591308
1759585043841203200,6.607203125,3.758447693634033,8.794501248168945,-1.9482816009521484
1759585043851188200,6.617188232421875,3.84987626953125,8.860341793823242,-2.104353621673584
1759585043861172200,6.627172119140625,3.9112276870727536,8.813355586242675,-2.1529858428955078
1759585043871156200,6.63715625,3.8744168365478515,8.907477639007567,-2.1184195564270016
1759585043881141200,6.647141357421875,3.808875566101074,8.898200107574462,-1.9723732551574706
1759585043891125200,6.657125244140625,3.7491701622009277,8.763226988983154,-1.7975965339660644
1759585043901109200,6.667109130859375,3.765480661010742,8.698134631347656,-1.6808792030334472
1759585043911094300,6.67709423828125,3.820547299194336,8.696338980102539,-1.665616167449951
1759585043921078300,6.687078369140625,3.8394016372680664,8.80392841720581,-1.7841291496276854
1759585043931063300,6.697063232421875,3.828627729797363,8.859144692993164,-2.0184616371154784
1759585043941047300,6.70704736328125,3.877409588623047,8.896404456329345,-2.124255422973633
1759585043951031300,6.71703125,3.904643632507324,8.86812294921875,-2.0519804603576657
1759585043961016000,6.72701611328125,3.8985084907531737,8.825625869750976,-1.9889830291748045
1759585043971000300,6.737000244140625,3.7837364486694334,8.765321915435791,-1.924938134765625
