time,seconds_elapsed,z,y,x
1759611129699816700,0.050816650390625,-0.09109688550233841,0.7691006660461426,0.08766300976276398
1759611129709898800,0.060898681640625,-0.1193506270647049,0.6944628953933716,0.11007776856422424
1759611129719981600,0.070981689453125,-0.12181485444307327,0.6267568469047546,0.14129294455051422
1759611129730064600,0.081064697265625,-0.10151916742324829,0.6064318418502808,0.18316955864429474
1759611129740147700,0.091147705078125,-0.07003261148929596,0.6284684538841248,0.23825038969516754
1759611129750230800,0.101230712890625,-0.03377154469490051,0.6537477374076843,0.29174530506134033
1759611129760313900,0.11131396484375,0.001433845958672464,0.6419981122016907,0.3237287998199463
1759611129770396700,0.121396728515625,0.035891689360141754,0.5784204602241516,0.33867737650871277
1759611129780479700,0.131479736328125,0.06661977618932724,0.46501028537750244,0.34801629185676575
1759611129790562600,0.1415625,0.07506412267684937,0.32147523760795593,0.35248908400535583
1759611129800645600,0.151645751953125,0.05750430375337601,0.18461617827415466,0.3691263794898987
1759611129810728700,0.161728759765625,0.017648234963417053,0.07003980129957199,0.38933897018432617
1759611129820811800,0.171811767578125,-0.01215919479727745,-0.01546311192214489,0.40689557790756226
1759611129830894600,0.18189453125,-0.021158814430236816,-0.06949465721845627,0.4284461438655853
1759611129840977700,0.191977783203125,-0.01161537691950798,-0.11319126933813095,0.44876235723495483
1759611129851060700,0.202060791015625,-0.002388589084148407,-0.14397554099559784,0.4554663300514221
1759611129861143600,0.2121435546875,0.005344431847333908,-0.1492946743965149,0.43933236598968506
1759611129871226600,0.2222265625,0.0029438582714647055,-0.12923628091812134,0.42623335123062134
1759611129881309700,0.232309814453125,-0.004258128348737955,-0.08936343342065811,0.41090017557144165
1759611129891392800,0.242392822265625,-0.016259662806987762,-0.04423031210899353,0.40718135237693787
1759611129901475600,0.2524755859375,-0.020684771239757538,0.005579322576522827,0.4185176193714142
1759611129911558700,0.26255859375,-0.014517956413328648,0.06365381181240082,0.43918853998184204
1759611129921641500,0.272641357421875,0.010297911241650581,0.11591648310422897,0.45427030324935913
1759611129931724500,0.282724609375,0.06023431196808815,0.16116945445537567,0.46021339297294617
1759611129941807900,0.292807861328125,0.12306547164916992,0.20211395621299744,0.4589492082595825
1759611129951890700,0.302890625,0.18786604702472687,0.2574286162853241,0.4498515725135803
1759611129961973800,0.312973876953125,0.24835094809532166,0.33061546087265015,0.4362742602825165
1759611129972056600,0.323056640625,0.3032299280166626,0.43210452795028687,0.435040146112442
1759611129982139600,0.3331396484375,0.3568715751171112,0.5691132545471191,0.4549155831336975
1759611129992222500,0.343222412109375,0.41508400440216064,0.7614294290542603,0.495940238237381
1759611130002305800,0.353305908203125,0.49058568477630615,1.0089374780654907,0.5551928877830505
1759611130012388600,0.363388671875,0.5931354761123657,1.309559941291809,0.6288365125656128
1759611130022471700,0.3734716796875,0.7266623973846436,1.6592262983322144,0.7154614329338074
1759611130032554800,0.3835546875,0.8806719183921814,2.064687728881836,0.8264774084091187
1759611130042637600,0.393637451171875,1.0492687225341797,2.5397701263427734,0.9517192244529724
1759611130052719600,0.4037197265625,1.2098487615585327,3.081949472427368,1.0887556076049805
1759611130062802400,0.413802490234375,1.3462351560592651,3.6823501586914062,1.2257251739501953
1759611130072885800,0.4238857421875,1.4671084880828857,4.33951997756958,1.3764358758926392
1759611130082968800,0.43396875,1.5764832496643066,5.024724006652832,1.5235451459884644
1759611130093051600,0.4440517578125,1.7008930444717407,5.734047889709473,1.681754231452942
1759611130103134700,0.454134765625,1.8712937831878662,6.450570106506348,1.8494879007339478
1759611130113217500,0.464217529296875,2.1004083156585693,7.091180801391602,2.0145437717437744
1759611130123300600,0.474300537109375,2.396833658218384,7.588440895080566,2.132756233215332
1759611130133383700,0.4843837890625,2.7277090549468994,7.888885021209717,2.219989538192749
1759611130143466800,0.494466796875,3.0584332942962646,7.9953742027282715,2.2782750129699707
1759611130153549600,0.504549560546875,3.359530448913574,7.889558792114258,2.2915303707122803
1759611130163632600,0.514632568359375,3.56508731842041,7.5783610343933105,2.269331216812134
1759611130173715700,0.5247158203125,3.6475324630737305,7.105711936950684,2.2081620693206787
1759611130183798500,0.534798583984375,3.651445150375366,6.510867595672607,2.136791229248047
1759611130193881900,0.5448818359375,3.697305202484131,5.802701473236084,2.131751537322998
1759611130203964700,0.554964599609375,3.804453134536743,4.98519229888916,2.141542673110962
1759611130214047700,0.5650478515625,4.0180344581604,4.083793640136719,2.0884571075439453
1759611130224130600,0.575130615234375,4.299335956573486,3.178459882736206,1.936835765838623
1759611130234213600,0.585213623046875,4.456713676452637,2.339242696762085,1.690251350402832
1759611130244296400,0.59529638671875,4.495068550109863,1.6665006875991821,1.5056263208389282
1759611130254379800,0.6053798828125,4.491559982299805,1.2650790214538574,1.4081852436065674
1759611130264462600,0.615462646484375,4.5115132331848145,1.0942617654800415,1.3304507732391357
1759611130274545700,0.625545654296875,4.6065826416015625,1.07803213596344,1.2646148204803467
1759611130284628700,0.635628662109375,4.752774238586426,1.145871639251709,1.1883610486984253
1759611130294711600,0.645711669921875,4.895694255828857,1.2343884706497192,1.058671236038208
1759611130304794600,0.655794677734375,4.96140718460083,1.3066298961639404,0.8704842925071716
1759611130314877700,0.665877685546875,4.868648529052734,1.3001717329025269,0.6336908936500549
1759611130324960800,0.675960693359375,4.62220573425293,1.1167640686035156,0.4001692533493042
1759611130335043600,0.686043701171875,4.311943054199219,0.8348421454429626,0.26606497168540955
1759611130345126700,0.696126708984375,4.0165863037109375,0.622101902961731,0.2560725212097168
1759611130355209500,0.70620947265625,3.8269689083099365,0.5775973200798035,0.3688265085220337
1759611130365292500,0.71629248046875,3.6996545791625977,0.6165952682495117,0.49663907289505005
1759611130375376000,0.7263759765625,3.548823833465576,0.6419238448143005,0.5842104554176331
1759611130385458700,0.736458740234375,3.316514492034912,0.639648973941803,0.6516448855400085
1759611130395541800,0.746541748046875,2.9974873065948486,0.6961652040481567,0.7359251379966736
1759611130405624600,0.75662451171875,2.5958330631256104,0.8779475092887878,0.8239570260047913
1759611130415706600,0.76670654296875,2.14766788482666,1.089473843574524,0.9220390915870667
1759611130425789700,0.776789794921875,1.704081654548645,1.3979084491729736,1.025636076927185
1759611130435872500,0.78687255859375,1.3255388736724854,1.7785731554031372,1.1322605609893799
1759611130445955800,0.796955810546875,1.0303187370300293,2.195720911026001,1.1882455348968506
1759611130456038700,0.80703857421875,0.8193838000297546,2.589064121246338,1.2017465829849243
1759611130466121700,0.817121826171875,0.6618690490722656,2.935901165008545,1.174181580543518
1759611130476204500,0.82720458984375,0.5314332842826843,3.219325065612793,1.1497148275375366
1759611130486287600,0.83728759765625,0.410906583070755,3.4156200885772705,1.1357202529907227
1759611130496370400,0.847370361328125,0.29645588994026184,3.5138072967529297,1.1216843128204346
1759611130506453800,0.857453857421875,0.17822672426700592,3.5023233890533447,1.1051716804504395
1759611130516536800,0.867536865234375,0.07257992774248123,3.368107795715332,1.0608526468276978
1759611130526619600,0.87761962890625,-0.02087998203933239,3.1211111545562744,0.99074387550354
1759611130536702700,0.88770263671875,-0.11439981311559677,2.775411367416382,0.9003303647041321
1759611130546785500,0.89778564453125,-0.20897798240184784,2.3561103343963623,0.7980393767356873
1759611130556868600,0.90786865234375,-0.3127800226211548,1.8832277059555054,0.6963447332382202
1759611130566951700,0.91795166015625,-0.4276892840862274,1.4059122800827026,0.5941267609596252
1759611130577034800,0.92803466796875,-0.5356101393699646,0.9459782242774963,0.505394458770752
1759611130587117600,0.93811767578125,-0.6361434459686279,0.529227614402771,0.4064282178878784
1759611130597200600,0.94820068359375,-0.7226647138595581,0.18154023587703705,0.30263176560401917
1759611130607283700,0.95828369140625,-0.7913450002670288,-0.07381723076105118,0.20780326426029205
1759611130617366500,0.968366455078125,-0.8250225186347961,-0.22264425456523895,0.11504296213388443
1759611130627449900,0.978449951171875,-0.8256076574325562,-0.2680162787437439,0.03285515308380127
1759611130637532700,0.98853271484375,-0.7986037135124207,-0.25252866744995117,-0.03014618344604969
1759611130647615700,0.99861572265625,-0.7450888156890869,-0.18823063373565674,-0.07388221472501755
1759611130657698600,1.008698486328125,-0.6678872108459473,-0.09257041662931442,-0.10193701833486557
1759611130667781600,1.01878173828125,-0.5683659911155701,0.012705941684544086,-0.11532153189182281
1759611130677864400,1.028864501953125,-0.45022228360176086,0.09932205826044083,-0.1398306041955948
1759611130687947800,1.03894775390625,-0.3276020884513855,0.15318502485752106,-0.17127162218093872
1759611130698030600,1.049030517578125,-0.22704246640205383,0.17196138203144073,-0.2010580152273178
1759611130708113700,1.05911376953125,-0.1576428860425949,0.16459959745407104,-0.21913129091262817
1759611130718196700,1.06919677734375,-0.12862242758274078,0.15793530642986298,-0.22029241919517517
1759611130728279600,1.079279541015625,-0.13484090566635132,0.15215358138084412,-0.1899544894695282
1759611130738362600,1.089362548828125,-0.18193571269512177,0.13883964717388153,-0.1507442444562912
1759611130748445700,1.09944580078125,-0.24734854698181152,0.12612465023994446,-0.1085033044219017
1759611130758528800,1.10952880859375,-0.29115673899650574,0.11336410790681839,-0.07138709723949432
1759611130768611600,1.119611572265625,-0.3843633830547333,0.15111415088176727,-0.026188194751739502
1759611130778693600,1.129693603515625,-0.49659672379493713,0.2601306438446045,0.01564127765595913
1759611130788776700,1.139776611328125,-0.5988042950630188,0.43722766637802124,0.06449989974498749
1759611130798859500,1.149859619140625,-0.659083902835846,0.6302567720413208,0.16516685485839844
1759611130808942600,1.159942626953125,-0.6723216772079468,0.705623984336853,0.31822964549064636
1759611130819025700,1.170025634765625,-0.6074641346931458,0.6163198947906494,0.43353864550590515
1759611130829108700,1.180108642578125,-0.47393959760665894,0.335742324590683,0.543126106262207
1759611130839191600,1.190191650390625,-0.3223189115524292,-0.11869176477193832,0.6781273484230042
1759611130849275100,1.200275146484375,-0.26723623275756836,-0.5821787118911743,0.7935170531272888
1759611130859358000,1.21035791015625,-0.34251126646995544,-0.987241804599762,0.8846206068992615
1759611130869441000,1.22044091796875,-0.5103487372398376,-1.2824374437332153,0.9231775999069214
1759611130879524000,1.230524169921875,-0.6583195924758911,-1.5370298624038696,0.9510065913200378
1759611130889607000,1.24060693359375,-0.7934435606002808,-1.798134446144104,0.9688817262649536
1759611130899690200,1.250690185546875,-0.9452666640281677,-1.9767310619354248,0.9092106223106384
1759611130909773000,1.26077294921875,-1.1333731412887573,-2.064216375350952,0.7859174609184265
1759611130919856000,1.270856201171875,-1.372245192527771,-2.112380027770996,0.631736695766449
1759611130929939000,1.28093896484375,-1.6329052448272705,-2.1807000637054443,0.47753486037254333
1759611130940022000,1.29102197265625,-1.921866774559021,-2.192491292953491,0.27926626801490784
1759611130950104800,1.301104736328125,-2.2049689292907715,-2.205197334289551,0.10300867259502411
1759611130960188200,1.311188232421875,-2.4494400024414062,-2.2141592502593994,-0.03392467647790909
1759611130970271200,1.321271240234375,-2.6321702003479004,-2.217153787612915,-0.14293238520622253
1759611130980354000,1.33135400390625,-2.7214651107788086,-2.176950216293335,-0.23801496624946594
1759611130990437000,1.34143701171875,-2.719656229019165,-2.079051971435547,-0.3261807858943939
1759611131000520000,1.35152001953125,-2.6489295959472656,-1.9423160552978516,-0.39213502407073975
1759611131010603000,1.36160302734375,-2.529540538787842,-1.7616291046142578,-0.42855775356292725
1759611131020686000,1.37168603515625,-2.387305974960327,-1.543678641319275,-0.4164539575576782
1759611131030769200,1.38176904296875,-2.2376339435577393,-1.3174082040786743,-0.36935141682624817
1759611131040852000,1.39185205078125,-2.104959487915039,-1.0981518030166626,-0.2962353825569153
1759611131050935000,1.40193505859375,-2.0049240589141846,-0.8937150239944458,-0.23892149329185486
1759611131061018000,1.41201806640625,-1.9298644065856934,-0.7200945019721985,-0.20576567947864532
1759611131071101200,1.42210107421875,-1.8754068613052368,-0.5985598564147949,-0.19615405797958374
1759611131081184300,1.432184326171875,-1.8356144428253174,-0.5327861309051514,-0.21471469104290009
1759611131091267000,1.44226708984375,-1.8187134265899658,-0.5129439830780029,-0.23762613534927368
1759611131101350100,1.45235009765625,-1.8221702575683594,-0.5373625159263611,-0.26984718441963196
1759611131111433000,1.462432861328125,-1.8433340787887573,-0.5863244533538818,-0.3231045603752136
1759611131121516000,1.47251611328125,-1.8820801973342896,-0.6523855328559875,-0.3829231560230255
1759611131131599000,1.48259912109375,-1.9249030351638794,-0.7122688293457031,-0.4265387952327728
1759611131141682200,1.49268212890625,-1.9660488367080688,-0.7364396452903748,-0.46973472833633423
1759611131151765000,1.502764892578125,-2.0049636363983154,-0.7139548659324646,-0.5067406892776489
1759611131161848000,1.51284814453125,-2.025787591934204,-0.646671712398529,-0.5330862998962402
1759611131171930000,1.52293017578125,-2.022982358932495,-0.5311408638954163,-0.5587077736854553
1759611131182013000,1.533012939453125,-1.9983152151107788,-0.36888110637664795,-0.5882163643836975
1759611131192096000,1.543095947265625,-1.9544997215270996,-0.16943830251693726,-0.6093578934669495
1759611131202179000,1.553178955078125,-1.92306649684906,0.033238112926483154,-0.6313585042953491
1759611131212262100,1.56326220703125,-1.9337292909622192,0.18332801759243011,-0.6375325322151184
1759611131222345200,1.57334521484375,-1.9298484325408936,0.295697957277298,-0.6114391684532166
1759611131232428000,1.583427978515625,-1.8630141019821167,0.3679918646812439,-0.5451810359954834
1759611131242511000,1.593510986328125,-1.7458075284957886,0.3785094916820526,-0.48753637075424194
1759611131252594000,1.603593994140625,-1.6293240785598755,0.3564654290676117,-0.4220527112483978
1759611131262677000,1.613677001953125,-1.5326968431472778,0.3138226270675659,-0.35832273960113525
1759611131272760000,1.623760009765625,-1.4509434700012207,0.2525017559528351,-0.31139808893203735
1759611131282843100,1.633843017578125,-1.4132697582244873,0.12024331837892532,-0.29312562942504883
1759611131292926000,1.643926025390625,-1.4184718132019043,-0.08038831502199173,-0.310146689414978
1759611131303009000,1.654009033203125,-1.456602931022644,-0.30565711855888367,-0.36073049902915955
1759611131313092000,1.664092041015625,-1.4510608911514282,-0.49577486515045166,-0.4034707546234131
1759611131323175000,1.6741748046875,-1.3589708805084229,-0.5920683741569519,-0.421365350484848
1759611131333258200,1.68425830078125,-1.2445182800292969,-0.6310474872589111,-0.42828983068466187
1759611131343341000,1.694341064453125,-1.1404098272323608,-0.6230891346931458,-0.42233338952064514
1759611131353424100,1.704424072265625,-1.0483251810073853,-0.5775280594825745,-0.4083440899848938
1759611131363507000,1.7145068359375,-0.9905851483345032,-0.5114968419075012,-0.38128823041915894
1759611131373590000,1.724590087890625,-0.9322959780693054,-0.4558519423007965,-0.344711035490036
1759611131383672800,1.7346728515625,-0.8561751246452332,-0.44267863035202026,-0.26793771982192993
1759611131393756200,1.744756103515625,-0.751502513885498,-0.439897745847702,-0.2142457216978073
1759611131403839200,1.754839111328125,-0.5714765191078186,-0.4456627070903778,-0.17221437394618988
1759611131413922000,1.764922119140625,-0.2588536739349365,-0.4417206943035126,-0.1273752599954605
1759611131424005000,1.775005126953125,0.08958820253610611,-0.415092796087265,-0.08554712682962418
1759611131434088000,1.785087890625,0.4073027968406677,-0.37037912011146545,-0.03104153834283352
1759611131444171000,1.7951708984375,0.7102903723716736,-0.3320269286632538,0.04304707050323486
1759611131454254000,1.805254150390625,1.0251585245132446,-0.30092576146125793,0.12914839386940002
1759611131464337200,1.815337158203125,1.3572531938552856,-0.27992886304855347,0.21188855171203613
1759611131474420000,1.825419921875,1.7088478803634644,-0.2546781003475189,0.27085015177726746
1759611131484503000,1.8355029296875,2.062089443206787,-0.22453643381595612,0.3298679292201996
1759611131494586000,1.845586181640625,2.3975443840026855,-0.1767292320728302,0.3604591190814972
1759611131504669000,1.8556689453125,2.6931772232055664,-0.12790922820568085,0.40160974860191345
1759611131514752300,1.865752197265625,2.9229462146759033,-0.09565728157758713,0.4671725034713745
1759611131524835000,1.8758349609375,3.0955698490142822,-0.07679624110460281,0.5127855539321899
1759611131534918100,1.885918212890625,3.2279751300811768,-0.06833618134260178,0.5402264595031738
1759611131545001000,1.8960009765625,3.30395245552063,-0.09350225329399109,0.561120867729187
1759611131555084000,1.906083984375,3.2860851287841797,-0.13581030070781708,0.5738883018493652
1759611131565167000,1.9161669921875,3.1942882537841797,-0.15890495479106903,0.5952956080436707
1759611131575250200,1.926250244140625,3.027214765548706,-0.12072135508060455,0.6358904242515564
1759611131585332200,1.936332275390625,2.7865524291992188,-0.04356159269809723,0.6852443814277649
1759611131595415000,1.9464150390625,2.5099306106567383,0.06864430755376816,0.7205597758293152
1759611131605498000,1.956498046875,2.2554285526275635,0.18607772886753082,0.7090213894844055
1759611131615581000,1.966580810546875,2.053719997406006,0.31393688917160034,0.683440625667572
1759611131625664000,1.9766640625,1.9324232339859009,0.4721970856189728,0.6578159928321838
1759611131635747000,1.9867470703125,1.8889886140823364,0.680665910243988,0.6479761004447937
1759611131645830100,1.996830078125,1.9178818464279175,0.9279299974441528,0.6630397439002991
1759611131655913200,2.006913330078125,1.977029800415039,1.1950300931930542,0.6757004261016846
1759611131665996000,2.01699609375,2.0232222080230713,1.470960021018982,0.679114580154419
1759611131676079000,2.0270791015625,2.0457849502563477,1.716101050376892,0.6763164401054382
1759611131686162000,2.037161865234375,2.0329020023345947,1.9177465438842773,0.6636432409286499
1759611131696245000,2.047244873046875,1.9857767820358276,2.078847646713257,0.6296282410621643
1759611131706328000,2.057328125,1.9210355281829834,2.2150371074676514,0.5849928855895996
1759611131716411100,2.0674111328125,1.8745203018188477,2.333082437515259,0.5241929292678833
1759611131726494000,2.077493896484375,1.8319178819656372,2.4113688468933105,0.46115642786026
1759611131736577000,2.087576904296875,1.7891135215759277,2.4823355674743652,0.40769293904304504
1759611131746660000,2.09766015625,1.7720694541931152,2.537754774093628,0.37630173563957214
1759611131756743000,2.107742919921875,1.7747305631637573,2.5773282051086426,0.34002283215522766
1759611131766826200,2.117826171875,1.7800145149230957,2.5998620986938477,0.28802087903022766
1759611131776909000,2.127908935546875,1.7729099988937378,2.610844373703003,0.21308085322380066
1759611131786992000,2.1379921875,1.7564716339111328,2.603179693222046,0.12311314046382904
1759611131797075000,2.148074951171875,1.736039638519287,2.587214946746826,0.03638463839888573
1759611131807158000,2.158157958984375,1.7066079378128052,2.5676021575927734,-0.06179945170879364
1759611131817240800,2.16824072265625,1.6709985733032227,2.5416862964630127,-0.18757708370685577
1759611131827324200,2.17832421875,1.6091575622558594,2.4865522384643555,-0.3321473300457001
1759611131837407200,2.1884072265625,1.5391608476638794,2.3573129177093506,-0.47711703181266785
1759611131847490300,2.198490234375,1.4745502471923828,2.132927894592285,-0.610133945941925
1759611131857573400,2.208573486328125,1.3740919828414917,1.8074562549591064,-0.732985258102417
1759611131867656200,2.21865625,1.2417668104171753,1.3945454359054565,-0.8326021432876587
1759611131877739300,2.2287392578125,1.055388331413269,0.9499423503875732,-0.9137923717498779
1759611131887822300,2.238822265625,0.8290860056877136,0.5431042909622192,-0.9516206979751587
1759611131897905400,2.248905517578125,0.5861029028892517,0.21710941195487976,-0.9646856188774109
1759611131907988200,2.25898828125,0.34131550788879395,-0.01070830412209034,-0.9399405717849731
1759611131918071300,2.2690712890625,0.13473118841648102,-0.1717669665813446,-0.8805795311927795
1759611131928154000,2.279154052734375,-0.01944134198129177,-0.2682032287120819,-0.8138471245765686
1759611131938237200,2.2892373046875,-0.1164214164018631,-0.2990301251411438,-0.7363102436065674
1759611131948320500,2.299320556640625,-0.16916026175022125,-0.2800191342830658,-0.6582425832748413
1759611131958403300,2.3094033203125,-0.21334503591060638,-0.21564947068691254,-0.5743868350982666
1759611131968486400,2.319486328125,-0.27923935651779175,-0.13419242203235626,-0.4620078504085541
1759611131978569200,2.3295693359375,-0.37668630480766296,-0.05819646269083023,-0.3233011066913605
1759611131988652300,2.33965234375,-0.4877803325653076,0.002724680118262768,-0.15673156082630157
1759611131998735000,2.349735107421875,-0.6004605293273926,0.048355814069509506,0.025622006505727768
1759611132008818400,2.359818359375,-0.707210123538971,0.09272221475839615,0.1947423219680786
1759611132018901200,2.3699013671875,-0.7838732600212097,0.13075987994670868,0.3449060022830963
1759611132028984300,2.379984375,-0.8392139673233032,0.15379701554775238,0.4707217216491699
1759611132039067400,2.3900673828125,-0.8766473531723022,0.1491663157939911,0.5846088528633118
1759611132049149200,2.400149169921875,-0.9201234579086304,0.10512802004814148,0.6828861832618713
1759611132059232300,2.410232177734375,-0.9814667105674744,0.046126749366521835,0.7630704641342163
1759611132069315000,2.420315185546875,-1.0766962766647339,-0.02895415388047695,0.8149328827857971
1759611132079398400,2.4303984375,-1.2206354141235352,-0.10999840497970581,0.8316450119018555
1759611132089481500,2.4404814453125,-1.4023444652557373,-0.18475520610809326,0.8353574872016907
1759611132099564300,2.450564208984375,-1.593488097190857,-0.2532666325569153,0.8328825831413269
1759611132109647400,2.4606474609375,-1.7717459201812744,-0.31747302412986755,0.8193007111549377
1759611132119730200,2.470730224609375,-1.916649341583252,-0.3694925606250763,0.8011185526847839
1759611132129813200,2.480813232421875,-2.016866445541382,-0.39254993200302124,0.7920334339141846
1759611132139896300,2.490896240234375,-2.0762240886688232,-0.4135955572128296,0.786103367805481
1759611132149979400,2.5009794921875,-2.096689462661743,-0.45795610547065735,0.7718109488487244
1759611132160062200,2.511062255859375,-2.0922725200653076,-0.5246078372001648,0.7561848759651184
1759611132170145300,2.521145263671875,-2.0736823081970215,-0.603490948677063,0.7492428421974182
1759611132180228400,2.531228271484375,-2.0667929649353027,-0.6869980692863464,0.7455692291259766
1759611132190311200,2.541311279296875,-2.0640347003936768,-0.7469554543495178,0.7602366209030151
1759611132200394500,2.55139453125,-2.0625813007354736,-0.7870082855224609,0.8051289916038513
1759611132210477300,2.561477294921875,-2.0703938007354736,-0.8174375891685486,0.8504818081855774
1759611132220560400,2.571560302734375,-2.0725157260894775,-0.864032506942749,0.8810844421386719
1759611132230643200,2.581643310546875,-2.0679080486297607,-0.9166464805603027,0.8948796391487122
1759611132240726300,2.591726318359375,-2.0586047172546387,-0.9522324204444885,0.8984706401824951
1759611132250809000,2.60180908203125,-2.0449204444885254,-0.9646994471549988,0.9003316760063171
1759611132260892400,2.611892333984375,-2.0269975662231445,-0.9712330102920532,0.8919451236724854
1759611132270975200,2.621975341796875,-2.0019938945770264,-0.9774107336997986,0.8798232078552246
1759611132281058300,2.632058349609375,-1.9739704132080078,-0.991062343120575,0.8497715592384338
1759611132291141400,2.642141357421875,-1.941749930381775,-1.0061888694763184,0.8124329447746277
1759611132301224200,2.65222412109375,-1.9078843593597412,-1.0337333679199219,0.7624358534812927
1759611132311307300,2.662307373046875,-1.8670642375946045,-1.0689557790756226,0.7006238698959351
1759611132321390300,2.672390380859375,-1.8201627731323242,-1.126428484916687,0.6275411248207092
1759611132331473400,2.682473388671875,-1.7589938640594482,-1.2122013568878174,0.5230317711830139
1759611132341556200,2.69255615234375,-1.6995679140090942,-1.3139320611953735,0.40316370129585266
1759611132351639300,2.702639404296875,-1.6326868534088135,-1.4083131551742554,0.2714352309703827
1759611132361722000,2.71272216796875,-1.5593433380126953,-1.4747451543807983,0.13812485337257385
1759611132371805200,2.72280517578125,-1.4911105632781982,-1.4971364736557007,0.01209607720375061
1759611132381888500,2.732888427734375,-1.4408044815063477,-1.4635521173477173,-0.1091318130493164
1759611132391971300,2.742971435546875,-1.4054603576660156,-1.3787381649017334,-0.2065446525812149
1759611132402054400,2.753054443359375,-1.3687902688980103,-1.2381232976913452,-0.29684391617774963
1759611132412137200,2.76313720703125,-1.324307918548584,-1.0543454885482788,-0.36047324538230896
1759611132422220300,2.77322021484375,-1.270774483680725,-0.8339281678199768,-0.3883863687515259
1759611132432303000,2.78330322265625,-1.2036616802215576,-0.6137195825576782,-0.36971068382263184
1759611132442386400,2.793386474609375,-1.1334173679351807,-0.43115273118019104,-0.3296623229980469
1759611132452469200,2.80346923828125,-1.0432597398757935,-0.33450475335121155,-0.27174443006515503
1759611132462552300,2.81355224609375,-0.9297966361045837,-0.32481908798217773,-0.20541121065616608
1759611132472635400,2.823635498046875,-0.8032903671264648,-0.3525561988353729,-0.14686506986618042
1759611132482718200,2.83371826171875,-0.6703873872756958,-0.39431774616241455,-0.11467944085597992
1759611132492801300,2.84380126953125,-0.5220735669136047,-0.4581151008605957,-0.08684834837913513
1759611132502883000,2.853883056640625,-0.37499916553497314,-0.5065010190010071,-0.06259946525096893
1759611132512966400,2.86396630859375,-0.22729067504405975,-0.5493214726448059,-0.023855531588196754
1759611132523049500,2.874049560546875,-0.08743797242641449,-0.6296114921569824,0.029151227325201035
1759611132533132300,2.88413232421875,0.07865086942911148,-0.7253638505935669,0.09137625247240067
1759611132543215400,2.89421533203125,0.25645309686660767,-0.8383753299713135,0.12972897291183472
1759611132553298200,2.904298095703125,0.42758461833000183,-0.9386204481124878,0.14571379125118256
1759611132563381200,2.91438134765625,0.5663422346115112,-1.0240378379821777,0.1425563544034958
1759611132573464300,2.92446435546875,0.6663689613342285,-1.0944164991378784,0.12935186922550201
1759611132583547400,2.93454736328125,0.7440006732940674,-1.1364749670028687,0.11433243751525879
1759611132593630200,2.944630126953125,0.8372704386711121,-1.1637779474258423,0.12532010674476624
1759611132603713300,2.95471337890625,0.9477599263191223,-1.1954549551010132,0.13691844046115875
1759611132613796400,2.96479638671875,1.0611183643341064,-1.2255432605743408,0.16216707229614258
1759611132623879200,2.974879150390625,1.1697391271591187,-1.2287784814834595,0.21612244844436646
1759611132633962500,2.98496240234375,1.2951364517211914,-1.2171543836593628,0.29882264137268066
1759611132644045300,2.99504541015625,1.4649364948272705,-1.168664813041687,0.3581983745098114
1759611132654128400,3.00512841796875,1.6637009382247925,-1.0780918598175049,0.40467000007629395
1759611132664211200,3.015211181640625,1.8560861349105835,-0.9443601369857788,0.43539273738861084
1759611132674294300,3.025294189453125,2.01515793800354,-0.826147198677063,0.4579201638698578
1759611132684377000,3.035377197265625,2.133352279663086,-0.746268093585968,0.4754730463027954
1759611132694460400,3.04546044921875,2.2064144611358643,-0.6924567818641663,0.4746256470680237
1759611132704543200,3.055543212890625,2.2000272274017334,-0.634270429611206,0.44002532958984375
1759611132714626300,3.065626220703125,2.132519245147705,-0.5403130650520325,0.38708752393722534
1759611132724709400,3.07570947265625,2.0096194744110107,-0.4361666738986969,0.32452401518821716
1759611132734792200,3.085792236328125,1.835045576095581,-0.3327457308769226,0.25805044174194336
1759611132744875300,3.095875244140625,1.6313490867614746,-0.23548708856105804,0.2067451924085617
1759611132754958300,3.105958251953125,1.4093424081802368,-0.12396428734064102,0.16964256763458252
1759611132765041400,3.11604150390625,1.2114088535308838,0.043174900114536285,0.15291178226470947
1759611132775124200,3.126124267578125,1.0425373315811157,0.28870904445648193,0.15659493207931519
1759611132785207300,3.136207275390625,0.9430676698684692,0.5913780927658081,0.15599492192268372
1759611132795290000,3.1462900390625,0.9200553297996521,0.913716197013855,0.16343100368976593
1759611132805373200,3.156373291015625,0.9464077949523926,1.2254410982131958,0.14970028400421143
1759611132815456500,3.16645654296875,1.0100107192993164,1.4856795072555542,0.12066356837749481
1759611132825539300,3.176539306640625,1.0760507583618164,1.6857151985168457,0.09431212395429611
1759611132835622400,3.186622314453125,1.141099214553833,1.8309171199798584,0.07780212163925171
1759611132845705200,3.196705322265625,1.1906993389129639,1.931070327758789,0.08460809290409088
1759611132855788300,3.206788330078125,1.2140147686004639,2.0222585201263428,0.10057667642831802
1759611132865871000,3.21687109375,1.2245746850967407,2.103208303451538,0.11484376341104507
1759611132875954200,3.2269541015625,1.2333993911743164,2.192441701889038,0.11763688176870346
1759611132886037000,3.237037109375,1.2412083148956299,2.2844202518463135,0.12412834167480469
1759611132896120000,3.2471201171875,1.2598583698272705,2.3605477809906006,0.12253523617982864
1759611132906203400,3.257203369140625,1.2708183526992798,2.4321672916412354,0.10774510353803635
1759611132916286200,3.2672861328125,1.2757127285003662,2.5068416595458984,0.07973664253950119
1759611132926369300,3.277369384765625,1.2644063234329224,2.5767481327056885,0.04158739000558853
1759611132936451000,3.287451171875,1.2458102703094482,2.628779172897339,-0.006377205718308687
1759611132946534100,3.2975341796875,1.2309372425079346,2.6675400733947754,-0.0735170915722847
1759611132956617200,3.3076171875,1.2172625064849854,2.68823504447937,-0.14509381353855133
1759611132966700000,3.317699951171875,1.200029730796814,2.702516794204712,-0.23752760887145996
1759611132976783000,3.327783203125,1.1858768463134766,2.690272092819214,-0.32292452454566956
1759611132986866200,3.3378662109375,1.1740652322769165,2.6432032585144043,-0.4103901982307434
1759611132996949200,3.34794921875,1.1494258642196655,2.551152229309082,-0.5021129250526428
1759611133007032000,3.358031982421875,1.1054978370666504,2.3958611488342285,-0.5991116166114807
1759611133017115100,3.368115234375,1.027355432510376,2.1917574405670166,-0.7095180153846741
1759611133027198000,3.378197998046875,0.9304323196411133,1.973150372505188,-0.8310444951057434
1759611133037281000,3.388281005859375,0.8185164332389832,1.7601311206817627,-0.940172553062439
1759611133047364400,3.3983642578125,0.696367621421814,1.5676177740097046,-1.0202444791793823
1759611133057447200,3.408447265625,0.5620492100715637,1.3837367296218872,-1.068897008895874
1759611133067530200,3.4185302734375,0.4236745834350586,1.2455836534500122,-1.089094877243042
1759611133077613000,3.428613037109375,0.27902844548225403,1.1544486284255981,-1.0893322229385376
1759611133087696100,3.438696044921875,0.14244689047336578,1.0828373432159424,-1.0593490600585938
1759611133097779000,3.448779052734375,0.014860705472528934,1.0484164953231812,-1.0194791555404663
1759611133107862300,3.4588623046875,-0.08638814836740494,1.0425164699554443,-0.9684217572212219
1759611133117945000,3.468945068359375,-0.14047296345233917,1.034011721611023,-0.8913211226463318
1759611133128028200,3.479028076171875,-0.13662788271903992,1.0156422853469849,-0.7826404571533203
1759611133138111200,3.489111328125,-0.08193667978048325,0.9663074612617493,-0.6413267254829407
1759611133148194000,3.499194091796875,-0.014212491922080517,0.8890063166618347,-0.487678587436676
1759611133158277000,3.509277099609375,0.04701065272092819,0.7702119946479797,-0.3273850679397583
1759611133168360200,3.519360107421875,0.07431603968143463,0.624630331993103,-0.16852855682373047
1759611133178443300,3.529443359375,0.056829195469617844,0.4433737099170685,-0.01726101152598858
1759611133188526000,3.539526123046875,-0.03476650267839432,0.22951628267765045,0.12250673770904541
1759611133198609200,3.549609130859375,-0.18402709066867828,-0.015914518386125565,0.25256460905075073
1759611133208692000,3.55969189453125,-0.37438106536865234,-0.2588041424751282,0.3681633770465851
1759611133218775000,3.569775146484375,-0.57712322473526,-0.47140881419181824,0.46808305382728577
1759611133228858000,3.579858154296875,-0.7831935882568359,-0.6602184176445007,0.5323251485824585
1759611133238941200,3.589941162109375,-0.9803301095962524,-0.8250632882118225,0.566582202911377
1759611133249024300,3.600024169921875,-1.1705766916275024,-0.9870806932449341,0.570247232913971
1759611133259107000,3.610107177734375,-1.3486034870147705,-1.1391737461090088,0.5576688647270203
1759611133269190100,3.620190185546875,-1.5185240507125854,-1.258018970489502,0.5360926985740662
1759611133279273200,3.630273193359375,-1.675984501838684,-1.3178892135620117,0.5285810232162476
1759611133289356300,3.640356201171875,-1.8034253120422363,-1.3235468864440918,0.536693274974823
1759611133299439000,3.650439208984375,-1.893555760383606,-1.2978664636611938,0.5498929619789124
1759611133309522200,3.660522216796875,-1.93578040599823,-1.268109917640686,0.5750300288200378
1759611133319605000,3.67060498046875,-1.9180057048797607,-1.2706444263458252,0.6044243574142456
1759611133329687000,3.68068701171875,-1.8571428060531616,-1.2235959768295288,0.6123206615447998
1759611133339770000,3.69077001953125,-1.749967098236084,-1.139196753501892,0.6223618388175964
1759611133349853000,3.70085302734375,-1.616869568824768,-1.066518783569336,0.6578298211097717
1759611133359936300,3.710936279296875,-1.4766645431518555,-1.0437120199203491,0.7088072299957275
1759611133370019000,3.72101904296875,-1.3379244804382324,-1.0770097970962524,0.7718921899795532
1759611133380102100,3.73110205078125,-1.2286094427108765,-1.1516016721725464,0.8267645239830017
1759611133390185200,3.741185302734375,-1.1485931873321533,-1.2350119352340698,0.8649784922599792
1759611133400268000,3.75126806640625,-1.108752727508545,-1.287588357925415,0.8739325404167175
1759611133410351000,3.76135107421875,-1.1093556880950928,-1.308007001876831,0.8610673546791077
1759611133420434200,3.77143408203125,-1.1364281177520752,-1.2848389148712158,0.8388757705688477
1759611133430517200,3.781517333984375,-1.1904289722442627,-1.2515925168991089,0.8171457052230835
1759611133440600000,3.79160009765625,-1.2482496500015259,-1.2290712594985962,0.7972108721733093
1759611133450683100,3.80168310546875,-1.3054083585739136,-1.2106921672821045,0.7632670402526855
1759611133460766000,3.811765869140625,-1.3629437685012817,-1.1829711198806763,0.7132435441017151
1759611133470849000,3.82184912109375,-1.4244601726531982,-1.1290327310562134,0.6644293665885925
1759611133480932400,3.831932373046875,-1.4869160652160645,-1.0471546649932861,0.6237043142318726
1759611133491015200,3.84201513671875,-1.5366791486740112,-0.9625684022903442,0.5853816866874695
1759611133501098200,3.85209814453125,-1.5723435878753662,-0.9085056781768799,0.5319477915763855
1759611133511181000,3.86218115234375,-1.58641517162323,-0.9015130400657654,0.4675765037536621
1759611133521264000,3.87226416015625,-1.5778475999832153,-0.9287853837013245,0.398389995098114
1759611133531347000,3.882346923828125,-1.5581028461456299,-0.9852393865585327,0.34000152349472046
1759611133541430300,3.89243017578125,-1.5219653844833374,-1.0496779680252075,0.2813613712787628
1759611133551513000,3.90251318359375,-1.4758658409118652,-1.124800443649292,0.21031169593334198
1759611133561596200,3.91259619140625,-1.4367769956588745,-1.1937049627304077,0.1297907531261444
1759611133571679200,3.92267919921875,-1.4104266166687012,-1.2526441812515259,0.04891001805663109
1759611133581761000,3.932760986328125,-1.4086023569107056,-1.308982491493225,-0.03212997317314148
1759611133591844000,3.942843994140625,-1.4163590669631958,-1.3760968446731567,-0.11076779663562775
1759611133601927200,3.95292724609375,-1.420165777206421,-1.4441310167312622,-0.1781388372182846
1759611133612010200,3.96301025390625,-1.417386531829834,-1.5144238471984863,-0.24066320061683655
1759611133622093300,3.97309326171875,-1.3943445682525635,-1.5711920261383057,-0.3025777041912079
1759611133632176000,3.983176025390625,-1.3441256284713745,-1.5934933423995972,-0.3507705330848694
1759611133642259200,3.99325927734375,-1.2532652616500854,-1.5891997814178467,-0.3675537705421448
1759611133652342000,4.003342041015625,-1.0902377367019653,-1.5949254035949707,-0.35498046875
1759611133662424000,4.013424072265625,-0.8575626611709595,-1.6243293285369873,-0.3425067365169525
1759611133672507100,4.023507080078125,-0.572476327419281,-1.683458685874939,-0.3286939859390259
1759611133682590200,4.033590087890625,-0.28759050369262695,-1.7252849340438843,-0.31703120470046997
1759611133692673300,4.04367333984375,-0.010543188080191612,-1.714547038078308,-0.30145570635795593
1759611133702756000,4.053756103515625,0.2831861674785614,-1.6525769233703613,-0.26584392786026
1759611133712839200,4.063839111328125,0.5917186737060547,-1.5599689483642578,-0.19878393411636353
1759611133722922000,4.073921875,0.8991710543632507,-1.4701104164123535,-0.11958738416433334
1759611133733005000,4.084005126953125,1.1795531511306763,-1.3974826335906982,-0.05168449878692627
1759611133743088000,4.094088134765625,1.4201329946517944,-1.3211050033569336,0.005651494022458792
1759611133753171200,4.104171142578125,1.6241871118545532,-1.2024896144866943,0.08351965993642807
1759611133763254300,4.114254150390625,1.8123104572296143,-1.026322603225708,0.18494722247123718
1759611133773337000,4.124337158203125,2.020921230316162,-0.7922903895378113,0.30759748816490173
1759611133783420200,4.134420166015625,2.237269401550293,-0.5135365724563599,0.44195717573165894
1759611133793503000,4.1445029296875,2.4556238651275635,-0.25894075632095337,0.5665971040725708
1759611133803586300,4.15458642578125,2.6543965339660645,-0.058524828404188156,0.6634858250617981
1759611133813669000,4.164669189453125,2.8253304958343506,0.09602240473031998,0.7107598781585693
1759611133823752200,4.174752197265625,2.930682897567749,0.22077418863773346,0.7350428700447083
1759611133833835000,4.1848349609375,2.9462544918060303,0.319119393825531,0.7568016648292542
1759611133843918000,4.19491796875,2.863779067993164,0.39968642592430115,0.7808564305305481
1759611133854000400,4.20500048828125,2.7022557258605957,0.48131388425827026,0.7779572606086731
1759611133864083200,4.215083251953125,2.47434663772583,0.581598699092865,0.7404099106788635
1759611133874166500,4.22516650390625,2.2150797843933105,0.6629417538642883,0.6923859119415283
1759611133884249300,4.235249267578125,1.9634226560592651,0.7027744054794312,0.7145218253135681
1759611133894332400,4.24533251953125,1.7441593408584595,0.7853675484657288,0.8115317821502686
1759611133904415500,4.25541552734375,1.5565910339355469,0.9922218918800354,0.915583610534668
1759611133914498300,4.265498291015625,1.3936913013458252,1.3071346282958984,0.9764708876609802
1759611133924581400,4.275581298828125,1.2741681337356567,1.6399474143981934,0.9469303488731384
1759611133934664400,4.28566455078125,1.1722049713134766,1.915598750114441,0.8348711729049683
1759611133944747500,4.29574755859375,1.0858168601989746,2.122758388519287,0.6514099836349487
1759611133954830300,4.305830322265625,1.024459958076477,2.241126537322998,0.466726154088974
1759611133964914400,4.31591455078125,0.9930813312530518,2.2940967082977295,0.3082193434238434
1759611133974997500,4.32599755859375,0.9739928245544434,2.3635287284851074,0.18736936151981354
1759611133985080600,4.33608056640625,0.9594943523406982,2.496150255203247,0.11924996227025986
1759611133995163400,4.346163330078125,0.9494403600692749,2.6437456607818604,0.10028638690710068
1759611134005246500,4.35624658203125,0.9391352534294128,2.752748727798462,0.08880896121263504
1759611134015329300,4.366329345703125,0.9379011392593384,2.7729074954986572,0.07309950888156891
1759611134025412400,4.376412353515625,0.9555438160896301,2.691777229309082,0.03021249733865261
1759611134035495400,4.386495361328125,0.9893454313278198,2.520115613937378,-0.036430977284908295
1759611134045578500,4.39657861328125,1.044568419456482,2.2829363346099854,-0.12524659931659698
1759611134055661300,4.406661376953125,1.1022226810455322,2.0195770263671875,-0.23908129334449768
1759611134065744400,4.416744384765625,1.1397794485092163,1.7886474132537842,-0.3562033772468567
1759611134075827500,4.426827392578125,1.152052640914917,1.6177544593811035,-0.476251482963562
1759611134085909200,4.4369091796875,1.1424354314804077,1.502634882926941,-0.5969496965408325
1759611134095992300,4.446992431640625,1.1149404048919678,1.418886423110962,-0.6942099332809448
1759611134106075400,4.457075439453125,1.0721689462661743,1.3473647832870483,-0.7704722285270691
1759611134116158500,4.467158447265625,1.0258057117462158,1.2734767198562622,-0.8316463232040405
1759611134126241500,4.477241455078125,0.9871086478233337,1.176803708076477,-0.8829241991043091
1759611134136324400,4.487324462890625,0.9591163992881775,1.0731582641601562,-0.925971269607544
1759611134146407400,4.497407470703125,0.9410231709480286,0.9639881253242493,-0.957425057888031
1759611134156490200,4.507490234375,0.9303082227706909,0.8482503294944763,-0.9716524481773376
1759611134166573300,4.5175732421875,0.9060763716697693,0.7380106449127197,-0.9459332227706909
1759611134176656400,4.527656494140625,0.8343084454536438,0.6554998159408569,-0.871945858001709
1759611134186739500,4.537739501953125,0.7056535482406616,0.5959672331809998,-0.7531560659408569
1759611134196822500,4.547822509765625,0.5430539846420288,0.5591527819633484,-0.6207279562950134
1759611134206905300,4.5579052734375,0.373431921005249,0.49448588490486145,-0.4849552512168884
1759611134216988400,4.567988525390625,0.21766601502895355,0.429627001285553,-0.337909072637558
1759611134227071200,4.5780712890625,0.09248386323451996,0.3579389750957489,-0.18413788080215454
1759611134237154600,4.588154541015625,-0.009340505115687847,0.28640007972717285,-0.0362248495221138
1759611134247237400,4.5982373046875,-0.09608019143342972,0.19892854988574982,0.11614338308572769
1759611134257320400,4.608320556640625,-0.1717485934495926,0.10879092663526535,0.2706890106201172
1759611134267403300,4.6184033203125,-0.2465197592973709,0.037932734936475754,0.4318754971027374
1759611134277486300,4.628486328125,-0.33324480056762695,-0.016213057562708855,0.5853270888328552
1759611134287569400,4.6385693359375,-0.43515172600746155,-0.06247296556830406,0.709595799446106
1759611134297652500,4.648652587890625,-0.5487669706344604,-0.11042424291372299,0.818082332611084
1759611134307735600,4.658735595703125,-0.693830668926239,-0.20198345184326172,0.9288581013679504
1759611134317818400,4.668818359375,-0.8658362627029419,-0.3289475440979004,0.9997011423110962
1759611134327901400,4.6789013671875,-1.0453375577926636,-0.47947072982788086,1.0418152809143066
1759611134337984300,4.688984375,-1.2342993021011353,-0.6437584757804871,1.060899257659912
1759611134348067600,4.699067626953125,-1.4396545886993408,-0.8400036096572876,1.0600001811981201
1759611134358150400,4.709150390625,-1.651180624961853,-1.0736502408981323,1.0371209383010864
1759611134368233500,4.7192333984375,-1.8603991270065308,-1.3538919687271118,0.9872636198997498
1759611134378316300,4.72931640625,-2.035189390182495,-1.6611320972442627,0.905192494392395
1759611134388399400,4.7393994140625,-2.154768943786621,-1.9694901704788208,0.8211755752563477
1759611134398482400,4.749482421875,-2.1984217166900635,-2.2363815307617188,0.7459461092948914
1759611134408565500,4.7595654296875,-2.1822190284729004,-2.430894613265991,0.6651231646537781
1759611134418648600,4.769648681640625,-2.123717784881592,-2.546360731124878,0.5864589810371399
1759611134428731400,4.7797314453125,-2.058143377304077,-2.592283010482788,0.5102323889732361
1759611134438814500,4.789814453125,-2.015781879425049,-2.5812876224517822,0.43685588240623474
1759611134448897300,4.799897216796875,-2.0057029724121094,-2.56670880317688,0.37110191583633423
1759611134458979300,4.809979248046875,-2.0445261001586914,-2.573237657546997,0.3188948929309845
1759611134469063400,4.8200634765625,-2.1144955158233643,-2.6037771701812744,0.279405802488327
1759611134479145200,4.830145263671875,-2.2035889625549316,-2.6377220153808594,0.23267345130443573
1759611134489228500,4.840228515625,-2.293083906173706,-2.6384828090667725,0.19773943722248077
1759611134499311400,4.850311279296875,-2.3634071350097656,-2.5921950340270996,0.18198524415493011
1759611134509394400,4.86039453125,-2.4060587882995605,-2.4936559200286865,0.1703411042690277
1759611134519477200,4.870477294921875,-2.4083635807037354,-2.3553974628448486,0.16590455174446106
1759611134529560300,4.880560302734375,-2.374774217605591,-2.1797988414764404,0.1508912444114685
1759611134539643400,4.890643310546875,-2.3106298446655273,-1.9936916828155518,0.12524233758449554
1759611134549726500,4.9007265625,-2.224897861480713,-1.8097782135009766,0.09394221007823944
1759611134559809500,4.9108095703125,-2.119889497756958,-1.671953797340393,0.07023261487483978
1759611134569892400,4.920892333984375,-2.0139877796173096,-1.5723342895507812,0.05539694428443909
1759611134579975400,4.930975341796875,-1.9179768562316895,-1.5173035860061646,0.03273823857307434
1759611134590058200,4.941058349609375,-1.8311940431594849,-1.5028105974197388,0.006188387516885996
1759611134600141300,4.951141357421875,-1.760871410369873,-1.5132739543914795,-0.02455594204366207
1759611134610224400,4.961224365234375,-1.7055336236953735,-1.5333163738250732,-0.05486458167433739
1759611134620307500,4.971307373046875,-1.6516720056533813,-1.5566003322601318,-0.08869551122188568
1759611134630390500,4.981390625,-1.6134108304977417,-1.5661940574645996,-0.12408306449651718
1759611134640473300,4.991473388671875,-1.5730419158935547,-1.5687257051467896,-0.16544781625270844
1759611134650556400,5.001556396484375,-1.546068549156189,-1.579155683517456,-0.22641156613826752
1759611134660639200,5.01163916015625,-1.5096913576126099,-1.6039239168167114,-0.2992767095565796
1759611134670722600,5.02172265625,-1.48225736618042,-1.613135814666748,-0.3893786370754242
1759611134680805400,5.031805419921875,-1.4518544673919678,-1.5869702100753784,-0.46684256196022034
1759611134690888400,5.041888427734375,-1.4147875308990479,-1.5179312229156494,-0.529299259185791
1759611134700971300,5.05197119140625,-1.368882656097412,-1.4062579870224,-0.5615245699882507
1759611134711054300,5.062054443359375,-1.311725378036499,-1.2702516317367554,-0.5422174334526062
1759611134721137400,5.072137451171875,-1.241944670677185,-1.1108462810516357,-0.49415460228919983
1759611134731220500,5.082220458984375,-1.1050235033035278,-0.9636291265487671,-0.4372609555721283
1759611134741303600,5.092303466796875,-0.889800488948822,-0.8064398169517517,-0.3793707489967346
1759611134751386400,5.102386474609375,-0.6020416617393494,-0.6170831918716431,-0.3291318118572235
1759611134761469400,5.112469482421875,-0.2794257700443268,-0.3972056806087494,-0.2751716375350952
1759611134771552300,5.12255224609375,0.04219245910644531,-0.14068947732448578,-0.2230815440416336
1759611134781635300,5.13263525390625,0.3556363880634308,0.142242893576622,-0.13459749519824982
1759611134791718400,5.142718505859375,0.6681884527206421,0.4617431163787842,-0.027908064424991608
1759611134801801500,5.152801513671875,0.9860780239105225,0.8201060891151428,0.08358065038919449
1759611134811884300,5.16288427734375,1.3069583177566528,1.1999479532241821,0.20655716955661774
1759611134821967400,5.17296728515625,1.6344780921936035,1.5661474466323853,0.3331907391548157
1759611134832050400,5.183050537109375,2.0055911540985107,1.8888070583343506,0.4309607148170471
1759611134842133500,5.193133544921875,2.4488487243652344,2.092890739440918,0.4796142578125
1759611134852216800,5.203216796875,2.9305381774902344,2.1555776596069336,0.4729851186275482
1759611134862300000,5.2132998046875,3.3457229137420654,2.0744807720184326,0.43945246934890747
1759611134872383200,5.22338330078125,3.66054630279541,1.8815158605575562,0.40169763565063477
1759611134882465000,5.233465087890625,3.8651599884033203,1.6178271770477295,0.3627214729785919
1759611134892548000,5.243548095703125,3.954516887664795,1.320251226425171,0.3383796513080597
1759611134902631200,5.253631103515625,3.923616886138916,1.0339224338531494,0.3085096478462219
1759611134912714000,5.2637138671875,3.783867835998535,0.7657570838928223,0.24548619985580444
1759611134922797000,5.273797119140625,3.568013906478882,0.5540536046028137,0.167984738945961
1759611134932880000,5.2838798828125,3.3207013607025146,0.47150254249572754,0.11536946892738342
1759611134942963200,5.293963134765625,3.043680191040039,0.510993242263794,0.11306264251470566
1759611134953046000,5.3040458984375,2.781581163406372,0.6082148551940918,0.1326214224100113
1759611134963129000,5.314129150390625,2.550055980682373,0.7472624778747559,0.1472214013338089
1759611134973212000,5.3242119140625,2.3706276416778564,0.9348717927932739,0.15206623077392578
1759611134983295000,5.334294921875,2.228219747543335,1.0569350719451904,0.11844728142023087
1759611134993378000,5.3443779296875,2.1445980072021484,1.1122164726257324,0.04691344499588013
1759611135003461000,5.354461181640625,2.1320157051086426,1.1486607789993286,-0.030104905366897583
1759611135013544200,5.364544189453125,2.2097527980804443,1.20287024974823,-0.13572640717029572
1759611135023627000,5.374626953125,2.3150837421417236,1.309802770614624,-0.24382011592388153
1759611135033710000,5.3847099609375,2.391849994659424,1.492102861404419,-0.326996773481369
1759611135043793000,5.39479296875,2.4156012535095215,1.7858625650405884,-0.3885227143764496
1759611135053876000,5.4048759765625,2.3791301250457764,2.16211199760437,-0.4403241276741028
1759611135063959000,5.414958984375,2.297292470932007,2.5566248893737793,-0.4782872200012207
1759611135074042000,5.4250419921875,2.1973178386688232,2.913198232650757,-0.5199816823005676
1759611135084125000,5.435125,2.093033790588379,3.1885266304016113,-0.5801728367805481
1759611135094208000,5.4452080078125,2.0077104568481445,3.378217935562134,-0.6463329195976257
1759611135104291000,5.455291015625,1.9457030296325684,3.533426523208618,-0.708693265914917
1759611135114374000,5.465373779296875,1.9205937385559082,3.6340291500091553,-0.7668085098266602
1759611135124457200,5.475457275390625,1.9146006107330322,3.638634204864502,-0.834220826625824
1759611135134540000,5.4855400390625,1.8960801362991333,3.5315797328948975,-0.9006088972091675
1759611135144623000,5.495623046875,1.8542133569717407,3.333392858505249,-0.9677972793579102
1759611135154706000,5.505705810546875,1.7765371799468994,3.073373794555664,-1.0270848274230957
1759611135164789000,5.5157890625,1.6712419986724854,2.7734782695770264,-1.0667719841003418
1759611135174871800,5.525871826171875,1.541272521018982,2.446434259414673,-1.100367784500122
1759611135184955100,5.535955078125,1.3829342126846313,2.0769660472869873,-1.1146907806396484
1759611135195038200,5.5460380859375,1.2028939723968506,1.6631449460983276,-1.100973129272461
1759611135205121000,5.55612109375,1.0005155801773071,1.2226362228393555,-1.0571372509002686
1759611135215204000,5.5662041015625,0.7831363081932068,0.7787405252456665,-0.9752399921417236
1759611135225287000,5.576286865234375,0.5715106129646301,0.41196519136428833,-0.864776074886322
1759611135235370000,5.586369873046875,0.38700470328330994,0.16687047481536865,-0.7466320991516113
1759611135245453000,5.596453125,0.22027485072612762,0.06162421405315399,-0.6356315612792969
1759611135255535000,5.60653515625,0.07616933435201645,0.05740097537636757,-0.5054373741149902
1759611135265618200,5.6166181640625,-0.029043901711702347,0.033362217247486115,-0.3338799774646759
1759611135275701000,5.626700927734375,-0.08854211866855621,0.009373794309794903,-0.15006087720394135
1759611135285784000,5.6367841796875,-0.12366468459367752,-0.09285004436969757,0.06909678131341934
1759611135295867000,5.646866943359375,-0.12965945899486542,-0.24518552422523499,0.29688119888305664
1759611135305950000,5.656949951171875,-0.15455655753612518,-0.4733031094074249,0.49243977665901184
1759611135316033000,5.667032958984375,-0.21833020448684692,-0.6914300918579102,0.6625664830207825
1759611135326116000,5.6771162109375,-0.3233516812324524,-0.8748515844345093,0.822492778301239
1759611135336199200,5.68719921875,-0.4796028137207031,-1.039042353630066,0.9668667316436768
1759611135346282000,5.697281982421875,-0.6951777338981628,-1.1679455041885376,1.1106598377227783
1759611135356365000,5.707364990234375,-0.9550257921218872,-1.257290005683899,1.2304000854492188
1759611135366447900,5.71744775390625,-1.250684380531311,-1.3402690887451172,1.3045361042022705
1759611135376531200,5.72753125,-1.5644513368606567,-1.4068512916564941,1.3338991403579712
1759611135386614000,5.737614013671875,-1.8786110877990723,-1.456459879875183,1.3464239835739136
1759611135396697000,5.747697021484375,-2.1944689750671387,-1.5337661504745483,1.349689245223999
1759611135406780000,5.75777978515625,-2.5105419158935547,-1.6739991903305054,1.3366717100143433
1759611135416863000,5.767863037109375,-2.8316898345947266,-1.9262601137161255,1.2906954288482666
1759611135426946000,5.777946044921875,-3.148859977722168,-2.3211653232574463,1.2151063680648804
1759611135437029000,5.788029052734375,-3.4427099227905273,-2.844813585281372,1.1166666746139526
1759611135447112200,5.7981123046875,-3.674579381942749,-3.401503086090088,1.0245606899261475
1759611135457195000,5.808195068359375,-3.817554473876953,-3.8862082958221436,0.926132082939148
1759611135467278000,5.818278076171875,-3.8757786750793457,-4.1919074058532715,0.8117392063140869
1759611135477361000,5.82836083984375,-3.8703768253326416,-4.286017894744873,0.6890529990196228
1759611135487444000,5.83844384765625,-3.833117723464966,-4.193687438964844,0.5739439725875854
1759611135497527000,5.848527099609375,-3.782883644104004,-3.9541478157043457,0.5008777379989624
1759611135507610000,5.858610107421875,-3.736666679382324,-3.6119565963745117,0.44731518626213074
1759611135517693000,5.86869287109375,-3.6900393962860107,-3.234137773513794,0.41084185242652893
1759611135527776000,5.87877587890625,-3.6316356658935547,-2.8245339393615723,0.3849940299987793
1759611135537859000,5.888859130859375,-3.5504918098449707,-2.3797106742858887,0.37637630105018616
1759611135547942000,5.89894189453125,-3.455456018447876,-1.9190810918807983,0.38316789269447327
1759611135558025200,5.909025146484375,-3.3482072353363037,-1.464551329612732,0.3939305245876312
1759611135568108000,5.91910791015625,-3.250613212585449,-1.0825334787368774,0.39804962277412415
1759611135578191000,5.929191162109375,-3.167147636413574,-0.7925357222557068,0.40017083287239075
1759611135588274000,5.93927392578125,-3.1040170192718506,-0.6007412075996399,0.3902641534805298
1759611135598357000,5.94935693359375,-3.0591087341308594,-0.5059036612510681,0.3747144937515259
1759611135608439800,5.959439697265625,-3.0243396759033203,-0.4828875660896301,0.3615078628063202
1759611135618521900,5.96952197265625,-2.9891979694366455,-0.5270448923110962,0.3380398154258728
1759611135628605200,5.979605224609375,-2.9482226371765137,-0.6421376466751099,0.3122708201408386
1759611135638688000,5.98968798828125,-2.8986785411834717,-0.8235764503479004,0.2764073610305786
1759611135648771000,5.99977099609375,-2.8307578563690186,-1.057015299797058,0.2173600196838379
1759611135658854000,6.00985400390625,-2.7444875240325928,-1.3212170600891113,0.1489655077457428
1759611135668937000,6.01993701171875,-2.643944025039673,-1.5973975658416748,0.05740896239876747
1759611135679020000,6.03002001953125,-2.532083511352539,-1.8713908195495605,-0.05151325836777687
1759611135689103000,6.04010302734375,-2.4033875465393066,-2.0990350246429443,-0.1669815331697464
1759611135699186200,6.050186279296875,-2.262540102005005,-2.2487897872924805,-0.27847397327423096
1759611135709269000,6.06026904296875,-2.103820562362671,-2.3064234256744385,-0.36998817324638367
1759611135719352000,6.07035205078125,-1.934791088104248,-2.2566123008728027,-0.4365437626838684
1759611135729435000,6.080434814453125,-1.7555317878723145,-2.0944793224334717,-0.4660412073135376
1759611135739518000,6.09051806640625,-1.5722498893737793,-1.8725433349609375,-0.4734589159488678
1759611135749601000,6.10060107421875,-1.3542873859405518,-1.6438980102539062,-0.47214144468307495
1759611135759684000,6.11068408203125,-1.1245405673980713,-1.4571783542633057,-0.4890269339084625
1759611135769767200,6.12076708984375,-0.8959883451461792,-1.3015896081924438,-0.5127536058425903
1759611135779850000,6.13085009765625,-0.6751326322555542,-1.1384259462356567,-0.5279386639595032
1759611135789933000,6.14093310546875,-0.44843557476997375,-0.9443313479423523,-0.5028681755065918
1759611135800016000,6.151015869140625,-0.20255737006664276,-0.7442677617073059,-0.43655627965927124
1759611135810099200,6.16109912109375,0.035237349569797516,-0.5940689444541931,-0.3543892502784729
1759611135820182000,6.17118212890625,0.24567155539989471,-0.5187762975692749,-0.27671176195144653
1759611135830265000,6.18126513671875,0.46945589780807495,-0.4794369041919708,-0.19709016382694244
1759611135840348000,6.191347900390625,0.712581992149353,-0.3848544657230377,-0.05927690491080284
1759611135850431000,6.201430908203125,0.9547837376594543,-0.2066621035337448,0.12962856888771057
1759611135860514000,6.21151416015625,1.1793925762176514,0.023556191474199295,0.32064327597618103
1759611135870597000,6.22159716796875,1.423221230506897,0.2944659888744354,0.4964773952960968
1759611135880680200,6.23168017578125,1.7339503765106201,0.6064994931221008,0.664543092250824
1759611135890763000,6.241762939453125,2.1052629947662354,0.9386628270149231,0.8186061978340149
1759611135900846000,6.25184619140625,2.5085196495056152,1.244408369064331,0.9469684362411499
1759611135910929000,6.261928955078125,2.8840911388397217,1.4851844310760498,1.0321764945983887
1759611135921012000,6.272011962890625,3.2069859504699707,1.6432849168777466,1.0785211324691772
1759611135931095000,6.282094970703125,3.4377763271331787,1.7338992357254028,1.0838261842727661
1759611135941178000,6.29217822265625,3.5662827491760254,1.7349804639816284,1.0684930086135864
1759611135951261000,6.302260986328125,3.6067028045654297,1.6436017751693726,1.0267047882080078
1759611135961343000,6.312343017578125,3.593844413757324,1.5372178554534912,0.9749979376792908
1759611135971426000,6.322426025390625,3.5312390327453613,1.4795172214508057,0.9361437559127808
1759611135981508900,6.3325087890625,3.4206273555755615,1.5174084901809692,0.9123526215553284
1759611135991592000,6.342592041015625,3.277484655380249,1.644215703010559,0.8881567716598511
1759611136001675000,6.352675048828125,3.1107051372528076,1.8345800638198853,0.8679699897766113
1759611136011758000,6.362758056640625,2.960904359817505,2.0646069049835205,0.8478034734725952
1759611136021841200,6.372841064453125,2.860349178314209,2.3398804664611816,0.8103743195533752
1759611136031924000,6.382924072265625,2.834489583969116,2.629668951034546,0.7377222776412964
1759611136042007000,6.393007080078125,2.883955478668213,2.928992986679077,0.629794180393219
1759611136052089900,6.40308984375,2.9592349529266357,3.223019599914551,0.5183315873146057
1759611136062173200,6.413173095703125,3.0246477127075195,3.507694721221924,0.4148062467575073
1759611136072256000,6.423256103515625,3.059431791305542,3.7877132892608643,0.31618672609329224
1759611136082339000,6.433339111328125,3.0588173866271973,4.078976154327393,0.24491681158542633
1759611136092422000,6.443421875,3.0227606296539307,4.380734920501709,0.19717618823051453
1759611136102505000,6.4535048828125,2.9623992443084717,4.684386253356934,0.14478860795497894
1759611136112588000,6.463588134765625,2.8780171871185303,4.972265720367432,0.07761729508638382
1759611136122671000,6.473671142578125,2.7657148838043213,5.219995021820068,-0.009377256035804749
1759611136132754200,6.483754150390625,2.646500825881958,5.395571708679199,-0.09111819416284561
1759611136142837000,6.4938369140625,2.5243451595306396,5.467185020446777,-0.19385787844657898
1759611136152920000,6.503920166015625,2.402492046356201,5.425768852233887,-0.3296479284763336
1759611136163003000,6.5140029296875,2.2906181812286377,5.268392086029053,-0.4759044945240021
1759611136173086000,6.5240859375,2.180361032485962,5.0194926261901855,-0.6115382313728333
1759611136183169000,6.5341689453125,2.073061227798462,4.708806991577148,-0.718929648399353
1759611136193252000,6.544252197265625,1.960369348526001,4.333644390106201,-0.8076028227806091
1759611136203335200,6.554335205078125,1.8409385681152344,3.9075119495391846,-0.8636953830718994
1759611136213418000,6.56441796875,1.72297203540802,3.4592525959014893,-0.8962490558624268
1759611136223501000,6.5745009765625,1.609804391860962,3.0347883701324463,-0.9183713793754578
1759611136233583900,6.584583984375,1.5046615600585938,2.661756753921509,-0.9165308475494385
1759611136243667200,6.594667236328125,1.3992969989776611,2.3286759853363037,-0.9053157567977905
1759611136253750000,6.60475,1.294472098350525,2.0325539112091064,-0.9044824838638306
1759611136263833000,6.6148330078125,1.2011964321136475,1.7850079536437988,-0.909019410610199
1759611136273916000,6.624916015625,1.1006860733032227,1.53641939163208,-0.877488374710083
1759611136283999000,6.6349990234375,0.983590841293335,1.3014391660690308,-0.8266063332557678
1759611136294082000,6.64508203125,0.851397693157196,1.1011691093444824,-0.7637764811515808
1759611136304163800,6.655163818359375,0.6912649869918823,0.9134432077407837,-0.6675087809562683
1759611136314247200,6.6652470703125,0.5046581029891968,0.7553457021713257,-0.5477038621902466
1759611136324330000,6.675330078125,0.30567416548728943,0.6034970879554749,-0.40383827686309814
1759611136334413000,6.6854130859375,0.104969821870327,0.4520862400531769,-0.24831953644752502
1759611136344496000,6.69549609375,-0.08062027394771576,0.2806124985218048,-0.0907224491238594
1759611136354579000,6.705578857421875,-0.23243936896324158,0.08798205107450485,0.07692088186740875
1759611136364662000,6.715662109375,-0.3419163227081299,-0.09458589553833008,0.2448457032442093
1759611136374745000,6.7257451171875,-0.4194715619087219,-0.267564594745636,0.39113926887512207
1759611136384828200,6.735828125,-0.4932163655757904,-0.4514031410217285,0.51771080493927
1759611136394911000,6.745910888671875,-0.5802186131477356,-0.6357799172401428,0.6516808271408081
1759611136404994000,6.755994140625,-0.6786506772041321,-0.8575013875961304,0.7811195254325867
1759611136415076900,6.766076904296875,-0.7674604654312134,-1.1396936178207397,0.8885754346847534
1759611136425160000,6.776159912109375,-0.8533551096916199,-1.461167812347412,0.9679482579231262
1759611136435243000,6.786242919921875,-0.9647415280342102,-1.7378231287002563,1.0330103635787964
1759611136445326000,6.796326171875,-1.1221522092819214,-1.9497145414352417,1.0913892984390259
1759611136455409200,6.8064091796875,-1.3375481367111206,-2.1312263011932373,1.114349126815796
1759611136465492000,6.816491943359375,-1.5955735445022583,-2.3462774753570557,1.1081293821334839
1759611136475575000,6.826574951171875,-1.864484429359436,-2.6557371616363525,1.0775096416473389
1759611136485657900,6.836657958984375,-2.1288020610809326,-3.0587408542633057,1.0231958627700806
1759611136495741200,6.8467412109375,-2.3696389198303223,-3.4816513061523438,0.9537158012390137
1759611136505824000,6.856823974609375,-2.568483829498291,-3.8557019233703613,0.88958340883255
1759611136515907000,6.866906982421875,-2.7253646850585938,-4.063735485076904,0.8371162414550781
1759611136525990000,6.876989990234375,-2.832716464996338,-4.0781965255737305,0.8133996725082397
1759611136536073000,6.887072998046875,-2.9025301933288574,-3.947660446166992,0.8205729126930237
1759611136546156000,6.897156005859375,-2.93233323097229,-3.739689588546753,0.8285496234893799
1759611136556239000,6.907239013671875,-2.9389004707336426,-3.532769203186035,0.8333914875984192
1759611136566322200,6.917322265625,-2.925027370452881,-3.3634016513824463,0.8264417052268982
1759611136576405000,6.927405029296875,-2.8973305225372314,-3.2514281272888184,0.8099221587181091
1759611136586488000,6.937488037109375,-2.8754515647888184,-3.197777271270752,0.7855414152145386
1759611136596571000,6.94757080078125,-2.8611927032470703,-3.156677484512329,0.7567244172096252
1759611136606654000,6.957654052734375,-2.86329984664917,-3.113208293914795,0.7340444326400757
1759611136616737000,6.967737060546875,-2.8770623207092285,-3.0497477054595947,0.7090125679969788
1759611136626820000,6.977820068359375,-2.89400577545166,-2.9771580696105957,0.6761012077331543
1759611136636903200,6.987903076171875,-2.899949073791504,-2.897840976715088,0.6306527853012085
1759611136646986000,6.997986083984375,-2.8776631355285645,-2.817192554473877,0.5693073868751526
1759611136657068000,7.008068115234375,-2.8323988914489746,-2.7338616847991943,0.5054869055747986
1759611136667150800,7.01815087890625,-2.767573595046997,-2.660982608795166,0.4405829906463623
1759611136677234000,7.02823388671875,-2.701434850692749,-2.583759069442749,0.37693077325820923
1759611136687317200,7.038317138671875,-2.6360855102539062,-2.479720115661621,0.32370641827583313
1759611136697400000,7.048400146484375,-2.581699848175049,-2.3604319095611572,0.27323925495147705
1759611136707483100,7.058483154296875,-2.5355684757232666,-2.2384769916534424,0.20402556657791138
1759611136717566000,7.06856591796875,-2.496800661087036,-2.142369270324707,0.11857165396213531
1759611136727649000,7.07864892578125,-2.448503017425537,-2.068617343902588,0.00999218039214611
1759611136737731800,7.08873193359375,-2.37440824508667,-2.0049421787261963,-0.11091000586748123
1759611136747815200,7.098815185546875,-2.273505926132202,-1.915018081665039,-0.2298949807882309
1759611136757898000,7.10889794921875,-2.16156005859375,-1.819433569908142,-0.3385668694972992
1759611136767981000,7.11898095703125,-2.0467381477355957,-1.7207200527191162,-0.4335692822933197
1759611136778064100,7.129064208984375,-1.9426665306091309,-1.6387308835983276,-0.5235601663589478
1759611136788147000,7.13914697265625,-1.868239402770996,-1.557176947593689,-0.6104918718338013
1759611136798230000,7.14922998046875,-1.792688250541687,-1.4893221855163574,-0.686278760433197
1759611136808313000,7.15931298828125,-1.7081093788146973,-1.438366413116455,-0.7546170949935913
1759611136818396200,7.169396240234375,-1.6011137962341309,-1.3911805152893066,-0.8016961812973022
1759611136828479000,7.17947900390625,-1.466905117034912,-1.345820665359497,-0.8050869107246399
1759611136838562000,7.18956201171875,-1.314489722251892,-1.278346300125122,-0.7774158716201782
1759611136848644600,7.19964453125,-1.1409064531326294,-1.1800026893615723,-0.7268784046173096
1759611136858727700,7.209727783203125,-0.9571859240531921,-1.0263590812683105,-0.6486919522285461
1759611136868810800,7.219810791015625,-0.7363227605819702,-0.8420310616493225,-0.5437218546867371
1759611136878893600,7.2298935546875,-0.48603808879852295,-0.6506587266921997,-0.4227136969566345
1759611136888976600,7.2399765625,-0.18667267262935638,-0.4843432307243347,-0.2845710217952728
1759611136899059500,7.2500595703125,0.14384877681732178,-0.33159178495407104,-0.1338113248348236
1759611136909142800,7.260142822265625,0.49934935569763184,-0.18608438968658447,0.016768593341112137
1759611136919225600,7.2702255859375,0.8607709407806396,-0.041495777666568756,0.15474137663841248
1759611136929308700,7.28030859375,1.2254852056503296,0.10646519064903259,0.2652455270290375
1759611136939391500,7.2903916015625,1.5911686420440674,0.23386628925800323,0.3372265100479126
1759611136949474600,7.300474609375,1.9508051872253418,0.3574926257133484,0.4196438789367676
1759611136959558000,7.310557861328125,2.266515016555786,0.4866226315498352,0.5073095560073853
1759611136969640700,7.320640625,2.521216630935669,0.6136820316314697,0.5942844152450562
1759611136979723800,7.330723876953125,2.730696201324463,0.7984990477561951,0.6739128828048706
1759611136989806600,7.340806640625,2.92844820022583,1.0407599210739136,0.7372652292251587
1759611136999889700,7.3508896484375,3.1180078983306885,1.276380181312561,0.7797711491584778
1759611137009971700,7.3609716796875,3.2868950366973877,1.4622712135314941,0.7958545088768005
1759611137020054500,7.371054443359375,3.412655830383301,1.5857267379760742,0.7960020899772644
1759611137030137600,7.3811376953125,3.5003702640533447,1.6659294366836548,0.7584608197212219
1759611137040220700,7.391220703125,3.5013701915740967,1.6865124702453613,0.6736231446266174
1759611137050303700,7.4013037109375,3.3866615295410156,1.6325726509094238,0.5546863675117493
1759611137060386600,7.411386474609375,3.1543874740600586,1.5275510549545288,0.41649574041366577
1759611137070469600,7.4214697265625,2.861170768737793,1.4162237644195557,0.2843872606754303
1759611137080552700,7.431552734375,2.5446560382843018,1.3080108165740967,0.17234086990356445
1759611137090635500,7.441635498046875,2.2670466899871826,1.249285101890564,0.11044927686452866
1759611137100718800,7.45171875,2.072230339050293,1.2484054565429688,0.08563527464866638
1759611137110801700,7.4618017578125,2.002640962600708,1.2896599769592285,0.05386855825781822
1759611137120884700,7.471884765625,2.055399179458618,1.2876306772232056,-0.0015872439835220575
1759611137130967600,7.481967529296875,2.206289052963257,1.293218731880188,-0.08785422146320343
1759611137141050600,7.492050537109375,2.412858724594116,1.3299533128738403,-0.16918982565402985
1759611137151133400,7.502133544921875,2.634212017059326,1.467449426651001,-0.22718282043933868
1759611137161216800,7.512216796875,2.8278555870056152,1.72679603099823,-0.2576693594455719
1759611137171299600,7.522299560546875,2.981872797012329,2.103055715560913,-0.28072115778923035
1759611137181382700,7.532382568359375,3.075178384780884,2.5250425338745117,-0.2887686789035797
1759611137191465700,7.5424658203125,3.119938373565674,2.9371771812438965,-0.27764174342155457
1759611137201548500,7.552548583984375,3.105165481567383,3.3060309886932373,-0.2649485766887665
1759611137211631600,7.562631591796875,3.0684962272644043,3.6041362285614014,-0.2825528681278229
1759611137221714700,7.572714599609375,3.005575180053711,3.8249969482421875,-0.321137011051178
1759611137231797800,7.5827978515625,2.944566011428833,3.9894189834594727,-0.3879415988922119
1759611137241880600,7.592880615234375,2.8796725273132324,4.091392517089844,-0.4698335528373718
1759611137251963600,7.602963623046875,2.8233392238616943,4.130200386047363,-0.5584070682525635
1759611137262046500,7.61304638671875,2.7764599323272705,4.121131896972656,-0.6484520435333252
1759611137272129500,7.623129638671875,2.731496810913086,4.044483184814453,-0.7186566591262817
1759611137282212600,7.633212646484375,2.683946132659912,3.8871426582336426,-0.7716181874275208
1759611137292295700,7.643295654296875,2.633915901184082,3.6479344367980957,-0.8266281485557556
1759611137302378800,7.653378662109375,2.5693321228027344,3.346116542816162,-0.8671920895576477
1759611137312461600,7.663461669921875,2.49424147605896,3.004915237426758,-0.9088205099105835
1759611137322544600,7.673544677734375,2.3995144367218018,2.6204051971435547,-0.9398851990699768
1759611137332627500,7.68362744140625,2.2848167419433594,2.1956794261932373,-0.9598578214645386
1759611137342710800,7.693710693359375,2.141339063644409,1.7485018968582153,-0.9591249227523804
1759611137352793600,7.703793701171875,1.990866780281067,1.3157360553741455,-0.9250447154045105
1759611137362876700,7.713876708984375,1.8257806301116943,0.9260061383247375,-0.8663824796676636
1759611137372959500,7.72395947265625,1.6375724077224731,0.6131299734115601,-0.7813466787338257
1759611137383042600,7.73404248046875,1.4232350587844849,0.3765837550163269,-0.6802791953086853
1759611137393125600,7.744125732421875,1.2034540176391602,0.21210293471813202,-0.5675912499427795
1759611137403207400,7.75420751953125,0.9746913909912109,0.0935981273651123,-0.4471080005168915
1759611137413290800,7.764290771484375,0.7272429466247559,-0.006683202926069498,-0.32536184787750244
1759611137423373800,7.774373779296875,0.4573547840118408,-0.09263405948877335,-0.19164159893989563
1759611137433456600,7.78445654296875,0.16362115740776062,-0.1843687742948532,-0.04915449768304825
1759611137443539700,7.794539794921875,-0.14251773059368134,-0.2882126271724701,0.10877388715744019
1759611137453622500,7.80462255859375,-0.4460967779159546,-0.420881986618042,0.26552435755729675
1759611137463705600,7.81470556640625,-0.7362585663795471,-0.5754579901695251,0.4196758270263672
1759611137473788700,7.82478857421875,-1.0076419115066528,-0.7180145978927612,0.5640998482704163
1759611137483871700,7.834871826171875,-1.269149899482727,-0.8246598243713379,0.6986315846443176
1759611137493954600,7.84495458984375,-1.5150848627090454,-0.8917035460472107,0.8146284818649292
1759611137504037600,7.85503759765625,-1.745172142982483,-0.9370931386947632,0.9175359606742859
1759611137514120700,7.86512060546875,-1.9441938400268555,-1.0136501789093018,0.9944648146629333
1759611137524203500,7.87520361328125,-2.118196487426758,-1.148929476737976,1.0389460325241089
1759611137534286800,7.885286865234375,-2.2915358543395996,-1.3201329708099365,1.0489118099212646
1759611137544369700,7.89536962890625,-2.49310302734375,-1.4653428792953491,1.03079092502594
1759611137554452700,7.90545263671875,-2.7676775455474854,-1.5639429092407227,1.0068719387054443
1759611137564535600,7.91553564453125,-3.1228530406951904,-1.6205403804779053,0.9887092113494873
1759611137574618600,7.92561865234375,-3.5472216606140137,-1.6756079196929932,0.996066153049469
1759611137584700700,7.93570068359375,-3.9856338500976562,-1.7758421897888184,1.0124927759170532
1759611137594783500,7.945783447265625,-4.352902889251709,-1.9485564231872559,1.0317299365997314
1759611137604866800,7.95586669921875,-4.544569492340088,-2.18533992767334,1.0185608863830566
1759611137614949600,7.96594970703125,-4.5151286125183105,-2.421708822250366,0.9911662340164185
1759611137625032700,7.97603271484375,-4.2953410148620605,-2.5505149364471436,0.9654856324195862
1759611137635115500,7.986115478515625,-3.997959613800049,-2.5124731063842773,0.9482246041297913
1759611137645198600,7.996198486328125,-3.7233479022979736,-2.320849895477295,0.9378372430801392
1759611137655281700,8.00628173828125,-3.53792142868042,-2.032172679901123,0.9183037281036377
1759611137665364700,8.01636474609375,-3.459920644760132,-1.75474214553833,0.8767669796943665
1759611137675447800,8.02644775390625,-3.4549005031585693,-1.5570423603057861,0.8317912220954895
1759611137685530600,8.036530517578125,-3.469703197479248,-1.4497710466384888,0.7928054928779602
1759611137695613700,8.04661376953125,-3.472102165222168,-1.3979052305221558,0.7736743688583374
1759611137705696500,8.056696533203125,-3.4473984241485596,-1.3865654468536377,0.7547257542610168
1759611137715779600,8.066779541015626,-3.4032537937164307,-1.4373924732208252,0.7457319498062134
1759611137725862700,8.076862548828124,-3.344329595565796,-1.5663347244262695,0.7327091097831726
1759611137735945700,8.08694580078125,-3.2851755619049072,-1.7691667079925537,0.7067006826400757
1759611137746028500,8.097028564453124,-3.2354536056518555,-2.0304195880889893,0.6440420746803284
1759611137756111600,8.107111572265625,-3.2074429988861084,-2.3215692043304443,0.5472007989883423
1759611137766193700,8.117193603515625,-3.169595956802368,-2.58943510055542,0.42457231879234314
1759611137776276500,8.1272763671875,-3.089996814727783,-2.8034510612487793,0.2944428026676178
1759611137786359600,8.137359619140625,-2.9640767574310303,-2.9583230018615723,0.16108156740665436
1759611137796442600,8.147442626953126,-2.782182455062866,-3.047811508178711,0.04246516898274422
1759611137806525700,8.157525634765625,-2.5712106227874756,-3.0655949115753174,-0.07021424174308777
1759611137816608800,8.16760888671875,-2.357550621032715,-2.9884321689605713,-0.18206806480884552
1759611137826691600,8.177691650390624,-2.1691834926605225,-2.8210229873657227,-0.2834940254688263
1759611137836774700,8.187774658203125,-2.023531913757324,-2.6085522174835205,-0.3738633394241333
1759611137846857500,8.197857421875,-1.9211723804473877,-2.3720664978027344,-0.46108052134513855
1759611137856940500,8.2079404296875,-1.8361231088638306,-2.1474292278289795,-0.535430371761322
1759611137867023400,8.2180234375,-1.7680503129959106,-1.954993486404419,-0.5843337774276733
1759611137877106400,8.2281064453125,-1.7044934034347534,-1.8033978939056396,-0.6102526783943176
1759611137887189500,8.238189453125,-1.6372206211090088,-1.686653733253479,-0.6152780652046204
1759611137897272600,8.2482724609375,-1.563758373260498,-1.597008466720581,-0.6159923672676086
1759611137907355600,8.258355712890625,-1.4809322357177734,-1.5333921909332275,-0.6192762851715088
1759611137917438500,8.2684384765625,-1.392877459526062,-1.4685239791870117,-0.6329864859580994
1759611137927521500,8.278521484375,-1.3049670457839966,-1.3838602304458618,-0.6539642214775085
1759611137937604400,8.288604248046875,-1.2076958417892456,-1.260483741760254,-0.667755126953125
1759611137947687700,8.298687744140626,-1.0884435176849365,-1.1230108737945557,-0.6635121703147888
1759611137957770500,8.3087705078125,-0.9648318290710449,-0.9852604269981384,-0.6446887254714966
1759611137967854600,8.3188544921875,-0.8363308310508728,-0.8771547079086304,-0.610591471195221
1759611137977937400,8.3289375,-0.7019605040550232,-0.8010525107383728,-0.5504564642906189
1759611137988020500,8.3390205078125,-0.557399332523346,-0.7457210421562195,-0.4606075584888458
1759611137998103600,8.349103515625,-0.3905930519104004,-0.7009046077728271,-0.342731773853302
1759611138008186600,8.3591865234375,-0.21900425851345062,-0.6573296785354614,-0.20810739696025848
1759611138018269400,8.36926953125,-0.044262535870075226,-0.5913639664649963,-0.05912883207201958
1759611138028352500,8.3793525390625,0.15074637532234192,-0.49704253673553467,0.08946383744478226
1759611138038435600,8.389435546875,0.3655140697956085,-0.37267982959747314,0.21879759430885315
1759611138048518400,8.399518310546876,0.6143931150436401,-0.2063361257314682,0.3282631039619446
1759611138058601700,8.409601806640625,0.8873777985572815,0.0017904432024806738,0.4719124138355255
1759611138068684500,8.4196845703125,1.1416492462158203,0.2617354691028595,0.6438045501708984
1759611138078766600,8.4297666015625,1.3735578060150146,0.5667430758476257,0.8190602660179138
1759611138088849700,8.439849609375,1.6268060207366943,0.9160264730453491,0.9894125461578369
1759611138098932500,8.449932373046876,1.9058915376663208,1.3033851385116577,1.1387096643447876
1759611138109015600,8.460015625,2.191460371017456,1.6612348556518555,1.2522090673446655
1759611138119098400,8.470098388671875,2.433351516723633,1.94916570186615,1.3186668157577515
1759611138129181700,8.480181640625,2.605761766433716,2.140166759490967,1.3325475454330444
1759611138139264500,8.490264404296875,2.696669816970825,2.269559144973755,1.3133230209350586
1759611138149347600,8.50034765625,2.7177348136901855,2.3588411808013916,1.2571254968643188
1759611138159430400,8.510430419921875,2.6560299396514893,2.383652925491333,1.2089691162109375
1759611138169513500,8.520513427734375,2.5100858211517334,2.3277134895324707,1.1822344064712524
1759611138179596500,8.530596435546874,2.287997245788574,2.2463884353637695,1.1554588079452515
1759611138189679600,8.5406796875,2.015007495880127,2.2132163047790527,1.0937058925628662
1759611138199762700,8.5507626953125,1.7452176809310913,2.253711223602295,0.9588924646377563
1759611138209845500,8.560845458984375,1.5357075929641724,2.435753107070923,0.7585551142692566
1759611138219928600,8.570928466796875,1.4550491571426392,2.8274378776550293,0.5147397518157959
1759611138230011400,8.581011474609374,1.4865245819091797,3.35343599319458,0.24531522393226624
1759611138240094500,8.591094482421875,1.5425646305084229,3.8426718711853027,-0.04090295732021332
1759611138250177500,8.601177490234376,1.5577892065048218,4.2530317306518555,-0.34515953063964844
1759611138260260600,8.611260498046875,1.5307942628860474,4.559659957885742,-0.6331644058227539
1759611138270343400,8.621343505859375,1.467982292175293,4.626482963562012,-0.8957661986351013
1759611138280426500,8.631426513671874,1.4216595888137817,4.4533514976501465,-1.1328506469726562
1759611138290509600,8.641509521484375,1.4345276355743408,3.9916186332702637,-1.411354422569275
1759611138300592400,8.65159228515625,1.5266008377075195,3.366001605987549,-1.665693759918213
1759611138310675700,8.66167578125,1.6467347145080566,2.683485984802246,-1.885948896408081
1759611138320758500,8.671758544921875,1.7552945613861084,2.0266997814178467,-2.0407555103302
1759611138330841600,8.681841552734374,1.8413658142089844,1.4673227071762085,-2.220846176147461
1759611138340924400,8.69192431640625,1.9202704429626465,1.1031486988067627,-2.372225522994995
1759611138351007500,8.702007568359376,2.0289292335510254,0.9977157711982727,-2.369298219680786
1759611138361090300,8.71209033203125,2.2093677520751953,1.0383126735687256,-2.2579550743103027
1759611138371173600,8.722173583984375,2.471036911010742,1.0684373378753662,-2.1015965938568115
1759611138381256700,8.732256591796874,2.814129590988159,1.0149568319320679,-1.9486618041992188
1759611138391339500,8.742339599609375,3.164818048477173,1.023193359375,-1.837380290031433
1759611138401422600,8.752422607421876,3.3828420639038086,1.160217046737671,-1.7538872957229614
1759611138411505400,8.76250537109375,3.404172420501709,1.3827478885650635,-1.6930791139602661
1759611138421588500,8.77258837890625,3.28775954246521,1.5853794813156128,-1.6487460136413574
1759611138431671600,8.782671630859374,3.121397018432617,1.7015495300292969,-1.6236475706100464
1759611138441754600,8.792754638671875,2.96589994430542,1.7309489250183105,-1.5990777015686035
1759611138451837400,8.80283740234375,2.8737027645111084,1.69158935546875,-1.5742254257202148
1759611138461920500,8.81292041015625,2.858604669570923,1.5889630317687988,-1.5371943712234497
1759611138472003600,8.823003662109375,2.8949713706970215,1.4422982931137085,-1.4938660860061646
1759611138482086400,8.83308642578125,2.9338085651397705,1.2658283710479736,-1.4296517372131348
1759611138492169700,8.843169677734375,2.9248814582824707,1.0760947465896606,-1.3390456438064575
1759611138502251500,8.85325146484375,2.850029706954956,0.8814684748649597,-1.221765398979187
1759611138512335600,8.863335693359375,2.708803653717041,0.6826770901679993,-1.0955842733383179
1759611138522417700,8.873417724609375,2.5173122882843018,0.5275684595108032,-0.9634813666343689
1759611138532500500,8.88350048828125,2.294006109237671,0.41146770119667053,-0.8329057693481445
1759611138542583600,8.89358349609375,2.0621397495269775,0.2999041676521301,-0.6986576914787292
1759611138552666400,8.903666259765625,1.8501741886138916,0.24231277406215668,-0.5627336502075195
1759611138562749700,8.913749755859374,1.6578187942504883,0.2169453650712967,-0.4072710871696472
1759611138572832500,8.92383251953125,1.486591100692749,0.2144230753183365,-0.23449985682964325
1759611138582915600,8.93391552734375,1.3332349061965942,0.22872132062911987,-0.06130862981081009
1759611138592998400,8.943998291015625,1.1674855947494507,0.23165559768676758,0.1157953068614006
1759611138603081500,8.95408154296875,0.9482057094573975,0.2174745351076126,0.296662837266922
1759611138613164500,8.96416455078125,0.6734026670455933,0.14182478189468384,0.49703481793403625
1759611138623247600,8.97424755859375,0.3739107549190521,-0.019756659865379333,0.6697580814361572
1759611138633330700,8.98433056640625,0.0876409038901329,-0.27996188402175903,0.7919812202453613
1759611138643413500,8.99441357421875,-0.17242875695228577,-0.5858888030052185,0.8961480855941772
1759611138653496600,9.00449658203125,-0.4052729308605194,-0.9037341475486755,1.0127439498901367
1759611138663579400,9.014579345703124,-0.6161692142486572,-1.2291744947433472,1.131887435913086
1759611138673662500,9.024662353515625,-0.8361316323280334,-1.5736584663391113,1.2271196842193604
1759611138683745500,9.03474560546875,-1.0657927989959717,-1.8886277675628662,1.2731499671936035
1759611138693828600,9.04482861328125,-1.290981411933899,-2.130126953125,1.2938344478607178
1759611138703911400,9.054911376953125,-1.4778485298156738,-2.2696523666381836,1.2935402393341064
1759611138713994500,9.064994384765624,-1.5942065715789795,-2.330526828765869,1.2714482545852661
1759611138724077600,9.07507763671875,-1.6470327377319336,-2.3117141723632812,1.2402173280715942
1759611138734160400,9.085160400390626,-1.6382206678390503,-2.194084882736206,1.2103856801986694
1759611138744243700,9.09524365234375,-1.6243447065353394,-1.9727789163589478,1.206324577331543
1759611138754326500,9.105326416015625,-1.6483614444732666,-1.6606780290603638,1.217954397201538
1759611138764409600,9.11540966796875,-1.737392544746399,-1.3243814706802368,1.2396866083145142
1759611138774492400,9.125492431640625,-1.8859201669692993,-1.021769642829895,1.2649929523468018
1759611138784575500,9.135575439453126,-2.0752429962158203,-0.7871736884117126,1.2835158109664917
1759611138794658300,9.145658203125,-2.2764194011688232,-0.6463702321052551,1.289089560508728
1759611138804741600,9.15574169921875,-2.4517674446105957,-0.6249621510505676,1.2978990077972412
1759611138814824700,9.16582470703125,-2.586430549621582,-0.7454786896705627,1.2890384197235107
1759611138824907500,9.175907470703125,-2.7074902057647705,-0.9667130708694458,1.2636734247207642
1759611138834990600,9.185990478515626,-2.8422839641571045,-1.2082055807113647,1.224835753440857
1759611138845073400,9.196073486328125,-3.0009407997131348,-1.4162802696228027,1.1922966241836548
1759611138855156500,9.206156494140625,-3.1846346855163574,-1.5689911842346191,1.1638442277908325
1759611138865239300,9.2162392578125,-3.373183250427246,-1.6910955905914307,1.1213178634643555
1759611138875322400,9.226322265625,-3.5336437225341797,-1.8344810009002686,1.0557929277420044
1759611138885405200,9.2364052734375,-3.6318180561065674,-2.034411668777466,0.9707874655723572
1759611138895488500,9.246488525390625,-3.6781957149505615,-2.291961431503296,0.8741336464881897
1759611138905571600,9.256571533203125,-3.6866772174835205,-2.5394821166992188,0.758156418800354
1759611138915654400,9.266654296875,-3.704836368560791,-2.717900514602661,0.6067304015159607
1759611138925737500,9.276737548828125,-3.7383100986480713,-2.7940542697906494,0.4333442449569702
1759611138935820300,9.2868203125,-3.7828691005706787,-2.7794580459594727,0.2619335949420929
1759611138945903400,9.2969033203125,-3.816092014312744,-2.7157928943634033,0.10593628883361816
1759611138955986400,9.306986328125,-3.8230538368225098,-2.628152370452881,-0.025124793872237206
1759611138966069500,9.317069580078124,-3.7908427715301514,-2.558176040649414,-0.13462518155574799
1759611138976152300,9.32715234375,-3.714125156402588,-2.517282485961914,-0.2410176694393158
1759611138986235400,9.3372353515625,-3.6016836166381836,-2.4722180366516113,-0.3398995101451874
1759611138996317400,9.3473173828125,-3.450305938720703,-2.4089813232421875,-0.43114393949508667
1759611139006400300,9.357400146484375,-3.281207323074341,-2.3743245601654053,-0.5258046388626099
1759611139016483300,9.3674833984375,-3.0918006896972656,-2.375028610229492,-0.6508374214172363
1759611139026566400,9.37756640625,-2.876784324645996,-2.4193687438964844,-0.7985533475875854
1759611139036649500,9.3876494140625,-2.64787220954895,-2.496781587600708,-0.9558191895484924
1759611139046732500,9.397732666015624,-2.412790536880493,-2.5909409523010254,-1.1078132390975952
1759611139056815400,9.4078154296875,-2.168426990509033,-2.701493978500366,-1.2504808902740479
1759611139066898400,9.4178984375,-1.9185034036636353,-2.843478202819824,-1.3830327987670898
1759611139076981200,9.427981201171875,-1.6840791702270508,-2.9952456951141357,-1.493742823600769
1759611139087064600,9.438064697265625,-1.478445053100586,-3.1588571071624756,-1.5850809812545776
1759611139097147400,9.4481474609375,-1.3192578554153442,-3.3023698329925537,-1.6615986824035645
1759611139107230500,9.45823046875,-1.1905845403671265,-3.3946611881256104,-1.738154649734497
1759611139117313300,9.468313232421876,-1.079951524734497,-3.412523031234741,-1.813248634338379
1759611139127396400,9.478396240234375,-0.9640885591506958,-3.3347408771514893,-1.870107889175415
1759611139137479400,9.4884794921875,-0.8399849534034729,-3.193275213241577,-1.8936678171157837
1759611139147562500,9.4985625,-0.7280376553535461,-3.0380594730377197,-1.8970263004302979
1759611139157645600,9.5086455078125,-0.6401554942131042,-2.9067060947418213,-1.8977121114730835
1759611139167728400,9.518728271484376,-0.5939725637435913,-2.8146979808807373,-1.9030336141586304
1759611139177811500,9.5288115234375,-0.5579162836074829,-2.746751308441162,-1.912182092666626
1759611139187894300,9.538894287109375,-0.5216027498245239,-2.698028802871704,-1.8961466550827026
1759611139197977300,9.548977294921874,-0.4846106171607971,-2.641260862350464,-1.8614318370819092
1759611139208060400,9.559060302734375,-0.42898890376091003,-2.554090976715088,-1.806370735168457
1759611139218143500,9.5691435546875,-0.3532653748989105,-2.4277780055999756,-1.724329948425293
1759611139228226300,9.579226318359375,-0.27258065342903137,-2.2542214393615723,-1.62295401096344
1759611139238309400,9.589309326171875,-0.18041931092739105,-2.0267086029052734,-1.4991024732589722
1759611139248392400,9.599392333984374,-0.0623837485909462,-1.7291052341461182,-1.342137098312378
1759611139258475300,9.609475341796875,0.06958227604627609,-1.3896137475967407,-1.1504522562026978
1759611139268558600,9.61955859375,0.21568168699741364,-1.067705750465393,-0.9608285427093506
1759611139278641400,9.629641357421875,0.37614700198173523,-0.8082563281059265,-0.8251631259918213
1759611139288724500,9.639724365234375,0.5147762298583984,-0.593176007270813,-0.7478291988372803
1759611139298807300,9.649807373046874,0.5789749622344971,-0.3543623387813568,-0.694195032119751
1759611139308890400,9.659890380859375,0.5731953382492065,-0.01056236308068037,-0.6746673583984375
1759611139318973200,9.66997314453125,0.5559383630752563,0.4592006206512451,-0.6358350515365601
1759611139329056500,9.680056396484375,0.531688392162323,0.9534617066383362,-0.48050588369369507
1759611139339139600,9.6901396484375,0.48345401883125305,1.4232697486877441,-0.18742182850837708
1759611139349222400,9.700222412109374,0.40150269865989685,1.8606065511703491,0.21234022080898285
1759611139359305500,9.710305419921875,0.290353000164032,2.1982171535491943,0.5649571418762207
1759611139369388300,9.72038818359375,0.1821753978729248,2.316281795501709,0.6761672496795654
1759611139379471400,9.730471435546875,0.14021223783493042,2.238527297973633,0.5667587518692017
1759611139389554400,9.740554443359375,0.250078022480011,2.069462299346924,0.3913413882255554
1759611139399637500,9.750637451171874,0.44917115569114685,1.8466678857803345,0.15005235373973846
1759611139409720300,9.76072021484375,0.6515804529190063,1.5838290452957153,-0.12562955915927887
1759611139419803400,9.770803466796876,0.7846758961677551,1.1923161745071411,-0.3566686511039734
1759611139429886500,9.780886474609375,0.7718480229377747,0.59616619348526,-0.48112747073173523
1759611139439969300,9.79096923828125,0.5876520276069641,-0.18271282315254211,-0.513165295124054
1759611139450052600,9.801052490234374,0.28400349617004395,-1.0650238990783691,-0.4871893525123596
1759611139460135400,9.811135498046875,-0.054252851754426956,-1.9599006175994873,-0.44234174489974976
1759611139470217500,9.821217529296876,-0.34435099363327026,-2.7879385948181152,-0.3980634808540344
1759611139480301300,9.83130126953125,-0.5511710047721863,-3.5031561851501465,-0.3692736327648163
1759611139490383400,9.84138330078125,-0.6581776142120361,-4.067039966583252,-0.3478061854839325
1759611139500466400,9.851466552734376,-0.6946110129356384,-4.455456256866455,-0.3271661400794983
1759611139510549200,9.86154931640625,-0.68448805809021,-4.647306442260742,-0.29570648074150085
1759611139520632600,9.871632568359376,-0.6440356969833374,-4.647005081176758,-0.2646732032299042
1759611139530715400,9.88171533203125,-0.5731061100959778,-4.490751266479492,-0.2087327092885971
1759611139540798500,9.891798583984375,-0.4830350875854492,-4.201937198638916,-0.1336272954940796
1759611139550881300,9.90188134765625,-0.37420713901519775,-3.7781195640563965,-0.015536349266767502
1759611139560964400,9.91196435546875,-0.23628577589988708,-3.2429301738739014,0.135949045419693
1759611139571047400,9.92204736328125,-0.07167045772075653,-2.684457540512085,0.2393593192100525
1759611139581130500,9.932130615234374,0.20730338990688324,-2.1694090366363525,0.26492273807525635
1759611139591213600,9.942213623046875,0.6106806993484497,-1.924636960029602,0.31656143069267273
1759611139601296400,9.95229638671875,1.1295955181121826,-1.4598772525787354,0.2992998957633972
1759611139611379500,9.96237939453125,1.3018369674682617,-0.4424929916858673,0.20692388713359833
1759611139621462300,9.972462158203125,1.0973488092422485,0.49374687671661377,0.17804722487926483
1759611139631545300,9.98254541015625,0.9017838835716248,1.1874473094940186,0.12417387962341309
1759611139641628400,9.99262841796875,0.733271062374115,1.697366714477539,0.07161533087491989
1759611139651711500,10.00271142578125,0.6411797404289246,1.9123656749725342,0.024510668590664864
1759611139661794300,10.012794189453125,0.661479651927948,1.8309943675994873,-0.004956941585987806
1759611139671877400,10.02287744140625,0.7436909079551697,1.5180494785308838,-0.03847122564911842
1759611139681960400,10.03296044921875,0.8201582431793213,1.0783735513687134,-0.07070533186197281
1759611139692043300,10.043043212890625,0.8415804505348206,0.5121903419494629,-0.1792440563440323
1759611139702126600,10.053126708984376,0.7850189208984375,-0.04856753721833229,-0.30002719163894653
1759611139712209400,10.06320947265625,0.6884458065032959,-0.47384798526763916,-0.1383429616689682
1759611139722292500,10.07329248046875,0.5531723499298096,-0.9333096146583557,-0.03979002311825752
1759611139732375300,10.083375244140624,0.4922541677951813,-1.3119183778762817,0.03579794615507126
1759611139742458400,10.093458251953125,0.501512348651886,-1.5420259237289429,0.06690313667058945
1759611139752541200,10.103541259765626,0.5039435625076294,-1.5849584341049194,0.08000694960355759
1759611139762624500,10.11362451171875,0.402164489030838,-1.346876621246338,0.09377682209014893
1759611139772707600,10.12370751953125,0.22440993785858154,-1.1424596309661865,0.1647423505783081
1759611139782790400,10.133790283203124,0.13114017248153687,-0.9935668110847473,0.191703662276268
1759611139792873500,10.14387353515625,0.12925758957862854,-0.8504581451416016,0.1906983107328415
1759611139802956300,10.153956298828126,0.15340447425842285,-0.5610084533691406,0.1670001745223999
1759611139813039400,10.164039306640625,0.1594618260860443,-0.2659616470336914,0.15489263832569122
1759611139823122400,10.174122314453125,0.16141259670257568,-0.04162547364830971,0.16069114208221436
1759611139833205500,10.18420556640625,0.15975584089756012,0.09838009625673294,0.15798057615756989
1759611139843288300,10.194288330078125,0.14466238021850586,0.18536879122257233,0.15816913545131683
1759611139853372400,10.204372314453124,0.12399571388959885,0.24138465523719788,0.1556876003742218
1759611139863455200,10.214455322265625,0.10431495308876038,0.28165751695632935,0.14677771925926208
1759611139873538600,10.22453857421875,0.09136879444122314,0.3183803856372833,0.13599032163619995
1759611139883621400,10.234621337890625,0.07742448151111603,0.34185853600502014,0.12836836278438568
1759611139893704400,10.244704345703125,0.08549012988805771,0.3296295702457428,0.12373845279216766
1759611139903787300,10.254787353515624,0.11215077340602875,0.3262212574481964,0.12781281769275665
1759611139913870300,10.264870361328125,0.15546709299087524,0.3278079628944397,0.12594488263130188
1759611139923953400,10.274953369140626,0.19589360058307648,0.3217375576496124,0.12093307822942734
1759611139934036500,10.285036376953125,0.23020070791244507,0.2891388535499573,0.12530438601970673
1759611139944119600,10.29511962890625,0.2653515040874481,0.2396770417690277,0.1214476004242897
1759611139954202400,10.305202392578124,0.2756616771221161,0.16928063333034515,0.11268660426139832
1759611139964285400,10.315285400390625,0.2834317088127136,0.10733550786972046,0.10490777343511581
1759611139974368300,10.3253681640625,0.2985808253288269,0.09489268809556961,0.09035173058509827
1759611139984451300,10.335451416015625,0.3178333640098572,0.1256551295518875,0.07906259596347809
1759611139994534400,10.345534423828125,0.33391085267066956,0.18298020958900452,0.0725540965795517
1759611140004617500,10.355617431640624,0.3382933735847473,0.22393536567687988,0.063285231590271
1759611140014699500,10.365699462890625,0.33464375138282776,0.23035384714603424,0.0653342679142952
1759611140024782300,10.3757822265625,0.3263980746269226,0.209621399641037,0.0664256289601326
1759611140034865400,10.385865478515624,0.3217969536781311,0.1437329351902008,0.07819600403308868
1759611140044948200,10.3959482421875,0.31940916180610657,0.04423457384109497,0.09237733483314514
1759611140055031300,10.40603125,0.3080174922943115,-0.04638880491256714,0.08578840643167496
1759611140065114600,10.416114501953125,0.2935605049133301,-0.09869648516178131,0.07473256438970566
1759611140075197400,10.426197509765625,0.28122901916503906,-0.10655920207500458,0.0662650391459465
1759611140085280500,10.436280517578124,0.27452316880226135,-0.09668312966823578,0.04640398547053337
1759611140095363300,10.44636328125,0.27333328127861023,-0.07865805923938751,0.030720895156264305
1759611140105446400,10.4564462890625,0.2778840661048889,-0.054611578583717346,0.009749299846589565
1759611140115529200,10.466529296875,0.2705337405204773,-0.052025649696588516,0.001812014845199883
1759611140125612500,10.476612548828125,0.23927463591098785,-0.09077677130699158,0.004911401774734259
1759611140135695400,10.4866953125,0.1931215226650238,-0.17092646658420563,0.039143405854701996
1759611140145778400,10.4967783203125,0.214254230260849,-0.2294800579547882,0.12147929519414902
1759611140155861500,10.506861572265626,0.2603013515472412,0.028543228283524513,0.08153799921274185
1759611140165944300,10.5169443359375,0.20611454546451569,0.3577863574028015,0.04015221446752548
1759611140176027400,10.52702734375,0.11989178508520126,0.47709837555885315,0.030643928796052933
1759611140186110500,10.5371103515625,0.04331152141094208,0.5251559019088745,0.02642574906349182
1759611140196193500,10.547193603515625,0.0036826191935688257,0.5755589008331299,0.006187322083860636
1759611140206276400,10.5572763671875,-0.009926666505634785,0.6082375049591064,-0.01974361017346382
1759611140216359400,10.567359375,0.0017094830982387066,0.6119241118431091,-0.04560210555791855
1759611140226442200,10.577442138671875,0.037697844207286835,0.5717253088951111,-0.05656953528523445
1759611140236525300,10.587525390625,0.10758824646472931,0.5152795910835266,-0.052202485501766205
1759611140246608400,10.5976083984375,0.16042563319206238,0.49821510910987854,-0.054308779537677765
1759611140256691500,10.60769140625,0.15496774017810822,0.46546435356140137,-0.04327716678380966
