time,seconds_elapsed,z,y,x
1757954491777377800,35.07337768554687,0.1903254687786102,-0.8890587687492371,-0.2848575711250305
1757954491787335000,35.0833349609375,0.1845088601112365,-0.7692591547966003,-0.3201505839824676
1757954491797290800,35.09329077148438,0.1857259273529052,-0.5463067293167114,-0.356660395860672
1757954491807246800,35.10324682617188,0.2045837640762329,-0.2850554287433624,-0.3754710853099823
1757954491817204000,35.11320385742187,0.2270568460226059,-0.0720741897821426,-0.359506756067276
1757954491827159800,35.12315991210937,0.2435721755027771,0.0344157628715038,-0.3146841824054718
1757954491837117000,35.133116943359376,0.2538969814777374,0.0273714363574981,-0.2620145678520202
1757954491847072800,35.14307275390625,0.2717313766479492,-0.0783720389008522,-0.2297253459692001
1757954491857028900,35.15302880859375,0.2731007635593414,-0.260008156299591,-0.2226442545652389
1757954491866986000,35.16298608398437,0.2329392433166504,-0.4690926671028137,-0.2510775029659271
1757954491876941800,35.17294189453125,0.1726372838020324,-0.6973798871040344,-0.2946513295173645
1757954491886898000,35.18289794921875,0.1265323758125305,-0.9440866112709044,-0.3268814384937286
1757954491896854800,35.19285473632812,0.1372097879648208,-1.2127125263214111,-0.3501468300819397
1757954491906811000,35.20281079101562,0.2034734934568405,-1.4870396852493286,-0.3642407953739166
1757954491916767700,35.212767822265626,0.3168053925037384,-1.7347828149795532,-0.3735544085502624
1757954491926723800,35.222723876953125,0.4628312885761261,-1.929161071777344,-0.37974813580513
1757954491936680000,35.232679931640625,0.6276023983955383,-2.067368030548096,-0.3799246847629547
1757954491946636800,35.24263671875,0.7998151779174805,-2.12876558303833,-0.3749973177909851
1757954491956593200,35.25259326171875,0.957492172718048,-2.112834453582764,-0.3600452542304992
1757954491966549000,35.26254907226563,1.0751851797103882,-2.066744804382324,-0.3344182074069977
1757954491976506000,35.272506103515624,1.1397852897644043,-1.980243444442749,-0.3041111528873443
1757954491986462000,35.2824619140625,1.1546001434326172,-1.8322561979293823,-0.2834476828575134
1757954491996419000,35.29241918945313,1.1443182229995728,-1.6363441944122314,-0.2731636166572571
1757954492006375000,35.302375,1.1210662126541138,-1.4126471281051636,-0.2732818722724914
1757954492016331000,35.3123310546875,1.074816107749939,-1.183164119720459,-0.272606760263443
1757954492026288000,35.3222880859375,1.0056647062301636,-0.9713099598884584,-0.2634294927120209
1757954492036244000,35.33224389648438,0.9151836037635804,-0.7745899558067322,-0.2493017017841339
1757954492046201000,35.342201171875,0.812250554561615,-0.5898212194442749,-0.2334460467100143
1757954492056157000,35.352156982421874,0.7179852724075317,-0.4241108000278473,-0.2200042754411697
1757954492066113000,35.362113037109374,0.6480613350868225,-0.2860115170478821,-0.2062525004148483
1757954492076070000,35.37206982421875,0.6015433669090271,-0.1728141158819198,-0.1974411755800247
1757954492086026000,35.38202587890625,0.5719695091247559,-0.0786263719201088,-0.2055321186780929
1757954492095981800,35.39198193359375,0.5518155097961426,-0.0041121868416666,-0.2237619906663894
1757954492105939000,35.40193896484375,0.5350562334060669,0.0397556684911251,-0.2443929612636566
1757954492115896600,35.411896484375,0.5175957679748535,0.0636530146002769,-0.2567708194255829
1757954492125853400,35.421853515625,0.4983032643795013,0.0598886348307132,-0.2628300189971924
1757954492135809500,35.4318095703125,0.4738644957542419,0.0381335355341434,-0.2607394456863403
1757954492145765600,35.441765625,0.4515799582004547,0.0095149418339133,-0.2502132952213287
1757954492155722500,35.451722412109376,0.4254620969295501,-0.0315281003713607,-0.2369054853916168
1757954492165678600,35.4616787109375,0.3987410068511963,-0.0727322623133659,-0.2213741987943649
1757954492175634400,35.471634521484376,0.3695367574691772,-0.1113728657364845,-0.2029363363981247
1757954492185591600,35.48159155273437,0.3462194502353668,-0.1388441622257232,-0.1736572831869125
1757954492195547600,35.49154760742187,0.3276742696762085,-0.1696902364492416,-0.1415789723396301
1757954492205504500,35.50150439453125,0.3136167824268341,-0.1950022429227829,-0.113940417766571
1757954492215460600,35.511460693359375,0.2938502728939056,-0.2078229635953903,-0.0933395326137542
1757954492225416400,35.52141650390625,0.2652993202209472,-0.1942570954561233,-0.0851164907217025
1757954492235373600,35.53137353515625,0.2298177480697631,-0.161499410867691,-0.0903962105512619
1757954492245329400,35.541329345703126,0.1882141083478927,-0.106813795864582,-0.1080550998449325
1757954492255285500,35.551285400390626,0.1554628312587738,-0.0244949571788311,-0.1303561478853225
1757954492265242600,35.56124267578125,0.1346166729927063,0.0627139806747436,-0.1489543318748474
1757954492275198500,35.57119848632812,0.1201530396938324,0.1446447968482971,-0.1581169366836547
1757954492285155600,35.581155517578125,0.1091054454445838,0.2046809792518615,-0.1504686027765274
1757954492295111400,35.591111328125,0.0927810668945312,0.2496958523988723,-0.1336571276187896
1757954492305067500,35.601067626953125,0.0576542429625988,0.2747077345848083,-0.1087323427200317
1757954492315024400,35.6110244140625,0.0003640541108325,0.2817728221416473,-0.0778785496950149
1757954492324980500,35.62098046875,-0.0672536045312881,0.2793187201023102,-0.0434185788035392
1757954492334936300,35.63093627929688,-0.1401312798261642,0.2935296297073364,-0.0096411760896444
1757954492344893400,35.6408935546875,-0.2186990529298782,0.3438202142715454,0.0263533107936382
1757954492354849500,35.650849609375,-0.3019444048404693,0.4278962016105652,0.052469864487648
1757954492364806400,35.660806396484375,-0.3861232101917267,0.5323499441146851,0.0678291171789169
1757954492374762500,35.670762451171875,-0.4430847465991974,0.6744902729988098,0.0626782923936843
1757954492384718300,35.68071826171875,-0.4473631083965301,0.8681092858314514,0.0249088127166032
1757954492394675500,35.69067553710938,-0.4010624587535858,1.0879316329956057,-0.0366970263421535
1757954492404631300,35.70063134765625,-0.350015789270401,1.2374255657196045,-0.0738289505243301
1757954492414587400,35.71058740234375,-0.3733474910259247,1.2380130290985107,-0.0418577007949352
1757954492424544500,35.72054443359375,-0.4910903573036194,1.140350341796875,0.0097229350358247
1757954492434500400,35.73050024414062,-0.594001054763794,1.0498729944229126,0.0166380982846021
1757954492444457500,35.74045751953125,-0.5897058844566345,0.9379168748855592,-0.0307901371270418
1757954492454413300,35.750413330078125,-0.4954361021518707,0.753682553768158,-0.086323969066143
1757954492464369400,35.760369384765625,-0.371231347322464,0.4775734841823578,-0.1044606268405914
1757954492474326300,35.770326171875,-0.2646279335021972,0.1117944419384002,-0.079823724925518
1757954492484282400,35.78028247070313,-0.1954195648431778,-0.3141163885593414,-0.0470125153660774
1757954492494238500,35.79023852539063,-0.1465873122215271,-0.7311660647392273,-0.0307219605892896
1757954492504195300,35.8001953125,-0.0922929123044014,-1.0511744022369385,-0.0552603267133235
1757954492514151700,35.81015161132812,-0.0155928079038858,-1.215588092803955,-0.0952317118644714
1757954492524108300,35.8201083984375,0.0802445039153099,-1.2535598278045654,-0.1204065755009651
1757954492534064600,35.83006469726563,0.1638025194406509,-1.2073289155960083,-0.1123092323541641
1757954492544020500,35.8400205078125,0.2142718136310577,-1.0919783115386963,-0.072254754602909
1757954492553977600,35.8499775390625,0.2248043566942215,-0.913199543952942,-0.01997796818614
1757954492563933400,35.85993334960938,0.2072005867958068,-0.688515305519104,0.0380842685699462
1757954492573889500,35.8698896484375,0.1869025081396103,-0.4435628056526184,0.0856853425502777
1757954492583846700,35.8798466796875,0.1778469681739807,-0.2054136097431183,0.1268666088581085
1757954492593802500,35.88980249023437,0.1782126128673553,0.019246133044362,0.1602794229984283
1757954492603759600,35.89975952148438,0.1692409515380859,0.238867700099945,0.1836185604333877
1757954492613715500,35.90971557617188,0.1433193385601043,0.4389549791812897,0.1951274126768112
1757954492623671600,35.919671630859376,0.0931291431188583,0.5936196446418762,0.1980134844779968
1757954492633628400,35.92962841796875,0.0248909685760736,0.6941385269165039,0.1864431053400039
1757954492643584500,35.93958447265625,-0.0599307119846344,0.7294142246246338,0.1656701862812042
1757954492653540400,35.94954028320313,-0.1430594176054,0.6970821619033813,0.1375264376401901
1757954492663497500,35.95949755859375,-0.2100565582513809,0.6143704652786255,0.1012501865625381
1757954492673453600,35.96945361328125,-0.2492785304784774,0.4974795579910278,0.0663041919469833
1757954492683410400,35.97941040039063,-0.2615807354450226,0.3595901131629944,0.0410377159714698
1757954492693366500,35.98936645507813,-0.2550642490386963,0.2068961858749389,0.024638233706355
1757954492703322400,35.999322265625,-0.2315741032361984,0.0521084740757942,0.0199526697397232
1757954492713279500,36.00927954101562,-0.1946232765913009,-0.092152826488018,0.0222871955484151
1757954492723235300,36.0192353515625,-0.1534257680177688,-0.2135434448719024,0.030404245480895
1757954492733191400,36.02919140625,-0.114589162170887,-0.3057311475276947,0.0380469858646392
1757954492743148500,36.0391484375,-0.0894720926880836,-0.3555304110050201,0.0479129292070865
1757954492753104400,36.0491044921875,-0.075355477631092,-0.3659628033638,0.0586428083479404
1757954492763061500,36.0590615234375,-0.0786809623241424,-0.3527178466320038,0.0704624503850936
1757954492773017300,36.06901733398438,-0.0893394649028778,-0.3353202044963836,0.0800157412886619
1757954492782973400,36.07897338867188,-0.1034955009818077,-0.3147592842578888,0.0980285629630088
1757954492792930300,36.08893041992187,-0.1196217387914657,-0.2837859094142914,0.108636200428009
1757954492802886400,36.09888647460937,-0.1276703476905822,-0.2567572295665741,0.1124234795570373
1757954492812842500,36.10884252929687,-0.1306525468826294,-0.2459772825241089,0.1039202734827995
1757954492822799400,36.11879931640625,-0.1237720102071762,-0.2360231876373291,0.0870147943496704
1757954492832755500,36.12875537109375,-0.1041359901428222,-0.2400368303060531,0.0618793480098247
1757954492842712300,36.13871240234375,-0.0683958381414413,-0.2574531137943268,0.0376152843236923
1757954492852668400,36.14866845703125,-0.0249887071549892,-0.2874807715415954,0.0175169426947832
1757954492862624500,36.15862451171875,0.0180700812488794,-0.3332410752773285,0.0018181400373578
1757954492872581400,36.16858129882812,0.0597038082778453,-0.3858329057693481,0.0026975157670676
1757954492882537500,36.17853735351562,0.0985609292984008,-0.4247494339942932,0.0032408006954938
1757954492892493600,36.18849365234375,0.1313159465789795,-0.4179871380329132,-0.0024218787439167
1757954492902450700,36.19845068359375,0.1557858735322952,-0.3561109602451324,-0.0175462365150451
1757954492912406500,36.20840649414063,0.1757558435201645,-0.2736464440822601,-0.0291642770171165
1757954492922363400,36.21836328125,0.1860998272895813,-0.1718426048755645,-0.0329190678894519
1757954492932319500,36.22831958007812,0.1781146079301834,-0.0444377735257148,-0.0259996429085731
1757954492942275600,36.23827563476563,0.1560132950544357,0.166466474533081,-0.0324157290160656
1757954492952232400,36.248232421875,0.1288866102695465,0.449195384979248,-0.0551380850374698
1757954492962188500,36.2581884765625,0.0750103294849395,0.7099915742874146,-0.0815662294626236
1757954492972144400,36.26814428710937,-0.023317040875554,0.8813840746879578,-0.0970043092966079
1757954492982101500,36.2781015625,-0.1390265971422195,0.9636483192443848,-0.0959704741835594
1757954492992057600,36.2880576171875,-0.2198351621627807,0.9749388098716736,-0.0971798151731491
1757954493002014500,36.29801440429687,-0.237278863787651,0.9128788709640504,-0.1055860817432403
1757954493011970600,36.30797045898437,-0.2144156247377395,0.7675355076789856,-0.1172925382852554
1757954493021926400,36.31792651367188,-0.1939417719841003,0.5582267642021179,-0.1222018077969551
1757954493031883500,36.32788354492188,-0.1968331634998321,0.3148434162139892,-0.1176643148064613
1757954493041839400,36.33783935546875,-0.2126488834619522,0.0568419769406318,-0.1104857623577117
1757954493051795500,36.34779541015625,-0.2197882831096649,-0.1826608926057815,-0.1015617772936821
1757954493061752600,36.35775268554688,-0.1992356032133102,-0.3841814994812011,-0.0853431299328804
1757954493071708400,36.36770849609375,-0.1507383733987808,-0.5347324013710022,-0.069687470793724
1757954493081665500,36.37766552734375,-0.0761211365461349,-0.6388105750083923,-0.0600236542522907
1757954493091621400,36.38762133789062,0.0229492578655481,-0.7158217430114746,-0.0598731860518455
1757954493101577500,36.39757739257813,0.1371248364448547,-0.761148989200592,-0.0666882172226905
1757954493111534300,36.407534423828125,0.2410176694393158,-0.7872560024261475,-0.0719519555568695
1757954493121489000,36.41748901367188,0.3145808279514313,-0.8153411149978638,-0.0650636851787567
1757954493131444700,36.42744482421875,0.3382094800472259,-0.8584819436073303,-0.0519971549510955
1757954493141401900,36.43740185546875,0.3128846883773803,-0.8875298500061035,-0.0409045554697513
1757954493151358000,36.44735791015625,0.2679896354675293,-0.874565064907074,-0.0335084237158298
1757954493161314800,36.45731469726562,0.2350804209709167,-0.835037350654602,-0.0360530763864517
1757954493171271000,36.46727099609375,0.2104642987251281,-0.7800854444503784,-0.0473755039274692
1757954493181226800,36.47722680664062,0.188062310218811,-0.700263261795044,-0.0677489563822746
1757954493191184000,36.48718383789063,0.1598402708768844,-0.6240729093551636,-0.0854557752609252
1757954493201139700,36.4971396484375,0.1224521473050117,-0.5676330924034119,-0.101239800453186
1757954493211095800,36.507095703125,0.0740939378738403,-0.5032980442047119,-0.1205296069383621
1757954493221053000,36.51705297851562,0.0167073402553796,-0.4475111961364746,-0.143829345703125
1757954493231008800,36.5270087890625,-0.035208586603403,-0.3955486714839935,-0.1600088477134704
1757954493240966000,36.5369658203125,-0.0772569701075553,-0.3356962502002716,-0.1667543649673462
1757954493250921700,36.54692163085937,-0.110847420990467,-0.255681574344635,-0.1679834127426147
1757954493260877800,36.5568779296875,-0.1346837729215622,-0.1615915596485138,-0.1642504632472992
1757954493270834700,36.56683471679688,-0.1502776443958282,-0.0576944537460804,-0.1523407995700836
1757954493280790800,36.576790771484376,-0.1548146158456802,0.0262433215975761,-0.1395797282457351
1757954493290746600,36.58674658203125,-0.1511754095554351,0.0814005807042121,-0.1162280738353729
1757954493300703700,36.59670385742187,-0.143003225326538,0.1163154244422912,-0.0908132568001747
1757954493310659800,36.60665991210937,-0.137366384267807,0.1304408311843872,-0.0665603876113891
1757954493320615700,36.61661572265625,-0.1308677345514297,0.1209836825728416,-0.0425948649644851
1757954493330572800,36.62657275390625,-0.1207871362566948,0.0894209593534469,-0.0288628078997135
1757954493340528600,36.63652856445312,-0.098541222512722,0.055929310619831,-0.0177278649061918
1757954493350485800,36.64648583984375,-0.0672117918729782,0.0184525102376937,-0.0094126760959625
1757954493360441600,36.65644165039063,-0.0310031902045011,-0.019866382703185,-0.0053438991308212
1757954493370397700,36.666397705078126,-0.0032551817130297,-0.0512876883149147,-0.0009182579233311
1757954493380354800,36.67635473632812,0.0182983130216598,-0.0665987357497215,0.0019939087796956
1757954493390310700,36.686310546875,0.0300979819148778,-0.0685843899846077,0.0039055256638675
1757954493400267000,36.69626708984375,0.0394283644855022,-0.0547290258109569,-0.0016974988393485
1757954493410223600,36.7062236328125,0.0586449354887008,-0.0187909975647926,-0.0111170997843146
1757954493420180000,36.71617993164063,0.0878267884254455,0.0258102919906377,-0.0207518842071294
1757954493430135800,36.7261357421875,0.1217551976442337,0.0561676658689975,-0.0188951268792152
1757954493440093000,36.73609301757813,0.1442495882511139,0.0830307006835937,0.0016506272368133
1757954493450048800,36.746048828125,0.1444530487060547,0.1303494870662689,0.0437703840434551
1757954493460006000,36.756005859375,0.1126005798578262,0.2040050625801086,0.1016784235835075
1757954493469962000,36.7659619140625,0.0543103776872158,0.3164354562759399,0.1539714634418487
1757954493479917800,36.77591772460938,-0.0262063033878803,0.4584698379039764,0.1981511712074279
1757954493489875000,36.785875,-0.1193580850958824,0.6132330298423767,0.2244797050952911
1757954493499830800,36.79583081054688,-0.1975303888320922,0.7847208976745605,0.2263447195291519
1757954493509787000,36.80578686523437,-0.225230723619461,0.9629952907562256,0.2014071494340896
1757954493519743700,36.81574365234375,-0.2006936818361282,1.1275488138198853,0.170635387301445
1757954493529699800,36.82569995117188,-0.158529981970787,1.2100666761398315,0.1752405315637588
1757954493539657000,36.835656982421874,-0.1734061390161514,1.1627507209777832,0.2372743338346481
1757954493549612800,36.84561279296875,-0.2634612023830414,1.070087194442749,0.3179057836532593
1757954493559569000,36.85556884765625,-0.3676683008670807,1.031108021736145,0.3585488200187683
1757954493569525800,36.86552587890625,-0.4071123600006103,1.0599764585494995,0.3503795862197876
1757954493579481900,36.87548193359375,-0.3708353340625763,1.0990711450576782,0.3326884806156158
1757954493589437700,36.885437744140624,-0.3097655773162842,1.109182834625244,0.3299315571784973
1757954493599394800,36.89539477539063,-0.2814295589923858,1.0593466758728027,0.3536717891693115
1757954493609350700,36.9053505859375,-0.2926427721977234,0.906910479068756,0.3768830895423889
1757954493619307800,36.91530786132813,-0.3267515003681183,0.6898937225341797,0.3785433173179626
1757954493629264000,36.92526391601562,-0.3549977838993072,0.4675962328910827,0.3633214831352234
1757954493639219700,36.9352197265625,-0.3550787270069122,0.296739786863327,0.3490282893180847
1757954493649176800,36.9451767578125,-0.3192067444324493,0.2013189941644668,0.33465576171875
1757954493659132700,36.955132568359375,-0.2434334307909011,0.1893430352210998,0.3195047676563263
1757954493669088800,36.9650888671875,-0.1460352391004562,0.2265159636735916,0.3154306411743164
1757954493679045600,36.97504565429688,-0.0611480437219142,0.2850280106067657,0.316353440284729
1757954493689001700,36.98500170898438,-0.015796273946762,0.4232263565063476,0.3217572569847107
1757954493698957600,36.99495751953125,-0.0141706801950931,0.5753644704818726,0.3447579145431518
1757954493708914700,37.00491479492187,-0.0442723892629146,0.7306704521179199,0.3646895587444305
1757954493719492900,37.01549291992188,-0.0931078419089317,0.9475066065788268,0.3851583302021026
1757954493729449700,37.02544970703125,-0.1375067234039306,1.1625001430511477,0.4055778682231903
1757954493739405800,37.03540576171875,-0.1833802163600921,1.3082927465438845,0.4173671305179596
1757954493749361700,37.04536157226563,-0.2300529032945633,1.361910700798035,0.4141234159469604
1757954493759318800,37.05531884765625,-0.2880932986736297,1.358380675315857,0.4041536152362823
1757954493769274600,37.06527465820312,-0.3380478322505951,1.2890053987503052,0.3942831158638
1757954493779230700,37.07523071289062,-0.3813420236110687,1.179023265838623,0.3698060214519501
1757954493789187800,37.08518774414063,-0.4144824147224426,1.0062251091003418,0.3399005830287933
1757954493799143700,37.095143798828126,-0.4392724335193634,0.7986646890640259,0.3111205995082855
1757954493809100800,37.10510083007812,-0.4594224393367767,0.5948727130889893,0.2863044738769531
1757954493819056600,37.115056640625,-0.4511501491069793,0.3919669687747955,0.2785804867744446
1757954493829013000,37.12501293945313,-0.4200470745563507,0.2275090515613556,0.2712829113006592
1757954493838969600,37.13496948242187,-0.381017118692398,0.0904332250356674,0.2621631622314453
1757954493848926000,37.14492602539063,-0.3449688553810119,-0.0027936559636145,0.2514705955982208
1757954493858881800,37.1548818359375,-0.2990261018276214,-0.0831066071987152,0.2485722601413726
1757954493868839000,37.1648388671875,-0.2550951540470123,-0.1485545933246612,0.2461067140102386
1757954493878795000,37.174794921875,-0.2213310599327087,-0.1746804565191269,0.2430390119552612
1757954493888750800,37.18475073242188,-0.1994009912014007,-0.1879256963729858,0.2481927573680877
1757954493898708000,37.1947080078125,-0.1819921731948852,-0.2062599658966064,0.2533749938011169
1757954493908663800,37.20466381835938,-0.1689847558736801,-0.2337355315685272,0.2678386270999908
1757954493918621000,37.214620849609375,-0.1627380549907684,-0.2529792487621307,0.2820796370506286
1757954493928576800,37.22457666015625,-0.1642850786447525,-0.2581119835376739,0.289228618144989
1757954493938532900,37.23453295898437,-0.1818456947803497,-0.2463091164827346,0.2949980795383453
1757954493948490000,37.24448999023438,-0.2102669477462768,-0.2207054793834686,0.2896834909915924
1757954493958445800,37.25444580078125,-0.2411867827177047,-0.1766128540039062,0.2738147675991058
1757954493968402000,37.26440185546875,-0.2530855238437652,-0.1361495852470398,0.2507906854152679
1757954493978358800,37.27435888671875,-0.2324771881103515,-0.1192411705851554,0.2256847918033599
1757954493988315000,37.28431494140625,-0.1875970661640167,-0.1262671202421188,0.198295772075653
1757954493998270700,37.29427075195313,-0.1250742971897125,-0.1726844310760498,0.1706809252500534
1757954494008227800,37.304227783203125,-0.0695204883813858,-0.2468553185462951,0.1425965577363968
1757954494018183700,37.31418359375,-0.0311225000768899,-0.3414460122585296,0.1114351823925972
1757954494028140800,37.32414086914063,-0.0168128013610839,-0.4159905612468719,0.077500119805336
1757954494038097000,37.33409692382813,-0.0188937969505786,-0.4257094860076904,0.0420846045017242
1757954494048052700,37.344052734375,-0.0290372446179389,-0.3764724433422088,0.0119006019085645
1757954494058009900,37.354009765625,-0.0416981764137744,-0.2441354393959045,-0.0024959144648164
1757954494067965700,37.36396557617188,-0.0510043278336524,0.010602843016386,-0.0192519910633564
1757954494077921800,37.373921875,-0.0547276921570301,0.3518475294113159,-0.0426257587969303
1757954494087878700,37.383878662109375,-0.0653843358159065,0.6936530470848083,-0.0663712993264198
1757954494097834800,37.39383471679688,-0.0900254994630813,0.9807940125465392,-0.0759395062923431
1757954494107790600,37.40379052734375,-0.1188369020819664,1.1466474533081057,-0.0765506997704505
1757954494117748000,37.413748046875,-0.1293241679668426,1.167090892791748,-0.0760119408369064
1757954494127704000,37.4237041015625,-0.112669825553894,1.0343965291976929,-0.0797954946756362
1757954494137660000,37.43365991210938,-0.0846001058816909,0.7864152193069458,-0.0926308706402778
1757954494147617000,37.44361694335937,-0.0785440802574157,0.476844847202301,-0.1190350428223609
1757954494157572900,37.45357275390625,-0.0859298184514045,0.1365280151367187,-0.152121365070343
1757954494167530000,37.46353002929688,-0.0901621133089065,-0.2393960803747177,-0.1933161914348602
1757954494177486000,37.473486083984376,-0.0728768706321716,-0.6211003065109253,-0.2274643182754516
1757954494187442200,37.48344213867188,-0.0369388423860073,-0.9760213494300842,-0.2638047337532043
1757954494197399000,37.49339892578125,0.0260782055556774,-1.2682121992111206,-0.3000439703464508
1757954494207355100,37.50335522460937,0.1227259188890457,-1.4791252613067627,-0.3360134363174438
1757954494217311200,37.51331127929687,0.2509805560111999,-1.6094963550567627,-0.3678278028964996
1757954494227268000,37.52326806640625,0.3881011307239532,-1.6738361120224,-0.3888348340988159
1757954494237224200,37.53322412109375,0.5303104519844055,-1.688546895980835,-0.394690066576004
1757954494247180000,37.54317993164062,0.6566146016120911,-1.6539276838302612,-0.382851779460907
1757954494257137200,37.55313720703125,0.7546998858451843,-1.5845582485198977,-0.3460487425327301
1757954494267093200,37.56309326171875,0.8152276873588562,-1.4758061170578003,-0.290393203496933
1757954494277049000,37.573049072265626,0.8423528075218201,-1.3227436542510986,-0.2355885505676269
1757954494287006200,37.58300610351562,0.8539199829101562,-1.1382038593292236,-0.1890447586774826
1757954494296962000,37.59296215820312,0.8561168313026428,-0.9461044669151306,-0.1543879806995391
1757954494306919200,37.602919189453125,0.849768340587616,-0.7501198053359985,-0.1277009695768356
1757954494316875000,37.612875,0.8232448697090149,-0.5516847372055054,-0.1134780943393707
1757954494326831000,37.6228310546875,0.769298255443573,-0.3737421631813049,-0.1067189872264862
1757954494336788200,37.63278833007813,0.692854642868042,-0.2314047217369079,-0.1033298522233963
1757954494346744000,37.642744140625,0.606263279914856,-0.1253382116556167,-0.1061573252081871
1757954494356700200,37.6527001953125,0.5264320969581604,-0.0552603267133235,-0.1138189733028411
1757954494366657000,37.66265698242187,0.4620403349399566,-0.0413636863231658,-0.1290639787912368
1757954494376613000,37.67261303710937,0.4095995128154754,-0.0343537107110023,-0.1332771033048629
1757954494386569000,37.68256884765625,0.3759842813014984,-0.0448249951004982,-0.126423180103302
1757954494396526000,37.69252612304688,0.3575054109096527,-0.0638298466801643,-0.1191732585430145
1757954494406482000,37.70248193359375,0.3518238067626953,-0.0951155945658683,-0.1148432269692421
1757954494416438000,37.71243798828125,0.3581730723381042,-0.1450693011283874,-0.1139108538627624
1757954494426395100,37.72239501953125,0.3718635737895965,-0.2094285935163498,-0.1051692962646484
1757954494436351000,37.73235107421875,0.3928282558917999,-0.2756563425064087,-0.0933568477630615
1757954494446307000,37.74230712890625,0.400371104478836,-0.3540334403514862,-0.0848632231354713
1757954494456264000,37.75226391601562,0.3938668668270111,-0.4292770624160766,-0.0584156401455402
1757954494466220000,37.76221997070313,0.3735570609569549,-0.4759649336338043,-0.0314913466572761
1757954494476176100,37.77217602539063,0.3494552075862884,-0.4984753131866455,0.0010042780777439
1757954494486133000,37.78213305664063,0.3247416019439697,-0.4857621788978576,0.0418406575918197
1757954494496089000,37.79208911132813,0.3105690479278564,-0.4331032335758209,0.0806604921817779
1757954494506046000,37.8020458984375,0.3071492910385132,-0.3603211641311645,0.1076502948999404
1757954494516002300,37.81200219726563,0.3128106296062469,-0.2570070326328277,0.1263097375631332
1757954494525958100,37.82195825195313,0.3282969295978546,-0.1274514347314834,0.1417637914419174
1757954494535915300,37.83191528320312,0.3394601047039032,0.0229559149593114,0.148570567369461
1757954494545871000,37.84187109375,0.3526374101638794,0.184509664773941,0.1349346488714218
1757954494555827200,37.8518271484375,0.3577527999877929,0.3350962400436401,0.1121867224574089
1757954494565784000,37.8617841796875,0.3456258475780487,0.4565369188785553,0.0933496579527854
1757954494575740200,37.871740234375,0.2977379560470581,0.5436409115791321,0.0877804532647132
1757954494585696000,37.881696044921874,0.2122787088155746,0.5834218859672546,0.1103920191526413
1757954494595653000,37.89165307617188,0.0948804393410682,0.5953027606010437,0.1577171981334686
1757954494605609200,37.90160913085938,-0.0479057393968105,0.6043404936790466,0.2112427353858947
1757954494615565000,37.91156494140625,-0.200373038649559,0.6265853643417358,0.2516407668590545
1757954494625522200,37.92152221679687,-0.3379096090793609,0.6631553173065186,0.2646175324916839
1757954494635478000,37.93147802734375,-0.4428301453590393,0.7254586815834045,0.2541635632514953
1757954494645434000,37.94143408203125,-0.4798520803451538,0.8575096130371094,0.2205427587032318
1757954494655391000,37.951390869140624,-0.4417393207550049,1.072926640510559,0.1810691207647323
1757954494665347000,37.96134716796875,-0.371679812669754,1.2837285995483398,0.1642637699842453
1757954494675303000,37.97130297851562,-0.3634940683841705,1.414765477180481,0.1929361671209335
1757954494685260000,37.98126000976563,-0.4731156229972839,1.4503079652786257,0.2803227305412292
1757954494695216000,37.99121606445313,-0.6407842636108398,1.4651066064834597,0.3705631494522095
1757954494705172000,38.001171875,-0.7652034163475037,1.4665011167526243,0.4107300043106079
1757954494715129000,38.01112915039062,-0.7985019683837891,1.4346938133239746,0.4037988781929016
1757954494725085000,38.0210849609375,-0.7604683041572571,1.3291349411010742,0.3825793266296386
1757954494735041000,38.031041015625,-0.6932677030563354,1.1486282348632812,0.3795694410800934
1757954494744998000,38.04099780273437,-0.6264932155609131,0.9231131672859192,0.3779571652412414
1757954494754954000,38.0509541015625,-0.5614705085754395,0.6712455153465271,0.3529146611690521
1757954494764910000,38.06091015625,-0.4896314740180969,0.4264035224914551,0.3151566088199615
1757954494774867000,38.07086694335938,-0.4031666219234466,0.1891070753335952,0.2728669643402099
1757954494784823300,38.0808232421875,-0.3257171213626861,0.0021731394808739,0.2296438515186309
1757954494794779100,38.090779052734376,-0.2692330777645111,-0.1305755823850631,0.2133429050445556
1757954494804736300,38.100736328125,-0.2437167912721634,-0.2256262004375457,0.2265756130218505
1757954494814692000,38.11069213867187,-0.2680003046989441,-0.3125765323638916,0.2730286121368408
1757954494824648200,38.12064819335937,-0.3409954011440277,-0.3637997806072235,0.3229170739650726
1757954494834605000,38.13060498046875,-0.4460501968860626,-0.3721626400947571,0.3634804785251617
1757954494844561200,38.14056103515625,-0.5441442728042603,-0.2868599891662597,0.387896329164505
1757954494854517000,38.15051708984375,-0.6149622201919556,-0.1007284745573997,0.3998760282993316
1757954494864474000,38.16047412109375,-0.6611558198928833,0.1653593927621841,0.4102082848548889
1757954494874430200,38.17043017578125,-0.6932253241539001,0.4397062659263611,0.4204846322536468
1757954494884386000,38.180385986328126,-0.7262690663337708,0.6910325288772583,0.4348816871643066
1757954494894343200,38.19034326171875,-0.7534649968147278,0.91050124168396,0.4578554332256317
1757954494904299000,38.20029907226562,-0.7765918970108032,1.0542240142822266,0.4819200336933136
1757954494914255000,38.21025512695312,-0.8007523417472839,1.1252644062042236,0.5068424344062805
1757954494924212000,38.2202119140625,-0.8225426077842712,1.1416974067687988,0.5215877890586853
1757954494934168000,38.23016796875,-0.8344495892524719,1.1245272159576416,0.5317144989967346
1757954494944124000,38.2401240234375,-0.8339710235595703,1.098214626312256,0.5510320067405701
1757954494954081000,38.2500810546875,-0.8171901702880859,1.064639925956726,0.5830618143081665
1757954494964037000,38.260037109375,-0.7769282460212708,1.020559549331665,0.6113203763961792
1757954494973993000,38.26999291992188,-0.7219446301460266,0.98184996843338,0.633527398109436
1757954494983950000,38.2799501953125,-0.6666717529296875,0.9555544257164,0.6459547877311707
1757954494993906000,38.28990600585937,-0.6117779016494751,0.92410147190094,0.6435259580612183
1757954495003862000,38.29986206054687,-0.5607373714447021,0.8845199346542358,0.6310879588127136
1757954495013819000,38.30981884765625,-0.5160588026046753,0.8363582491874695,0.6138157248497009
1757954495023775000,38.31977490234375,-0.4709531366825104,0.768015444278717,0.5920542478561401
1757954495033731000,38.32973095703125,-0.4311404824256897,0.6891557574272156,0.5604135394096375
1757954495043688000,38.33968798828125,-0.399252325296402,0.5901263952255249,0.5163542032241821
1757954495053644300,38.34964428710938,-0.36712446808815,0.4569678008556366,0.4714697897434234
1757954495063600000,38.35960009765625,-0.3386858999729156,0.3060986697673797,0.4252783358097076
1757954495073557200,38.36955712890625,-0.312799721956253,0.1479953229427337,0.3675492405891418
1757954495083513000,38.37951318359375,-0.2890352606773376,0.0132484277710318,0.311529666185379
1757954495093469200,38.38946923828125,-0.2553172409534454,-0.1088734865188598,0.2546583712100982
1757954495103425000,38.39942504882813,-0.2103215456008911,-0.2265593707561493,0.1911457180976867
1757954495113382100,38.409382080078124,-0.1487183719873428,-0.3355644345283508,0.1187250539660453
1757954495123338200,38.41933813476562,-0.0742249637842178,-0.4568738043308258,0.0481219887733459
1757954495133294000,38.42929418945312,0.0079439431428909,-0.5998266935348511,-0.0213702693581581
1757954495143251200,38.43925122070313,0.0898081809282302,-0.7672662734985352,-0.0844184756278991
1757954495153207000,38.44920703125,0.1586349159479141,-0.9627244472503662,-0.1487822830677032
1757954495163163100,38.4591630859375,0.2068104296922683,-1.1506816148757937,-0.2185903936624527
1757954495173120300,38.46912036132812,0.2373563647270202,-1.2828153371810913,-0.2837587594985962
1757954495183076000,38.479076171875,0.2660593688488006,-1.3170667886734009,-0.3363553881645202
1757954495193032200,38.4890322265625,0.2872155308723449,-1.250993251800537,-0.3751818835735321
1757954495202989000,38.498989013671874,0.277614027261734,-1.0557411909103394,-0.3925837576389313
1757954495212945200,38.508945068359374,0.2488196641206741,-0.7189427018165588,-0.3924617767333984
1757954495222901000,38.51890087890625,0.2203281074762344,-0.2767969667911529,-0.3846603333950043
1757954495232858000,38.52885815429688,0.2081547975540161,0.1654824316501617,-0.3747413754463196
1757954495242814000,38.53881396484375,0.2007442861795425,0.539984941482544,-0.360171765089035
1757954495252770300,38.54877026367188,0.16544009745121,0.7832199335098267,-0.3234789967536926
1757954495262727200,38.55872705078125,0.115721009671688,0.8599581718444824,-0.269842654466629
1757954495272683300,38.56868334960937,0.0924644172191619,0.8042219281196594,-0.2360503524541854
1757954495282639400,38.57863940429687,0.1279992461204528,0.6436420679092407,-0.2433458119630813
1757954495292596200,38.58859619140625,0.1850912868976593,0.4054950475692749,-0.2897583246231079
1757954495302552300,38.59855224609375,0.2316750437021255,0.0920732021331787,-0.3543815314769745
1757954495312508200,38.60850805664062,0.2617983222007751,-0.2793956995010376,-0.4178928434848785
1757954495322465300,38.61846533203125,0.2942595779895782,-0.6676502227783203,-0.4831008911132812
1757954495332421000,38.62842114257813,0.3553855419158935,-1.0187033414840698,-0.5401284694671631
1757954495342377200,38.638377197265626,0.4595100581645965,-1.3160295486450195,-0.5772007703781128
1757954495352333000,38.6483330078125,0.6021750569343567,-1.548210620880127,-0.5977097749710083
1757954495362290200,38.65829028320312,0.7811197638511658,-1.704380989074707,-0.6138389110565186
1757954495372246300,38.66824633789062,0.993073046207428,-1.827521562576294,-0.6207034587860107
1757954495382202000,38.6782021484375,1.18786358833313,-1.934915900230408,-0.6125621795654297
1757954495392159200,38.6881591796875,1.3196791410446167,-1.985310673713684,-0.5970572829246521
1757954495402115000,38.69811499023437,1.3810803890228271,-1.9556134939193728,-0.5714073181152344
1757954495412071200,38.7080712890625,1.383310317993164,-1.845965027809143,-0.5238163471221924
1757954495422028000,38.71802807617188,1.3430662155151367,-1.6798008680343628,-0.4728684723377228
1757954495431984000,38.727984130859376,1.2838876247406006,-1.428665041923523,-0.415424644947052
1757954495441940000,38.73793994140625,1.2212883234024048,-1.1269447803497314,-0.356588214635849
1757954495451897000,38.74789697265625,1.1619001626968384,-0.816958487033844,-0.3079777956008911
1757954495461853200,38.75785327148437,1.1000051498413086,-0.5325653553009033,-0.270775556564331
1757954495471809000,38.76780908203125,1.0460026264190674,-0.2861270904541015,-0.2445133328437805
1757954495481766100,38.77776611328125,0.999042809009552,-0.0660245567560195,-0.2279684543609619
1757954495491722000,38.78772192382812,0.9606112241744996,0.1042028367519378,-0.2057291865348816
1757954495501678300,38.79767822265625,0.92618989944458,0.2470036596059799,-0.2009576112031936
1757954495511634200,38.80763427734375,0.905498743057251,0.3178898096084595,-0.1941058188676834
1757954495521591300,38.81759130859375,0.879866898059845,0.301705002784729,-0.1841349452733993
1757954495531547100,38.82754711914063,0.8489297032356262,0.233470544219017,-0.1778501570224762
1757954495541503200,38.837503173828125,0.8208267092704773,0.1285894066095352,-0.1661277264356613
1757954495551460400,38.84746044921875,0.7886229753494263,0.0094784563407301,-0.1450796872377395
1757954495561416200,38.85741625976563,0.744935154914856,-0.0951981544494628,-0.1143654584884643
1757954495571372300,38.86737231445313,0.6935494542121887,-0.1852244436740875,-0.0900899469852447
1757954495581329200,38.8773291015625,0.6356307864189148,-0.2581399381160736,-0.0720965638756752
1757954495591285200,38.88728515625,0.5824037790298462,-0.3377096056938171,-0.0618729554116725
1757954495601241000,38.89724096679687,0.5423876643180847,-0.3976072967052459,-0.0456202141940593
1757954495611198200,38.9071982421875,0.523249626159668,-0.4482174515724182,-0.0104417223483324
1757954495621154000,38.917154052734375,0.5046756863594055,-0.458650678396225,0.0313834883272647
1757954495631110100,38.92711010742188,0.4893135130405426,-0.4250397086143493,0.0634490102529525
1757954495641067300,38.9370673828125,0.4677048921585083,-0.3498525321483612,0.0693423226475715
1757954495651023000,38.94702319335938,0.4451873302459717,-0.2646715939044952,0.0702736303210258
1757954495660979200,38.95697924804688,0.4159580767154693,-0.1748104244470596,0.0653427839279174
1757954495670935000,38.96693505859375,0.3773086667060852,-0.0539330057799816,0.0649329274892807
1757954495680892200,38.97689208984375,0.3318061530590057,0.062610387802124,0.0460364669561386
1757954495690848000,38.98684790039062,0.2835582196712494,0.1626059561967849,0.0133770583197474
1757954495700804400,38.99680444335937,0.2415281981229782,0.2503973245620727,-0.0203856993466615
1757954495710761000,39.006760986328125,0.201864406466484,0.3216177225112915,-0.0492242723703384
1757954495720717300,39.01671728515625,0.1485524624586105,0.3553802073001861,-0.0566568858921527
1757954495730673200,39.02667309570312,0.0734827369451522,0.3614639341831207,-0.0531617552042007
1757954495740630300,39.03663037109375,-0.0303885322064161,0.3614679276943207,-0.0377766750752925
1757954495750586400,39.04658642578125,-0.165082961320877,0.3350730538368225,0.0049891658127307
1757954495760542200,39.05654223632813,-0.3053830862045288,0.3490637242794037,0.0554406233131885
1757954495770499300,39.06649926757812,-0.4328635334968567,0.4203498959541321,0.0995649397373199
1757954495780455200,39.076455078125,-0.5138084292411804,0.5583154559135437,0.0921658799052238
1757954495790411300,39.08641137695312,-0.5256124138832092,0.7873209714889526,0.0431123152375221
1757954495800367000,39.0963671875,-0.4993754625320434,1.0323679447174072,-0.0282145943492651
1757954495810324200,39.10632421875,-0.517650842666626,1.1872010231018066,-0.0859247595071792
1757954495820280000,39.11628002929688,-0.6406607031822205,1.2264655828475952,-0.069454438984394
1757954495830236200,39.12623608398437,-0.8303765654563904,1.256730318069458,-0.0520834401249885
1757954495840193300,39.136193359375,-1.0041896104812622,1.2322152853012085,-0.0593855641782283
1757954495850149000,39.14614916992188,-1.0963134765625,1.1217132806777954,-0.0644863173365593
1757954495860105200,39.15610522460938,-1.073623776435852,0.9602951407432556,-0.0855159685015678
1757954495870062000,39.16606201171875,-0.9769787788391112,0.7164523601531982,-0.0918510928750038
1757954495880018200,39.17601806640625,-0.8557149171829224,0.4354172348976135,-0.0725828558206558
1757954495889974000,39.18597412109375,-0.7120237946510315,0.2020782679319381,-0.042532280087471
1757954495899931100,39.19593115234375,-0.5560805201530457,0.064555823802948,-0.013677729293704
1757954495909887000,39.205886962890624,-0.4049368500709533,-0.0004854942671954,0.0225330051034688
1757954495919843000,39.21584301757812,-0.3028794527053833,-0.0016202671686187,0.0697545781731605
1757954495929799200,39.22579907226562,-0.2598350346088409,0.0355489403009414,0.1457153856754303
1757954495939756000,39.23575610351563,-0.2710418999195099,0.1152392402291297,0.2449186742305755
1757954495949712400,39.24571240234375,-0.3200275301933288,0.2335373908281326,0.3389024138450622
1757954495959668200,39.25566821289063,-0.3842954635620117,0.3497971594333648,0.412694364786148
1757954495969625300,39.26562524414062,-0.459330290555954,0.5102632641792297,0.4650819301605224
1757954495979581200,39.27558129882812,-0.5314846634864807,0.7322548031806946,0.5010439157485962
1757954495989537300,39.28553735351562,-0.5969377160072327,0.9599241614341736,0.5291914343833923
1757954495999494100,39.295494140625,-0.6572276949882507,1.176188826560974,0.5589013695716858
1757954496009450200,39.3054501953125,-0.7182489633560181,1.3713558912277222,0.5896587371826172
1757954496019406000,39.31540600585937,-0.7819418907165527,1.5041424036026,0.611041784286499
1757954496029363200,39.32536328125,-0.8416414856910706,1.570261001586914,0.6287118792533875
1757954496039319300,39.3353193359375,-0.8769310116767883,1.579289436340332,0.6494117975234985
1757954496049275100,39.345275146484376,-0.8762239217758179,1.523279905319214,0.669542133808136
1757954496059231200,39.35523120117188,-0.8497979044914246,1.4042627811431885,0.6865778565406799
1757954496069188000,39.36518798828125,-0.8068203330039978,1.2292200326919556,0.6997719407081604
1757954496079144200,39.37514428710937,-0.7521605491638184,1.0346500873565674,0.7070226669311523
1757954496089100000,39.38510009765625,-0.6974959969520569,0.8383607268333435,0.7079179883003235
1757954496099057200,39.39505712890625,-0.6395533084869385,0.6477992534637451,0.7058788537979126
1757954496109013000,39.40501293945312,-0.5748145580291748,0.4981282949447632,0.687855064868927
1757954496118969000,39.41496899414062,-0.5094739198684692,0.3887400329113006,0.6650179624557495
1757954496128926000,39.42492602539063,-0.4477958977222442,0.3097519874572754,0.6400399208068848
1757954496138882000,39.434882080078125,-0.3871296048164367,0.2193339467048645,0.6145265698432922
1757954496148838100,39.444838134765625,-0.3379607200622558,0.1395373940467834,0.5893537998199463
1757954496158795000,39.454794921875,-0.3021454811096191,0.0663574486970901,0.568824291229248
1757954496168751000,39.46475122070313,-0.2809661626815796,0.0017955031944438,0.5577548742294312
1757954496178707200,39.47470727539063,-0.2572634816169739,-0.0459946542978286,0.5437815189361572
1757954496188663000,39.4846630859375,-0.2279514074325561,-0.0996248573064804,0.5319608449935913
1757954496198620200,39.4946201171875,-0.2076240330934524,-0.1220808997750282,0.5232389569282532
1757954496208576000,39.50457592773437,-0.1953814774751663,-0.1117563620209693,0.5152247548103333
1757954496218532000,39.51453198242187,-0.1868337988853454,-0.0858507230877876,0.5018026828765869
1757954496228489200,39.5244892578125,-0.1702867746353149,-0.0546874813735485,0.4764783978462219
1757954496238445000,39.534445068359375,-0.1459441632032394,-0.0152039863169193,0.440081238746643
1757954496248401000,39.54440087890625,-0.1074138060212135,0.0144263431429862,0.3957848846912384
1757954496258358000,39.55435791015625,-0.0607078224420547,0.0128446919843554,0.3463494181632995
1757954496268314000,39.56431420898438,-0.0094230631366372,-0.0151917356997728,0.2884880006313324
1757954496278270000,39.57427001953125,0.0250723306089639,-0.0816117748618125,0.2281602025032043
1757954496288227000,39.58422705078125,0.0423892699182033,-0.145901545882225,0.1593009680509567
1757954496298183000,39.59418286132812,0.0498091019690036,-0.1859472393989563,0.0848323330283165
1757954496308139000,39.60413891601563,0.0579453259706497,-0.173116385936737,0.0155675075948238
1757954496318094800,39.6140947265625,0.0636697933077812,-0.081315092742443,-0.046322226524353
1757954496328052000,39.624052001953125,0.0564520917832851,0.1117750033736229,-0.1018605828285217
1757954496338007800,39.6340078125,0.0569423772394657,0.3886185884475708,-0.1601121723651886
1757954496347964200,39.64396411132813,0.0654895305633544,0.664770781993866,-0.2075694352388382
1757954496357921000,39.65392114257813,0.0521553456783294,0.8987332582473755,-0.2331059575080871
1757954496367877000,39.66387719726563,0.0092670014128088,1.050368070602417,-0.2337006330490112
1757954496377833200,39.67383325195313,-0.039289616048336,1.056037425994873,-0.2267849445343017
1757954496387790000,39.6837900390625,-0.0634668543934822,0.8943909406661987,-0.229991927742958
1757954496397746200,39.69374609375,-0.0394515357911586,0.6343575119972229,-0.2611903250217438
1757954496407702000,39.70370190429688,-0.0017294568242505,0.3113019466400146,-0.329023152589798
1757954496417659100,39.7136591796875,0.0186107028275728,-0.0591008700430393,-0.4158283770084381
1757954496427615000,39.72361499023437,0.0331393107771873,-0.4734591841697693,-0.500087559223175
1757954496437571000,39.733571044921874,0.060469202697277,-0.8961268067359924,-0.5780513882637024
1757954496447527000,39.74352685546875,0.1332483291625976,-1.287828803062439,-0.6410660147666931
1757954496457484000,39.75348413085938,0.2626167237758636,-1.6716957092285156,-0.6943715810775757
1757954496467440000,39.76344018554688,0.428238958120346,-2.0194523334503174,-0.7424701452255249
1757954496477396000,39.77339599609375,0.6085813045501709,-2.2886483669281006,-0.7810465693473816
1757954496487353000,39.78335302734375,0.7858729958534241,-2.4804582595825195,-0.8202648162841797
1757954496497309000,39.79330883789063,0.932999074459076,-2.607754707336426,-0.8605895638465881
1757954496507265000,39.80326513671875,1.0367941856384275,-2.681816339492798,-0.8873625993728638
1757954496517222000,39.81322192382813,1.0946364402770996,-2.6730620861053467,-0.8967182636260986
1757954496527178000,39.82317797851562,1.113654851913452,-2.5861470699310303,-0.8941752314567566
1757954496537133800,39.8331337890625,1.112160563468933,-2.461972951889038,-0.8663079142570496
1757954496547090200,39.84309008789062,1.0892856121063232,-2.2663207054138184,-0.8270902037620544
1757954496557047000,39.85304711914063,1.0515371561050415,-2.0384738445281982,-0.7847810983657837
1757954496567003100,39.863003173828126,1.0029267072677612,-1.7907390594482422,-0.7384521961212158
1757954496576959200,39.872959228515626,0.9501580595970154,-1.5306845903396606,-0.6927457451820374
1757954496586916000,39.882916015625,0.8977230787277222,-1.2618203163146973,-0.6647313833236694
1757954496596872200,39.8928720703125,0.859034538269043,-1.0248634815216064,-0.6362531185150146
1757954496606828000,39.902828125,0.8200480341911316,-0.8377074599266052,-0.6063341498374939
1757954496616785200,39.91278515625,0.780944287776947,-0.6721885204315186,-0.5698940753936768
1757954496626741000,39.92274096679687,0.7456648349761963,-0.5401769280433655,-0.5356724858283997
1757954496636697000,39.93269702148437,0.7143045663833618,-0.4560269117355346,-0.5032876133918762
1757954496646654200,39.942654296875,0.6808125972747803,-0.4043091237545013,-0.4737550616264343
1757954496656610000,39.95261010742188,0.6493479013442993,-0.3721887469291687,-0.4492792785167694
1757954496666566100,39.962566162109376,0.6232209801673889,-0.3483555912971496,-0.4188965857028961
1757954496676522000,39.97252197265625,0.6077996492385864,-0.3341316282749176,-0.3821684122085571
1757954496686479000,39.98247900390625,0.5918252468109131,-0.3305795192718506,-0.3548180162906647
1757954496696435000,39.99243505859375,0.5790782570838928,-0.3434625566005707,-0.331524133682251
1757954496706391000,40.00239111328125,0.5619595050811768,-0.3676544427871704,-0.3126881420612335
1757954496716348000,40.01234790039062,0.5330234169960022,-0.3986528515815735,-0.2921650111675262
1757954496726304000,40.02230395507812,0.5034522414207458,-0.4233376681804657,-0.2693885862827301
1757954496736259800,40.032259765625,0.4705853462219238,-0.438631147146225,-0.2385420054197311
1757954496746217000,40.042217041015626,0.443039208650589,-0.4504609107971191,-0.2021600306034088
1757954496756173000,40.052173095703125,0.4190164506435394,-0.452898234128952,-0.1633769422769546
