time,seconds_elapsed,z,y,x
1757954524261213200,67.55721313476562,-1.1023065771400928,-1.5345143373340366,0.3043435968250036
1757954524271169500,67.56716943359375,-0.8492214583873748,-1.1593944920182226,0.057277884492278
1757954524281125400,67.57712548828125,-0.6117743460103869,-0.367296019822359,-0.0266729028701782
1757954524291081500,67.58708154296875,-0.3362812883555889,0.5032406137943267,-0.0133694769218564
1757954524301037300,67.59703735351563,-0.0393418303072452,1.1807955919653177,0.0307844298422336
1757954524310993400,67.60699340820312,0.1431087865129113,1.5065671767443418,0.0697001436918973
1757954524320949200,67.61694921875,0.2702387903884053,1.599433091968298,0.1177586566790938
1757954524330905300,67.6269052734375,0.3825821440204978,1.6056272704333066,-0.0075815411701798
1757954524340861400,67.636861328125,0.3900502879440784,1.6017220796883105,-0.1984688546851277
1757954524350817500,67.64681762695312,0.4216229455545544,1.5397037226706742,-0.4417302062988281
1757954524360773400,67.6567734375,0.4944514504000544,1.2400509140104057,-0.7114294829830526
1757954524370729500,67.6667294921875,0.5010968797639012,0.7149789921581745,-0.9470905887261032
1757954524380685300,67.67668530273437,0.4988309806585311,0.0492512299031019,-1.2049556352317332
1757954524390641400,67.68664135742188,0.4222378625825047,-0.6669809771865606,-1.4740721435919404
1757954524400596500,67.69659643554688,0.2545525609567761,-1.3316805654376744,-1.7059765271499752
1757954524410552600,67.70655249023437,0.0802992791175842,-1.907356300845742,-1.8550185031041504
1757954524420508400,67.71650830078126,0.125865390767157,-2.346608718854189,-1.9156871990785005
1757954524430464500,67.72646459960937,0.15471154602319,-2.58694950684607,-1.816463731521368
1757954524440420400,67.73642041015626,0.2770861720651388,-2.678656315162778,-1.55979783167243
1757954524450376400,67.74637646484375,0.3109390495672822,-2.616340436503291,-1.214667466428876
1757954524460332300,67.75633227539062,0.3223559311166405,-2.424123920211196,-0.8800891825988888
1757954524470288600,67.76628857421875,0.3955819108471274,-2.2204460987061263,-0.6428460683614016
1757954524480244500,67.77624438476562,0.4599243268981575,-2.0130881273835897,-0.4962254743352532
1757954524490200600,67.78620068359375,0.5287909423753618,-1.8995844978004688,-0.4602762090757489
1757954524500156400,67.79615649414062,0.6606020898044109,-1.8633634298622608,-0.5037485633164644
1757954524510112500,67.80611254882812,0.8730439402624964,-1.8754414056688544,-0.4945967040896415
1757954524520068400,67.816068359375,1.0776160802587866,-1.847882952135801,-0.4583247827470302
1757954524530024400,67.8260244140625,1.1554171128198505,-1.7963433190345763,-0.4196759031400084
1757954524539980300,67.83598022460937,1.226373686313629,-1.6916045951873062,-0.4102531180173158
1757954524549936600,67.8459365234375,1.2697570470966395,-1.5702368081003426,-0.479379261213541
1757954524559891500,67.85589135742188,1.1820119820177557,-1.4254957442104816,-0.5987514905691147
1757954524569847300,67.86584741210937,1.1927134087741371,-1.2490648260712622,-0.6422676839515566
1757954524579803400,67.87580346679688,1.168945725826174,-0.9886088862895964,-0.5802028574436903
1757954524589759200,67.88575927734375,1.0922915252126753,-0.5983750584721564,-0.4572445862948894
1757954524599715600,67.89571557617188,1.1397149551667272,-0.0877238761603832,-0.3244575795710087
1757954524609671400,67.90567138671875,1.1844580599956214,0.4870236384868621,-0.1387403621703386
1757954524619627500,67.91562744140624,1.0889131348207592,1.0537176105380055,0.0985161960706114
1757954524629583400,67.92558325195313,1.0359459531344473,1.5117875417411326,0.27423984272331
1757954524639539500,67.93553955078124,0.841513075967133,1.7724544939249751,0.3792977155223488
1757954524649495300,67.94549536132813,0.564043895933777,1.879493895930052,0.4181076309099793
1757954524659451400,67.95545141601562,0.3203796626076102,1.8839403539448976,0.2929515574559569
1757954524669407500,67.96540747070313,0.2012096778258681,1.7973317455500364,0.1628855001285672
1757954524679363600,67.97536352539062,0.1293207919180393,1.725025803273916,0.1050178330495953
1757954524689319400,67.9853193359375,0.1720271302223205,1.8642068949490784,0.0918853797540068
1757954524699275500,67.99527563476562,0.2902829227685928,2.446768298217654,0.2097939662978053
1757954524709230300,68.00523022460938,0.3589338496685028,3.512425352874398,0.5827969655901193
1757954524719186400,68.0151865234375,0.3362602455675602,4.474412189698219,0.9535241289049388
1757954524729142500,68.025142578125,0.2112814283765852,4.833326165622473,1.3093231876790523
1757954524739098400,68.03509838867187,-0.0924852453432977,4.639464220210909,1.5592130175217984
1757954524749054500,68.04505444335938,-0.4204419190764427,4.173720685639977,1.3200763446226715
1757954524759010300,68.05501025390625,-0.7265143855206668,3.804515032804012,0.8448837214440107
1757954524768966400,68.06496630859375,-0.8894318882226944,3.5489153008818626,0.4006742655500769
1757954524778922200,68.07492211914062,-1.28542705604583,3.101333445945382,-0.0439428943619132
1757954524788878300,68.08487841796875,-1.5752347625181078,2.278745727461576,-0.4532482101351022
1757954524798834400,68.09483447265625,-1.866937050565332,1.284903032171726,-0.8362047404259443
1757954524808790500,68.10479052734375,-2.069579683803767,0.4532710064888,-1.2863774886384605
1757954524818746400,68.11474633789062,-2.1363465505227444,-0.0724368751794099,-1.7776704750075936
1757954524828702500,68.12470239257813,-2.01685420191884,-0.2946194906681776,-2.2112474777281284
1757954524838658300,68.134658203125,-1.790049479587376,-0.1716764170885086,-2.431352410160005
1757954524848613400,68.14461328125,-1.2729581812255084,0.2205593982011079,-2.52268132507503
1757954524858569500,68.15456958007813,-0.9497454871490596,0.6875462108314037,-2.544865684354305
1757954524868525600,68.16452563476562,-0.681859105105698,1.0026637151271105,-2.4894874960035085
1757954524878481400,68.1744814453125,-0.4839657122209668,1.073411906567216,-2.492541038355231
1757954524888437500,68.1844375,-0.3148806267999112,0.9834913971453904,-2.5510399890750644
1757954524898393300,68.19439331054687,-0.1699221207670867,0.8708569516122341,-2.5944182352915406
1757954524908349400,68.20434936523438,0.0226207048699259,0.7438824305593967,-2.58830179823786
1757954524918305300,68.21430517578125,0.1954968531370162,0.6579027677178383,-2.4197256852522493
1757954524928261600,68.22426171875,0.2096034121617674,0.5701800606012344,-2.017223912014067
1757954524938217500,68.23421752929687,0.2892553332865238,0.4204080168068408,-1.4582318926423787
1757954524948173600,68.24417358398438,0.279869226912409,0.2745049234002828,-0.9201853384047746
1757954524958129400,68.25412939453125,0.2235692475415766,0.0144131407558917,-0.4268132076740265
1757954524968085500,68.26408544921875,0.2686908302940428,-0.3488321423709392,0.0120072486579418
1757954524978041300,68.27404125976562,0.1887026629522442,-0.7321627666711806,0.3998071273267269
1757954524987997400,68.28399755859375,0.1884745532847941,-1.183571486419439,0.6493827766537666
1757954524997952500,68.29395239257812,0.2172567033939063,-1.6433096430957317,0.8126774421051144
1757954525007908400,68.30390844726563,0.2220483215846121,-2.050266642177105,0.9737585231602192
1757954525017864400,68.31386450195312,0.2202148225471377,-2.36937818454504,1.061469832099974
1757954525027820300,68.3238203125,0.1913974549941718,-2.6586960616737603,1.1517167969971895
1757954525037776400,68.3337763671875,0.2943842206075787,-2.833918188545108,1.2507500026792286
1757954525047732500,68.343732421875,0.3266702871844172,-2.903326071292162,1.3755255523830652
1757954525057688600,68.3536884765625,0.3754664667963981,-2.91123815959096,1.5036790540874003
1757954525067644400,68.36364453125,0.4753165418192744,-2.8428111045747992,1.5511185583934186
1757954525077600500,68.3736005859375,0.515716941268742,-2.682766673091054,1.5941002065077423
1757954525087556400,68.38355639648438,0.6382245460405945,-2.49131237334311,1.6175602848112582
1757954525097512400,68.39351245117187,0.6789353266134858,-2.323534717258811,1.6242209117442368
1757954525107468300,68.40346826171876,0.8272393436819314,-2.193543478733301,1.6058230852663515
1757954525117424400,68.41342431640625,0.8646604350596666,-2.1342413949370385,1.5203504951640965
1757954525127380500,68.42338037109376,0.8499287298738956,-2.066275527691841,1.4829311573520303
1757954525137335600,68.43333544921875,0.7427309224367141,-1.9278543144732712,1.4231260924696922
1757954525147291000,68.44329077148437,0.742009330163896,-1.8622464085310697,1.379805713920295
1757954525157246700,68.45324682617188,0.703303167411685,-1.7997610185235735,1.2903577904462813
1757954525167203000,68.463203125,0.6195441032290459,-1.6835989833861589,1.1858745026648043
1757954525177159000,68.47315893554688,0.5921744502663612,-1.504246624842286,1.1400775048688054
1757954525187115000,68.48311499023437,0.5260483656689524,-1.1282266158163547,1.224006957182288
1757954525197070800,68.49307080078125,0.3891512932777404,-0.6361953783005475,1.220875673419237
1757954525207027000,68.50302685546875,0.3275686973288655,-0.1478828690469265,1.1809896532326936
1757954525216982800,68.51298266601563,0.3498515485465526,0.3112643359988927,1.118087791378796
1757954525226939000,68.52293896484375,0.2651893980443477,0.7491127324283122,1.075728074555099
1757954525236894700,68.53289477539063,0.144989193432033,1.2714110979139803,0.982048797121644
1757954525246851000,68.54285107421875,0.0758037212640047,1.8522914162278172,0.9803311795488
1757954525256807000,68.55280688476563,-0.1023714101940393,2.354739418339729,1.0910422558039423
1757954525266763000,68.56276293945312,-0.311306713835895,2.609458860296011,1.166057749299705
1757954525276717800,68.5727177734375,-0.4580240462347865,2.859032171535492,1.2813412480369208
1757954525286674000,68.582673828125,-0.6308613237962126,3.237448720309138,1.3422408301576971
1757954525296630000,68.59263012695313,-0.6508186546757817,3.579544832423329,1.3451923734396696
1757954525306586000,68.60258618164063,-0.6988529100045562,3.617306700062752,1.3485752938762303
1757954525316542000,68.6125419921875,-0.7377259537562727,3.295787512031197,1.4345418049752712
1757954525326498000,68.622498046875,-0.7475014978393912,2.8281629860192536,1.4840285971999168
1757954525336454000,68.63245385742188,-0.8929217761650681,2.422535189715028,1.5655109486222267
1757954525346410000,68.64240991210937,-1.0360822928652167,2.009931709179282,1.7495497114166616
1757954525356365800,68.65236572265626,-1.2078595399796963,1.490779240503907,1.924495651695132
1757954525366322000,68.66232202148437,-1.4236349187746644,0.7339858904451131,1.994597946447134
1757954525376278000,68.67227807617188,-1.5313950362697242,-0.2577227154254913,1.8389111256510016
1757954525386233900,68.68223388671875,-1.5376678329288958,-1.240057343751192,1.5633108082294462
1757954525396190000,68.69218994140626,-1.3449126797154545,-2.058086960539222,1.203612988451123
1757954525406145800,68.70214575195313,-1.1225216821730135,-2.5986831992596384,0.8220148870319127
1757954525416100900,68.71210083007813,-0.8958721504032612,-2.7145389449268578,0.5381140665158629
1757954525426057000,68.72205688476562,-0.6338435544773936,-2.209766883781552,0.408503351740539
1757954525436013000,68.73201293945313,-0.4307046621546149,-1.1232301227033137,0.4190048720106482
1757954525445969000,68.74196899414062,-0.1858136635124683,-0.0398304906070232,0.4327233085006475
1757954525455925000,68.75192504882813,0.1041115318596363,0.6307628318578005,0.4062622948154807
1757954525465880800,68.761880859375,0.3264101749435067,0.8271715391427278,0.335728915169835
1757954525475837000,68.7718369140625,0.5014826642110943,0.7786299188137054,0.1767275629982352
1757954525485792800,68.78179272460937,0.6496624703779816,0.7865408380687237,-0.0362134691536426
1757954525495749000,68.7917490234375,0.761474493612349,0.9006254824101925,-0.2182163422062993
1757954525505705000,68.801705078125,0.8558490598335862,0.9848059868752956,-0.3378717724174261
1757954525515661000,68.8116611328125,0.8808005457386374,0.8526713065803051,-0.4295885176062584
1757954525525617000,68.82161694335937,0.9385442941769956,0.5233984356820583,-0.5552265293583274
1757954525535573000,68.83157299804688,0.9173422239333392,0.1068377419531345,-0.7336734634950757
1757954525545528800,68.84152880859375,0.8322796759366988,-0.3801999250590801,-0.9836255449190736
1757954525555484000,68.85148388671875,0.7447592133939266,-0.8515548697710037,-1.189002571557462
1757954525565440000,68.86143994140625,0.6674015406861901,-1.2876976313263178,-1.3264841658383608
1757954525575395800,68.87139575195313,0.6560302518442273,-1.6999837164759637,-1.3957377348065376
1757954525585352000,68.88135205078125,0.6552654049515724,-2.054552356672287,-1.4330772853806617
1757954525595307800,68.89130786132813,0.6342579804971814,-2.330004790055752,-1.4196750752329823
1757954525605264000,68.90126391601562,0.6511182221442461,-2.5543092200040816,-1.397612881028652
1757954525615219700,68.9112197265625,0.7020473221316933,-2.654455355364084,-1.3342244047015903
1757954525625176000,68.92117602539062,0.7580459804683923,-2.599195824956894,-1.208779285173118
1757954525635132000,68.9311318359375,0.7682903111070394,-2.400290624681115,-1.0837100132197142
1757954525645088000,68.941087890625,0.8088260273739695,-2.1553326982825998,-0.9179413588702678
1757954525655043800,68.9510439453125,0.857309780035913,-1.9426643455922603,-0.8027449538946151
1757954525665000000,68.961,0.9071078301668166,-1.7739771734476089,-0.7205342881977558
1757954525674955800,68.97095581054687,0.8992693916261195,-1.6289666449666025,-0.6332490957155823
1757954525684911000,68.9809111328125,0.8547951668664813,-1.4813403810292485,-0.5825637413561344
1757954525694867000,68.99086694335938,0.9018655455991624,-1.3965975665062664,-0.4758464109122753
1757954525704823000,69.00082299804687,0.8143053355678915,-1.3618500782519578,-0.4795160393357277
1757954525714779000,69.01077880859376,0.7841358227536082,-1.2879793708771463,-0.5692816504567861
1757954525724735000,69.02073486328125,0.7056935696795582,-1.0973889944821595,-0.5785337551876902
1757954525734690800,69.03069091796876,0.7744798133969306,-0.7220674891144037,-0.5345943679571151
1757954525744647000,69.04064697265625,0.955634545187652,-0.1687427017241716,-0.4527387993082404
1757954525754603000,69.05060302734375,0.9436670440182088,0.5937304475367069,-0.2721007848680019
1757954525764559000,69.06055908203125,0.8057203164435922,1.3589765686422586,-0.0007239303603768
1757954525774515000,69.07051489257813,0.7073977432489394,1.8607120385706424,0.2442453942149877
1757954525784471000,69.08047094726562,0.5041489608108997,2.071812703552842,0.4261997519508004
1757954525794427000,69.09042700195313,0.20784093253389,2.089951586833596,0.371482950118184
1757954525804382700,69.1003828125,-0.1003720530703663,2.013490862965584,0.1978521840915083
1757954525814338000,69.11033813476563,-0.2290283897303044,1.8775971223980188,-0.0400134459584951
1757954525824294000,69.1202939453125,-0.1912672527432441,1.610798535591364,-0.3251177970454096
1757954525834250000,69.13025,-0.1688976000249385,1.4243565110474825,-0.6137792560920119
1757954525844205800,69.14020581054687,-0.1195090074777603,1.716622132065892,-0.660383770878613
1757954525854162000,69.15016186523438,0.165875329594314,2.693212663781643,-0.3918821795463562
1757954525864117800,69.16011767578125,0.3395493502408266,4.138928189200163,0.1615253176912665
1757954525874073900,69.17007397460938,0.3098214437142014,5.23050294444561,0.8944868335247039
1757954525884030000,69.18003002929687,0.329596988286078,5.244796258214116,1.4362807575970886
1757954525893986000,69.18998608398438,-0.0550280597388744,4.430107768547535,1.3262778296113014
1757954525903942000,69.19994189453125,-0.6058183602154255,3.642392041480541,0.6788634304210543
1757954525913898000,69.20989794921876,-0.9472843577325344,3.182713506036997,-0.0834632961064577
1757954525923853800,69.21985375976563,-1.1925859830021857,2.700795081734657,-0.8133040495708584
1757954525933810000,69.22980981445312,-1.3954863903939725,1.9918886874884365,-1.4343530044049024
1757954525943765000,69.23976489257812,-1.503329217736423,1.0514712929159402,-1.9792942865923049
1757954525953720800,69.24972094726563,-1.7713959247827529,0.2576408823609352,-2.3718214860439297
1757954525963677000,69.25967700195312,-1.862096040274948,-0.1806844839304685,-2.673267315600812
1757954525973632800,69.2696328125,-1.7801906411349773,-0.2160661784350872,-2.854545966032147
1757954525983588900,69.2795888671875,-1.4803811806082725,0.1934381670415401,-2.8910490657821297
1757954525993544700,69.28954467773437,-1.0926984985783696,0.8671417304813861,-2.81812703743428
1757954526003501000,69.2995009765625,-0.7475920987322926,1.5273007526934146,-2.644470552444458
1757954526013457000,69.30945678710937,-0.3703893096625805,2.027673702096939,-2.508055710612237
1757954526023413000,69.3194130859375,-0.145711077965796,2.1889432914614675,-2.4758678437128663
1757954526033368800,69.32936889648437,-0.0669958531692624,2.1964631655722857,-2.4332456765607
1757954526043325000,69.33932495117188,-0.0061725511550903,2.1594740358710287,-2.3437819709956647
1757954526053280800,69.34928076171875,0.0689653996765613,2.073880741998553,-2.1787135738700627
1757954526063236000,69.35923608398437,0.111391167473793,1.869497402572632,-1.811689356726408
1757954526073192000,69.36919189453126,0.0454364939205348,1.5007126054972408,-1.3100813125699755
1757954526083148000,69.37914794921875,-0.1016284828722477,0.93643796954751,-0.7490510653689503
1757954526093103900,69.38910375976562,-0.1439662801250815,0.190167182546854,-0.2542380881801247
1757954526103060000,69.39906005859375,-0.1480307530850172,-0.5427525399714708,0.134287766675651
1757954526113015800,69.40901586914063,-0.0983142437577247,-1.1737246306657791,0.4162243013814091
1757954526122972000,69.41897192382812,-0.0246396434769034,-1.6206892304867504,0.6517866229251027
1757954526132928000,69.42892797851563,0.1689709575220942,-2.018098649021983,0.8981482786417007
1757954526142884000,69.43888403320312,0.4785220598623156,-2.348730533313751,1.1392658962249755
1757954526152840400,69.44884033203125,0.6968655355796217,-2.573604287582636,1.3004188734725115
1757954526162796500,69.45879663085938,0.8147811363860964,-2.772746803745627,1.3883938017845152
1757954526172752400,69.46875244140625,1.0242968702644109,-2.9590543882548808,1.5090440882518887
1757954526182708500,69.47870849609374,1.0886758189335464,-3.065290657183528,1.6103317948624492
1757954526192663600,69.48866357421875,1.1300748740315436,-3.0721593739092348,1.65133220603168
1757954526202619400,69.49861938476562,1.3164230828121304,-3.109682756617665,1.681116226659715
1757954526212575500,69.50857543945312,1.4234852811709044,-3.145933050650358,1.7023630128279328
1757954526222531300,69.51853125,1.4587027250245213,-3.043303281781077,1.7449921942427753
1757954526232487400,69.5284873046875,1.4448939799025653,-2.9177918190181256,1.7294108864903448
1757954526242443300,69.538443359375,1.497325301146507,-2.7697137196600434,1.7100354471519588
1757954526252399400,69.5483994140625,1.4348562777519225,-2.555700966623425,1.7026009132370352
1757954526262355200,69.55835522460937,1.3989154880598187,-2.403542904475332,1.6431044759124516
1757954526272311600,69.5683115234375,1.3437494811549782,-2.2808435765236617,1.5480170852467416
1757954526282267400,69.57826733398437,1.2269476868093012,-2.1699171039521694,1.484878492027521
1757954526292223500,69.58822338867188,1.189605213625729,-2.1004326488375664,1.4653037307247518
1757954526302179300,69.59817944335937,1.0826438452929257,-1.9912235015779731,1.4046557852774857
1757954526312134400,69.60813452148437,0.935723976059258,-1.740781590810418,1.3612407141819596
1757954526322090500,69.61809057617188,0.8207508584454655,-1.3616852430790662,1.350068455043435
1757954526332046600,69.62804663085937,0.7142290505737066,-0.8528513393223285,1.342746441592276
1757954526342002400,69.63800244140624,0.5253998386323452,-0.2988479220181703,1.273972765095532
1757954526351958500,69.64795849609375,0.3579205809727311,0.1221948855608701,1.2228688930630682
1757954526361914400,69.65791430664062,0.151225749734044,0.3616635668933391,1.210457739779353
1757954526371870500,69.66787036132813,-0.0994148984760046,0.5350859508663416,1.1908461535975337
1757954526381826300,69.67782641601562,-0.363745049342513,0.7899632137328386,1.1773664942994713
1757954526391782400,69.68778247070313,-0.5845093224659562,1.2011854690432548,1.1819614208742977
1757954526401738500,69.69773852539062,-0.7149830838114023,1.6744091302365065,1.2198077519267796
1757954526411694600,69.70769458007813,-0.8331757479935884,2.059082401317358,1.2939499697193502
1757954526421650400,69.717650390625,-0.8459726857244968,2.465287705248594,1.3950292942762377
1757954526431605200,69.72760522460938,-0.7864046444684266,2.9944734921604392,1.4444029815152286
1757954526441561300,69.73756127929687,-0.7185510054260492,3.508059558880329,1.4564590377509594
1757954526451517400,69.74751733398438,-0.6338631359606981,3.7032559677660464,1.4869713726535438
1757954526461473500,69.7574736328125,-0.6335153454363346,3.456484269943833,1.5979703259393572
1757954526471429400,69.76742944335938,-0.6885656170070171,3.0021085170835256,1.7128972663238644
1757954526481385500,69.77738549804687,-0.7816784927293657,2.599545953568816,1.8685449241533876
1757954526491341300,69.78734130859375,-0.8921940464124083,2.209309787663817,1.9543585827782748
1757954526501297400,69.79729736328125,-1.063549853244424,1.7431728698611255,1.909683574749529
1757954526511253200,69.80725317382813,-1.1768383787721397,1.079310901477933,1.7539912009954453
1757954526521209600,69.81720971679688,-1.3102882333189247,0.2188648692429065,1.4572957808360456
1757954526531165400,69.82716552734375,-1.361726744133234,-0.6525017854571342,1.0936810798749328
1757954526541120500,69.83712060546875,-1.3304942782625555,-1.341657185050845,0.7299284317478537
1757954526551076400,69.84707641601562,-1.263090428814292,-1.7453852852135896,0.4230237522631883
1757954526561032400,69.85703247070313,-1.1410212154597044,-1.781002542039752,0.1748673220843076
1757954526570988500,69.86698852539062,-0.9881444836482404,-1.3189029169291258,0.00562280831784
1757954526580944600,69.87694458007813,-0.6688201753124594,-0.504814146721363,-0.0783548670515418
1757954526590900500,69.886900390625,-0.3387371570751071,0.3418926984965801,-0.1208247662514448
1757954526600856300,69.89685620117187,-0.0957236427426338,0.8512415660381316,-0.1841129970744252
1757954526610812400,69.9068125,0.1491504047647118,0.9649866031616926,-0.2505500473171472
1757954526620768300,69.91676831054687,0.2892339982375502,0.907068082678318,-0.4397749805778265
1757954526630724400,69.92672436523438,0.3976888199985027,0.9002490503132343,-0.5869529162257909
1757954526640680200,69.93668017578125,0.4724924243092536,0.9483084400832652,-0.7424801625460385
1757954526650636500,69.94663647460938,0.4655377828657627,0.8699737390369177,-0.9594406594723462
1757954526660591400,69.95659130859374,0.5810884081065655,0.5704208836197853,-1.0802239246696232
1757954526670547500,69.96654736328125,0.6782938138395548,0.141608026561141,-1.113988831627369
1757954526680503300,69.97650341796874,0.6931105669602752,-0.3734732471525669,-1.2577607582241297
1757954526690459400,69.98645947265625,0.6758496355578303,-0.8964210164576768,-1.4857687188655138
1757954526700415500,69.99641552734376,0.7233885085850954,-1.35889941175282,-1.6967407890319823
1757954526710371600,70.00637158203125,0.7904357996806501,-1.763575606420636,-1.85749921400398
1757954526720327400,70.01632739257812,0.8776993648529052,-2.057427035325765,-1.8913237421944733
1757954526730283500,70.02628344726563,0.8879635692358017,-2.253303243169188,-1.7800635076239704
1757954526740239400,70.0362392578125,0.9478466677904128,-2.403307926675677,-1.6041516449227928
1757954526750195500,70.04619555664063,0.94588472006768,-2.4703730456888677,-1.3862082744389772
1757954526760151300,70.0561513671875,0.961831938523054,-2.4836849472045897,-1.1857748416826128
1757954526770106400,70.0661064453125,1.061130517143011,-2.423341829922795,-0.9783984579205512
1757954526780062500,70.0760625,1.0880778530403972,-2.277381453371048,-0.8146846902742981
1757954526790018300,70.08601831054688,1.110799387936294,-2.0636726517170665,-0.7067749351754784
1757954526799974400,70.09597436523437,1.1471966892242431,-1.7772674471646546,-0.67685735129565
1757954526809930200,70.10593017578125,1.093106202596426,-1.483795372965932,-0.624551409997046
1757954526819886300,70.11588623046875,1.2011956981763243,-1.23504389950335,-0.5866583171933889
1757954526829842400,70.12584252929688,1.2038313073769211,-1.0355027394115923,-0.5678206379935145
1757954526839798500,70.13579858398438,1.203038695694506,-0.9782008895218371,-0.6233423264682293
1757954526849754400,70.14575439453125,1.1007914964020251,-1.0313877053081988,-0.7352931736513972
1757954526859710500,70.15571044921874,0.9739540457323193,-1.0022381831914189,-0.7594955947548151
1757954526869666300,70.16566625976563,0.8124073929920792,-0.906404065811634,-0.7018795643493533
1757954526879622400,70.17562231445312,0.7030977079674601,-0.689520725774765,-0.6739525697648525
1757954526889577500,70.18557739257812,0.9173264418423176,-0.2776163334190845,-0.6645739160448313
1757954526899533600,70.19553344726563,0.9008116526320576,0.3223369341552257,-0.6426107983008027
1757954526909489400,70.20548950195312,0.6610711686208843,1.091461357998848,-0.4481418269068002
1757954526919445500,70.21544555664063,0.6448577004447579,1.8970196157485248,-0.0778188604786992
1757954526929401300,70.2254013671875,0.6142965579643845,2.5509727690577506,0.2714905440151691
1757954526939357400,70.235357421875,0.3872963130608201,2.993099865719676,0.4437357009023427
1757954526949313300,70.24531323242188,0.1369067170023918,3.152023768740892,0.5197834600552916
1757954526959269600,70.25526953125,-0.0861588188007473,2.96632934769392,0.424292457024753
1757954526969225500,70.2652255859375,-0.2001519854664802,2.4817098477393387,0.008873626807332
1757954526979181600,70.275181640625,-0.2250830131053924,2.0312924771159886,-0.4942299166038632
1757954526989137400,70.28513745117188,-0.1793371609747409,2.0873159776329997,-0.8115355785936117
1757954526999092200,70.29509228515624,0.078184771181643,2.9507231977611776,-0.5993406886339188
1757954527009048600,70.30504858398437,0.3852738673225045,4.1456157041400665,0.0280573429659008
1757954527019004400,70.31500439453124,0.3108370504975318,4.9193075820297,0.7896578010454773
1757954527028960500,70.32496044921875,0.0969080302216112,4.636987600964307,1.3234849840223788
1757954527038916400,70.33491625976562,-0.2020855838775634,3.702529991579056,1.3128265196248887
1757954527048872400,70.34487255859375,-0.668966305784881,3.1399580678939816,0.9851835880160332
1757954527058828300,70.35482836914062,-1.0571849943876266,2.892859037813544,0.5869441483974457
1757954527068784400,70.36478442382813,-1.1833574052773417,2.408122048959136,0.1602408308386802
1757954527078740500,70.37474047851562,-1.4337784193873404,1.5641116032183169,-0.2534679805904626
1757954527088696600,70.38469653320313,-1.524364406980574,0.5905179152309894,-0.5804714452520012
1757954527098652400,70.39465234375,-1.743922226923704,-0.3436673069536686,-0.9746458273887634
1757954527108607500,70.404607421875,-1.8174211783766745,-0.8745996452718973,-1.3342229433968662
1757954527118563300,70.41456323242187,-1.813507512064278,-0.9231523715168236,-1.516823197820783
1757954527128519400,70.42451953125,-1.548124929535389,-0.5885971763014793,-1.5716118958458305
1757954527138475500,70.4344755859375,-1.193361351288855,-0.0462877039223909,-1.4789911875545978
1757954527148430600,70.4444306640625,-0.8557087745800613,0.5546691877365112,-1.2772209532365202
1757954527158386700,70.45438671875,-0.4866377079091966,0.9768412916064262,-1.2480714311197398
1757954527168342500,70.46434252929687,-0.1439921452187001,1.1820189962804315,-1.447680980272591
1757954527178298600,70.47429858398438,0.0839408504903316,1.3473217866837977,-1.6400687614783644
1757954527188254700,70.48425463867187,0.2191550843611359,1.5139286454230545,-1.8245342252522705
1757954527198210800,70.4942109375,0.4654813765034079,1.6071458583027125,-1.9472288770288229
1757954527208165600,70.50416552734374,0.5776113796457648,1.5110229871094225,-1.9732579290375112
1757954527218121700,70.51412182617187,0.5166147668913007,1.2220201672792437,-1.8872057854816315
1757954527228077600,70.52407763671874,0.4679065578237175,0.8087854031026362,-1.6834937694460153
1757954527238033700,70.53403369140625,0.4082464543700217,0.2933592614740133,-1.496643164101243
1757954527247989800,70.54398974609374,0.3951020183756947,-0.296354936158657,-1.3322253398388624
1757954527257945900,70.55394580078125,0.3516892853677272,-0.8454875325560569,-1.1371940583869815
1757954527267901700,70.56390161132812,0.3455772322282195,-1.2836463101089,-0.8171598482161759
1757954527277857800,70.57385791015625,0.437218866354227,-1.604492713445425,-0.5152028542667627
1757954527287813600,70.58381372070312,0.5414119390174746,-1.844203386840224,-0.2134717780277132
1757954527297769700,70.59376977539063,0.6628796793475746,-2.047322989940643,0.0868991157740354
1757954527307725600,70.6037255859375,0.8460068802550434,-2.1235995894134043,0.4602873149916529
1757954527317680600,70.6136806640625,0.9648632690429688,-2.174846377047896,0.8041565742582082
1757954527327636700,70.62363671875,1.0822878714621067,-2.2602573000907897,1.093937684984505
1757954527337592600,70.63359252929688,1.1777236371740698,-2.4027345107018947,1.324463765926659
1757954527347548700,70.64354858398437,1.3001239821791648,-2.4558576136022805,1.5387161729380487
1757954527357504500,70.65350439453125,1.4536407654598351,-2.507161099860072,1.6881638070836662
1757954527367460600,70.66346069335937,1.4435466569468378,-2.4858915173381564,1.81924868606478
1757954527377416700,70.67341674804688,1.3723174039915202,-2.3575527221947907,1.9203557754114269
1757954527387372800,70.68337280273437,1.3524851607963442,-2.207036582034826,1.98501938624084
1757954527397328600,70.69332861328125,1.2792021901816129,-2.094043824583292,2.004430481414497
1757954527407284700,70.70328466796875,1.3029203348994254,-2.029770382115245,1.966884010091424
1757954527417239600,70.71323950195313,1.3064391566753386,-2.008479172283411,1.896966131995618
1757954527427196000,70.72319580078126,1.2020645899653437,-1.989502669134736,1.8119275493964555
1757954527437151700,70.73315185546875,1.0721198209300635,-1.97810040063262,1.6967779061719774
1757954527447107600,70.74310766601562,0.8984130670577287,-1.928449357756972,1.5497668515235186
1757954527457063700,70.75306372070312,0.7694727988898754,-1.7730583050370214,1.451796891158819
1757954527467019500,70.76301953125,0.6493199405506253,-1.4873632945805788,1.352142046447098
1757954527476975600,70.7729755859375,0.4911982938230037,-1.022655532798171,1.3001213518306611
1757954527486931500,70.78293139648437,0.3769558285713195,-0.5011415956884623,1.311647246712446
1757954527496887800,70.7928876953125,0.2456020695209503,-0.0212175600737333,1.2154893042057753
1757954527506843600,70.80284375,0.1657584252163767,0.4491881210893392,1.1605942231968045
1757954527516799700,70.8127998046875,0.0191150348365306,0.9595698388099668,1.1701844738408922
1757954527526754600,70.82275463867188,-0.1793178717523813,1.4436398881882428,1.1939756837949156
1757954527536710700,70.83271069335937,-0.300217456805706,1.778876635926962,1.2333224825382232
1757954527546666500,70.84266650390624,-0.351173152539134,1.8358809641748663,1.2840607361286878
1757954527556622800,70.85262280273437,-0.3371659622356295,1.7030010184705255,1.2716980981618164
1757954527566578700,70.86257861328124,-0.2497448684141039,1.7592220873862503,1.1807976377919316
1757954527576534800,70.87253466796875,-0.2208405532300472,2.193110348013043,1.0942486506298184
1757954527586490600,70.88249072265624,-0.114669750753045,2.7134622556060557,1.1652227597802878
1757954527596446700,70.89244677734375,-0.0420312155216932,2.932599512049556,1.3065396944403649
1757954527606402600,70.90240258789062,-0.0820019913822412,2.693706584778428,1.4564993697613478
1757954527616358700,70.91235864257813,-0.1758265225052833,2.3119477398395536,1.6488894890546797
1757954527626313700,70.92231372070313,-0.3683022742554545,2.137306627726555,1.8235180339470505
1757954527636269600,70.93226953125,-0.638868981423974,2.0097130979925395,1.982096776792407
1757954527646225700,70.9422255859375,-0.886114726498723,1.7381582565695046,2.07094001237154
1757954527656181500,70.95218139648438,-1.0551724855214355,1.180098841872811,2.0424404785960912
1757954527666137600,70.9621376953125,-1.203967793238163,0.4017553387850522,1.8073340841263528
1757954527676093700,70.97209375,-1.2665885000631212,-0.4213058424293994,1.496008957850933
1757954527686049800,70.9820498046875,-1.191046936866641,-1.158198560231924,1.139647296757996
1757954527696005600,70.99200561523438,-1.0797440321981906,-1.7626035465180874,0.7246805942222475
1757954527705961700,71.00196166992187,-0.9212176040619612,-2.0378110652297736,0.3670832538545131
1757954527715917600,71.01191748046875,-0.6892915931940078,-1.775651828661561,0.1168935642823576
1757954527725872600,71.02187255859376,-0.4825163901954889,-0.9535796584844588,-0.0763683694094419
1757954527735828700,71.03182885742187,-0.1700587527588009,0.0977899276226759,-0.163883571255207
1757954527745784800,71.04178491210938,0.2671229964554309,0.8570750944972038,0.0098740360215306
1757954527755740700,71.05174072265625,0.421875459010899,1.0845610770910978,0.1101703935071825
1757954527765696800,71.06169677734376,0.6434767674803733,1.0317261434823275,-0.0188750886008143
1757954527775652600,71.07165258789063,0.853238292813301,0.9464461533427238,-0.2471782327964901
1757954527785608700,71.08160864257812,0.9746373518213628,0.9297107071191072,-0.4744491113349795
1757954527795564500,71.091564453125,1.0710612517878413,0.848572054567933,-0.6537593843027949
1757954527805521000,71.10152099609375,1.070884726177156,0.5025765969276428,-0.8102125132963061
1757954527815476700,71.11147680664062,1.010217783768475,0.0145101713895797,-0.9807362532183528
1757954527825431600,71.121431640625,0.8989502426743506,-0.5509527975618839,-1.2314312619641423
1757954527835387600,71.1313876953125,0.8000386175453662,-1.066677629876137,-1.4602423556819557
1757954527845343500,71.14134350585938,0.8089955387219786,-1.5349457144886254,-1.606223775021732
1757954527855299600,71.15129956054687,0.8146516647875308,-1.8798112913161515,-1.6641005021899935
1757954527865255700,71.16125561523438,0.863507173371315,-2.0657991423517466,-1.62941848038733
1757954527875211800,71.17121166992187,0.9160229580283163,-2.1126199302375315,-1.4460741295978423
1757954527885167600,71.18116772460938,0.9103837830975652,-2.0634896963655947,-1.1918465628117323
1757954527895123700,71.19112377929687,0.8975655103176832,-1.976582981806993,-0.937654067339003
1757954527905079600,71.20107958984374,0.891073810210824,-1.8710498927116392,-0.7666822913885116
1757954527915035600,71.21103564453125,0.8536980192795396,-1.7514432700783014,-0.6402198115110397
1757954527924990700,71.22099072265625,0.8906222670510411,-1.6222785455048083,-0.5542173523157835
1757954527934946800,71.23094677734375,0.9162100050330162,-1.513814079132676,-0.4586979999735951
1757954527944902700,71.24090258789063,0.952148748898506,-1.4860937130361795,-0.3777136612012982
1757954527954858800,71.25085864257812,0.9028761839464308,-1.4114759866863489,-0.3053065966382622
1757954527964814600,71.26081469726563,0.8814934964388609,-1.3028507767945527,-0.2765498732313514
1757954527974770700,71.27077075195312,0.9369102632343768,-1.2783727536201477,-0.3660641399398446
1757954527984726800,71.28072680664063,0.95234690181911,-1.2935288216978311,-0.4779433831915259
1757954527994683000,71.29068286132812,0.9592644261226058,-1.2690589818298816,-0.5527750445529819
1757954528004638700,71.300638671875,0.929412600955367,-1.1517629742264748,-0.6313149127826094
1757954528014594600,71.31059448242188,0.8748328695058822,-0.981951766487956,-0.6719342156797647
1757954528024549600,71.32054956054688,0.8166244261652231,-0.7209498832613229,-0.6450108451798557
1757954528034505700,71.33050561523437,0.8852911351561545,-0.3456745551228523,-0.6098351946413517
1757954528044461800,71.3404619140625,1.056271240543574,0.1579483359873294,-0.4785129997730254
1757954528054417700,71.35041772460937,1.0561996366120874,0.8240899397403001,-0.2279582762807607
1757954528064373800,71.36037377929688,0.9424129523038864,1.5096213036179542,0.0765104082286357
1757954528074329600,71.37032958984375,0.8989581337198614,2.059399796703458,0.1765294100776314
1757954528084285700,71.38028564453126,0.6569302694238722,2.528403209853172,0.16798106970191
1757954528094241500,71.39024145507813,0.5441501318097114,2.780550170972943,0.1390013511940837
1757954528104197600,71.40019775390626,0.4449510680414736,2.6886136455535885,-0.0054182256564497
1757954528114153700,71.41015380859375,0.3847957284167408,2.347592469194532,-0.1989125067993998
1757954528124108500,71.42010864257813,0.2879647089540958,2.1127695678412914,-0.4004506859272718
1757954528134064600,71.43006469726562,0.3212884480156004,2.393396188992262,-0.4207429478496313
1757954528144020500,71.4400205078125,0.4442901199147105,3.356776526001096,-0.078054130539298
1757954528153977300,71.44997729492188,0.5077706584393978,4.650044650936127,0.4879682258605957
1757954528163933200,71.45993310546875,0.451048800394684,5.497219698187709,1.072136187542975
1757954528173889300,71.46988916015626,0.1116413428425788,5.317365819862484,1.5226388983622192
1757954528183845400,71.47984545898437,-0.3214534293189645,4.460874662733078,1.4968281652793287
1757954528193801500,71.48980151367188,-0.9463985148087144,3.655288347932696,0.9036842854589224
1757954528203757300,71.49975732421875,-1.2861302358791231,3.1339842541813847,0.2715916663020849
1757954528213712400,71.50971240234375,-1.5705580028787254,2.6603070040017367,-0.2973541763290763
1757954528223668200,71.51966821289062,-1.741316720600426,2.052220698854327,-0.8569599436849356
1757954528233624300,71.52962426757813,-1.8260849618256088,1.2279846286416054,-1.2727999219238757
1757954528243580400,71.53958032226562,-2.0077286461770534,0.3081640318959951,-1.5809201146781444
1757954528253536300,71.54953637695313,-2.1211834681823847,-0.3223953863441944,-1.929570470741391
1757954528263492400,71.55949243164062,-2.0010064983151854,-0.5105529826343059,-2.325028462947905
1757954528273448200,71.5694482421875,-1.6617499935410915,-0.1922486649960279,-2.718387729309499
1757954528283404300,71.579404296875,-1.1369032587468624,0.5017629424571991,-2.913348283612728
1757954528293360000,71.58936010742187,-0.7203297055363654,1.1393535745084284,-2.905191280642152
1757954528303316500,71.59931640625,-0.3969979151248932,1.5209107593953608,-2.882741840685904
1757954528313271300,71.60927124023438,-0.1243172845423221,1.6215268503546714,-2.857799122609198
1757954528323227400,71.61922729492187,0.0771975137099623,1.62649061024189,-2.821443906897306
1757954528333183200,71.62918334960938,0.3029641251653432,1.629953902438283,-2.815392351773381
1757954528343139300,71.63913940429687,0.5892872043922543,1.6547838077902792,-2.74645471688658
1757954528353095200,71.64909521484375,0.6613540772154927,1.6078730035334825,-2.584994281125069
1757954528363051500,71.65905151367187,0.6876143076315522,1.4329571661323308,-2.271471937066317
1757954528373007400,71.66900732421875,0.7507602073743939,1.092419389376044,-1.8856275763794776
1757954528382963500,71.67896337890625,0.6959282547295094,0.6403916609466076,-1.4518956753581762
1757954528392919300,71.68891918945313,0.5366019083872438,0.1344248370587825,-1.04743370796293
1757954528402874000,71.6988740234375,0.3115983902588486,-0.3486918571174144,-0.7399778243362903
1757954528412830500,71.70883056640625,0.2276268523693084,-0.8106628874123096,-0.4579322762981057
1757954528422786300,71.71878637695312,0.2854594481348991,-1.189247193968296,-0.1564806015223264
1757954528432742400,71.72874243164063,0.4039735993564128,-1.5096610511064528,0.1064016886234283
1757954528442698200,71.7386982421875,0.4689826626226305,-1.7411387336850166,0.369343892262876
1757954528452654300,71.748654296875,0.5038341957733035,-1.9592115757673976,0.583804681327939
1757954528462610200,71.75861010742187,0.5825391914367676,-2.2249024935930968,0.6453560053557157
1757954528472566300,71.76856616210938,0.7322095284223556,-2.463063014936447,0.7696355882361531
1757954528482522400,71.7785224609375,0.909421952328086,-2.6794179471850392,0.919376944631338
1757954528492478500,71.788478515625,1.076098953694105,-2.7882763813108205,1.096172019907832
1757954528502433300,71.79843334960937,1.1591454856932162,-2.778316128310561,1.3008259929686783
1757954528512389400,71.80838940429688,1.3223454585984349,-2.708682035592198,1.5362991749241948
1757954528522345200,71.81834521484375,1.4242425292789935,-2.6287802313596007,1.7774562477350233
1757954528532301300,71.82830126953125,1.5527566809892654,-2.542662036830187,2.0467314537882806
1757954528542257400,71.83825732421874,1.528165260568261,-2.5738825200021265,2.26752992144227
1757954528552213500,71.84821362304687,1.6159391133502126,-2.7398253618746997,2.4555703210935
1757954528562169300,71.85816943359374,1.779857755918801,-2.974398672381043,2.656983997058868
1757954528572125400,71.86812548828125,1.8491899430811405,-3.193046684002876,2.841745228908956
1757954528582081300,71.87808129882812,1.8802809546545147,-3.381040029641986,2.9454549019694327
1757954528592036400,71.88803637695312,1.8136556883633133,-3.43562093013525,2.9120544444099066
1757954528601992400,71.89799243164063,1.7761966030627487,-3.2706174149394034,2.852662344242632
1757954528611948300,71.9079482421875,1.592254286380112,-2.8530104270279404,2.778480671222508
1757954528621904400,71.917904296875,1.4596534498780964,-2.235511565890908,2.6970301762431856
1757954528631860200,71.92786010742188,1.2552052285224198,-1.4367583119809626,2.582824535870552
1757954528641816300,71.93781640625,0.9343433353558184,-0.608525281086564,2.429554420827329
1757954528651772200,71.94777221679688,0.5909218198567628,0.2070645413339138,2.174176514962316
1757954528661728300,71.95772827148437,0.2613751004531979,0.9597475334644318,1.8718521490052344
1757954528671684400,71.96768432617188,-0.0342325244694948,1.484538884809613,1.494151347285509
1757954528681639400,71.97763940429688,-0.3562076395750045,1.709703146457672,1.1021221604838969
1757954528691595300,71.98759521484375,-0.6449146913290024,1.739412640544772,0.7136866142600774
1757954528701551400,71.99755126953124,-0.8619640355825424,1.5453595564752816,0.3974208167120814
1757954528711507200,72.00750708007813,-0.9487070840120316,1.422788823339343,0.1678106815710663
1757954528721463600,72.01746362304688,-0.8046896582216024,1.638068235310912,0.0084878423601388
1757954528731419400,72.02741943359375,-0.6854688200354576,2.1754665547728536,0.0541197127223014
1757954528741375500,72.03737548828126,-0.5529889795646071,2.64950153234899,0.3428720649227499
1757954528751331300,72.04733129882813,-0.4517115020871162,2.6456612235337493,0.8326409104645252
1757954528761287400,72.05728735351562,-0.2907052398338913,2.3701848247528075,1.4171443877115846
1757954528771242500,72.06724243164062,-0.2327399575993418,2.282047107094526,1.9533993823572997
1757954528781198300,72.0771982421875,-0.3445101875185966,2.231177920600772,2.222593047606945
1757954528791154400,72.08715454101562,-0.5066320097982883,2.013351746755838,2.258514255815744
1757954528801110300,72.0971103515625,-0.6014101883843541,1.4917425325781106,2.177940543670952
1757954528811066400,72.10706640625,-0.6914414647042751,0.7637485760241747,1.9076973693683743
1757954528821022200,72.11702221679687,-0.7655386743113398,-0.0071779288053512,1.5130819654658436
1757954528830978300,72.12697827148438,-0.6866162365049123,-0.582094370278716,1.1416264878764748
1757954528840934400,72.13693432617187,-0.4849509238660335,-0.8668576528429984,0.8304223576322197
1757954528850890500,72.14689038085938,-0.2391317044630646,-0.7581675610214471,0.5279007155373692
1757954528860845300,72.15684521484376,0.0405187651321291,-0.1970148564845323,0.2153933937400579
1757954528870801400,72.16680151367187,0.2182379695162176,0.7017565224915743,0.0316606281548738
1757954528880757200,72.17675732421876,0.4002499026581644,1.5735452019959688,-0.0939423122838139
1757954528890713300,72.18671337890625,0.7102198149323463,2.1929349914461373,-0.12047931381464
1757954528900669400,72.19666943359375,0.9250631735742092,2.430487025502324,-0.2816951271653175
1757954528910625300,72.20662524414062,1.0343386640682817,2.479718966183066,-0.5773614965379238
1757954528920581400,72.21658129882813,1.0749186578683554,2.6076854208827016,-0.6852858646839857
1757954528930537200,72.226537109375,0.932885245501995,2.7329233274012803,-0.7102747599899768
1757954528940493300,72.23649340820313,0.8331601120330393,2.6759388728976248,-0.6547288138568401
1757954528950448400,72.24644848632812,0.5167208576142788,2.499844054844975,-0.6013368308871984
1757954528960404500,72.25640454101563,0.2264243447117507,2.10917183561027,-0.6161719964474439
1757954528970360300,72.2663603515625,-0.0609676789209246,1.6178624826282262,-0.7812023996502161
1757954528980316400,72.27631640625,-0.2086079713836312,1.0788070436090231,-0.9398515773832796
1757954528990272300,72.28627221679687,-0.4800372867308556,0.5931044245928525,-1.0389970112681388
1757954529000228400,72.29622827148438,-0.5567676213204861,0.1968161190420389,-1.0879022042125464
1757954529010184200,72.30618408203125,-0.5444283642292023,-0.1402823309153318,-1.1944091067761182
1757954529020140300,72.31614038085938,-0.4866190032087266,-0.4037620024323463,-1.3128379178017378
1757954529030096400,72.32609643554687,-0.5381609743975102,-0.6154764153987169,-1.5364233858257532
1757954529040051200,72.33605126953125,0.1948667385399341,-0.2174351287007331,-2.222535764461756
1757954529050007300,72.34600732421875,-0.0103192955709993,0.2704506795734167,-3.5921389410585163
1757954529059963100,72.35596313476563,-2.1830383052013813,-0.7015647993117571,-3.9666222420364616
1757954529069919200,72.36591918945312,-0.2976150192223489,-1.4508686703979967,-3.047073447969556
1757954529079875300,72.37587524414063,0.4201017273366451,-1.6058488042294978,-2.8195447952777144
1757954529089831400,72.38583154296875,0.5117721491657197,-1.8838994374126197,-2.3027555486023426
1757954529099787300,72.39578735351563,0.8668425283391028,-1.9271417822897432,-1.6024024631679057
1757954529109743400,72.40574340820312,0.8354396012723445,-1.839523120069504,-1.1395920594394209
1757954529119699200,72.41569921875,0.9642366615772248,-1.7499170834243296,-0.8484744394123553
1757954529129654500,72.42565454101563,1.318385615056753,-1.624317357856035,-0.8409855449616909
1757954529139610400,72.4356103515625,1.010417397993803,-1.3798685500234364,-1.1781436161518095
1757954529149566500,72.44556640625,0.4249367462776601,-1.0245827014684676,-1.5154291131138802
1757954529159522000,72.45552197265626,1.0104781882703304,-0.8817670526832342,-1.5827695419371126
1757954529169478000,72.46547778320313,1.3550607103727756,-0.8171767993509769,-1.7033067234188315
1757954529179434000,72.47543408203126,1.5902432388186454,-0.8884726878017186,-1.8669196610391137
1757954529189389800,72.48538989257813,1.6267046913839875,-0.9148948307812214,-2.0747417427420616
1757954529199346200,72.49534619140626,1.22301984584108,-0.6441168189495802,-2.138298561373353
1757954529209302000,72.50530200195313,0.8535399791736156,-0.4893599724799394,-1.767688302436471
1757954529219256800,72.5152568359375,0.9353018051244318,-0.5217974302262067,-1.02344054569602
1757954529229213000,72.525212890625,1.084791963237524,-0.2187514719963073,-0.2362678394645452
1757954529239168800,72.53516870117187,1.0783470248818396,0.4730144023567438,0.1291705697923898
1757954529249125000,72.545125,0.6864800429046154,1.2222487153381107,0.0847697025299072
