time,seconds_elapsed,z,y,x
1757863513202963000,0.009962890625,2.863465185546875,8.872312802124023,-2.2780828796386716
1757863513212948000,0.019947998046875,3.021183219909668,8.891915328216552,-2.277185054016113
1757863513222934000,0.02993408203125,3.071611092376709,8.98229644088745,-2.221070952606201
1757863513232919000,0.0399189453125,3.1009400627136228,8.99531491241455,-2.1912930694580077
1757863513242904000,0.049904052734375,3.027467999267578,9.07192936553955,-2.1130326026916504
1757863513252889900,0.059889892578125,2.9964930152893063,9.110086954498291,-2.1121347770690915
1757863513262875100,0.069875244140625,2.9978397537231443,9.018508740997314,-2.3032219970703123
1757863513272860200,0.079860107421875,2.974346649932861,9.00773483352661,-2.4404396797180175
1757863513282845000,0.089844970703125,2.8571804061889647,9.021651130676268,-2.57286895904541
1757863513292831000,0.0998310546875,2.765751830291748,8.955660947418213,-2.7156232330322263
1757863513302816000,0.10981591796875,2.7768250129699705,8.887875112915038,-2.6316765373229978
1757863513312800800,0.11980078125,2.8253075965881345,8.870367513275147,-2.3546973327636715
1757863513322787000,0.129787109375,2.8911481422424314,8.935010958099365,-2.0048446151733397
1757863513332772000,0.139772216796875,2.975843025970459,8.978705138397217,-1.6606781265258788
1757863513342756900,0.1497568359375,2.8375778800964353,8.908674739837647,-1.840692163848877
1757863513352743000,0.159742919921875,2.891447417449951,8.649951322937012,-2.376993335723877
1757863513362728000,0.16972802734375,2.8465561363220213,8.795249436187744,-2.609380534362793
1757863513372713000,0.179712890625,2.8208184684753417,9.074323567199707,-2.5513211441040036
1757863513382699000,0.189698974609375,2.9562404998779295,9.175478587341308,-2.4742577781677246
1757863513392684000,0.19968408203125,3.1597476409912106,9.197026402282715,-2.2767361412048337
1757863513402669000,0.2096689453125,3.2179566688537595,9.152883309173584,-2.0605098037719727
1757863513412653800,0.21965380859375,2.9432220283508297,9.160365189361572,-2.007238816833496
1757863513422639900,0.229639892578125,2.817376803588867,8.99546455001831,-2.249202822113037
1757863513432625200,0.239625244140625,2.901173861694336,8.81006355895996,-2.43879366607666
1757863513442610000,0.24960986328125,2.907907553863525,9.04604206008911,-2.3980922378540037
1757863513452596000,0.259595947265625,3.0442274108886718,9.311349531555175,-2.435501638793945
1757863513462581000,0.2695810546875,3.2543186065673826,9.260323108673095,-2.6978163581848142
1757863513472566000,0.27956591796875,3.080589348602295,8.939649723815917,-3.1049802780151365
1757863513482552000,0.289552001953125,3.1287726570129393,8.608651344299316,-3.2646436012268065
1757863513492537000,0.299537109375,2.494159579467773,9.111134417724609,-3.4172739570617674
1757863513502522000,0.309522216796875,2.2376807266235352,9.18056626586914,-3.420715621948242
1757863513512508000,0.3195078125,2.6734254287719725,8.942193563079833,-2.7913398605346678
1757863513522493000,0.329492919921875,3.12173968963623,9.034819239807128,-2.037914525604248
1757863513532478000,0.33947802734375,3.549254323577881,9.04080474395752,-1.562815133666992
1757863513542463000,0.349462890625,3.620332185363769,8.958354424285888,-1.4024036224365233
1757863513552449000,0.359448974609375,3.2626983123779296,8.911966767120362,-1.6780360885620116
1757863513562434000,0.36943408203125,2.85388837890625,8.732252005004883,-2.1838111892700196
1757863513572418800,0.379418701171875,2.647089210510254,8.531587978363037,-2.6262895835876465
1757863513582404900,0.38940478515625,2.5962124252319336,8.668656023406982,-2.6650457229614255
1757863513592390100,0.39939013671875,2.7162217834472653,8.920645748138428,-2.53471137008667
1757863513602375000,0.409375,3.0138509773254394,9.06564458618164,-2.4555530776977537
1757863513612361000,0.41936083984375,3.182642194366455,9.055918141937255,-2.4091654205322266
1757863513622346000,0.429345947265625,3.2486323776245114,8.942193563079833,-2.4233809928894043
1757863513632331000,0.4393310546875,3.023727059173584,8.998906214904785,-2.2973861305236816
1757863513642317000,0.449317138671875,2.870498152923584,8.95760623626709,-2.232593048095703
1757863513652302000,0.459302001953125,2.805405795288086,8.92528451385498,-2.0980688423156737
1757863513662287000,0.469287109375,2.8649615615844723,9.03422068939209,-2.0214543891906738
1757863513672272000,0.47927197265625,3.075800945281982,9.111882605743407,-2.057217776489258
1757863513682258000,0.4892578125,3.1530139488220215,9.070582627105713,-2.297086855316162
1757863513692243000,0.499242919921875,3.093009269714355,8.88144069595337,-2.58558815536499
1757863513702228000,0.50922802734375,2.8878561149597166,8.845228395843506,-2.724302214050293
1757863513712214000,0.519214111328125,2.7608137893676754,8.790012120056153,-2.6420015319824217
1757863513722199000,0.529198974609375,2.893542343902588,8.736292220306396,-2.4289175842285156
1757863513732183800,0.539183837890625,2.934692684936523,8.879046494293213,-2.227505369567871
1757863513742169900,0.549169921875,2.993051350402832,8.992172522735595,-2.314744092559814
1757863513752155100,0.559155029296875,2.991554974365234,8.807519719696044,-2.7774235633850095
1757863513762140200,0.56914013671875,3.1199440383911132,8.643367268371582,-3.081038261413574
1757863513772126000,0.5791259765625,2.883217349243164,8.945635227966308,-2.9478607940673824
1757863513782111000,0.589111083984375,2.8995278480529785,9.177124600982665,-2.7148750450134274
1757863513792096000,0.599095947265625,3.0762498580932616,9.192387636566162,-2.410661796569824
1757863513802080800,0.609080810546875,3.135356711578369,9.093177905273437,-2.251746661376953
1757863513812067000,0.619067138671875,2.984073094177246,8.898050469970702,-2.3395839347839353
1757863513822052000,0.629052001953125,2.7998692039489743,8.815899425506592,-2.41949041519165
1757863513832036900,0.639036865234375,2.7533319091796873,8.924087413024901,-2.3325509674072262
1757863513842023000,0.64902294921875,2.8303952751159667,9.112181880950928,-2.20251588973999
1757863513852008000,0.659008056640625,2.9607296279907227,9.213785813903808,-2.101061594390869
1757863513861993000,0.668992919921875,3.0844799263000486,9.189245246887207,-2.095375365447998
1757863513871979000,0.67897900390625,3.0630817489624023,9.003544980621337,-2.3267151008605955
1757863513881964800,0.68896484375,2.927061167144775,8.875904104614257,-2.5674820053100587
1757863513891949800,0.69894970703125,2.725499314880371,8.885780186462402,-2.6542718154907226
1757863513901935900,0.708935791015625,2.599205177307129,8.996512013244628,-2.546682378387451
1757863513911921000,0.7189208984375,2.6226982810974118,9.091831166839599,-2.4160487503051757
1757863513921905700,0.72890576171875,2.789244934082031,9.13627353515625,-2.3139959045410157
1757863513931890700,0.738890625,2.8721441665649414,9.057564155578612,-2.342277411651611
1757863513941877000,0.748876953125,2.6946739685058594,9.009680122375487,-2.6412533439636228
1757863513951861800,0.75886181640625,2.6886884643554687,8.72013135910034,-2.864063735961914
1757863513961846800,0.7688466796875,2.6924294044494625,8.75918677368164,-2.7246014892578123
1757863513971832800,0.778832763671875,2.616862414550781,9.042899670410156,-2.497002693939209
1757863513981817600,0.788817626953125,2.8821698860168454,9.159168088531494,-2.378788986968994
1757863513991802600,0.798802734375,3.0948049209594726,9.188497058868407,-2.2749404899597168
1757863514001789000,0.808788818359375,3.071760729980469,9.234286165618895,-2.308010400390625
1757863514011774000,0.81877392578125,2.935291235351562,8.9891797706604,-2.5752631607055663
1757863514021758700,0.8287587890625,2.8203695556640622,8.709357451629637,-2.9569886878967284
1757863514031743700,0.83874365234375,2.646939572906494,8.932467118835449,-2.971054622650146
1757863514041729800,0.848729736328125,2.634220376586914,9.166649968719481,-2.7831097923278807
1757863514051714800,0.85871484375,2.897881834411621,9.150489107513428,-2.6554689163208005
1757863514061699800,0.868699951171875,3.0187890182495116,9.100510147857666,-2.5020903724670407
1757863514071686000,0.878685791015625,2.9697078842163083,8.928127628326415,-2.353200956726074
1757863514081670700,0.888670654296875,2.854337291717529,8.793453784942626,-2.357839722442627
1757863514091655700,0.89865576171875,2.8275521606445313,8.89924757080078,-2.357091534423828
1757863514101642000,0.90864208984375,2.906710453033447,9.03332286376953,-2.3542484199523925
1757863514111626800,0.918626708984375,2.9640216552734375,9.04604206008911,-2.4369980148315427
1757863514121611800,0.92861181640625,2.946364418029785,8.940547549438476,-2.619555891418457
1757863514131597800,0.938597900390625,2.786701094818115,8.782679877471923,-2.7679963943481445
1757863514141582800,0.948582763671875,2.754678647613525,8.79165813369751,-2.676268543243408
1757863514151567600,0.958567626953125,2.7679963943481445,8.968230506134033,-2.3952491233825683
1757863514161554000,0.968553955078125,2.9077579162597655,9.087491676330567,-2.1966800231933594
1757863514171539000,0.9785390625,3.0864252151489255,9.130138393402099,-2.104203984069824
1757863514181523700,0.988523681640625,3.0201357566833495,9.0274869972229,-2.168847428894043
1757863514191508700,0.9985087890625,2.9032687881469723,8.869768962860107,-2.353350594329834
1757863514201494800,1.008494873046875,2.8562825805664063,8.826374057769774,-2.4633342330932617
1757863514211479800,1.018479736328125,2.8899510414123535,8.948328704833983,-2.4513632247924804
1757863514221464800,1.02846484375,3.017891192626953,9.053523940277099,-2.382529927062988
1757863514231451000,1.038450927734375,3.079242610168457,9.061754008483886,-2.485929511260986
1757863514241435600,1.048435546875,2.922123126220703,8.882039246368407,-2.8387749809265137
1757863514251420700,1.058420654296875,2.766350380706787,8.75305163192749,-2.996193740081787
1757863514261407000,1.068406982421875,2.736123584747314,8.879196131896972,-2.7852047187805176
1757863514271391700,1.078391845703125,2.8600235206604,9.02658917160034,-2.415300562286377
1757863514281376800,1.088376708984375,3.070264353942871,9.12370397644043,-2.074126825714111
1757863514291362800,1.09836279296875,3.240252671813965,9.197325677490234,-1.8394950630187987
1757863514301347800,1.108347900390625,3.2365117317199705,9.144054690551757,-1.837400136566162
1757863514311332600,1.11833251953125,3.018938655853271,8.962095364379882,-2.210895595550537
1757863514321319000,1.12831884765625,2.781164503479004,8.775946185302734,-2.7041011375427244
1757863514331304000,1.138303955078125,2.636165665435791,8.799289651489257,-2.846107223510742
1757863514341288700,1.148288818359375,2.66863702545166,8.879345769500732,-2.692130129241943
1757863514351273700,1.158273681640625,2.814982601928711,8.973916735076903,-2.4513632247924804
1757863514361259800,1.168259765625,3.0259716232299803,9.111583330535888,-2.2566847023010252
1757863514371244800,1.178244873046875,3.163488581085205,9.14809490585327,-2.1538836685180662
1757863514381229800,1.188229736328125,3.110965782165527,9.108889853668213,-2.242768405151367
1757863514391215900,1.1982158203125,2.879925321960449,8.890119676971436,-2.6132711120605467
1757863514401201000,1.208200927734375,2.6274866844177245,8.697685718536377,-3.021781770324707
1757863514411185700,1.218185546875,2.532466806030273,8.8236805809021,-3.0418332092285154
1757863514421172000,1.228171875,2.6789620201110838,9.02195040588379,-2.7679963943481445
1757863514431157000,1.238156982421875,2.9046155265808102,9.138218824005126,-2.3790882621765137
1757863514441141800,1.248141845703125,3.095702746582031,9.2320416015625,-2.0028993263244628
1757863514451127800,1.2581279296875,3.2056863853454587,9.172934748077392,-1.7778443702697753
1757863514461112800,1.26811279296875,3.1952117530822752,9.044545684051513,-1.8073229782104492
1757863514471097600,1.27809765625,2.977040126800537,8.890568589782715,-2.1986253120422363
1757863514481082600,1.28808251953125,2.733879020690918,8.662071968841552,-2.738218511199951
1757863514491069000,1.29806884765625,2.5629928771972654,8.779387850189208,-2.9336452217102047
1757863514501053700,1.3080537109375,2.5267805770874023,9.016114539337158,-2.7890952964782714
1757863514511038700,1.318038818359375,2.6970681701660153,9.08524711227417,-2.4721628517150878
1757863514521024800,1.328024658203125,2.850446714019775,9.100510147857666,-2.2189760261535643
1757863514531009800,1.338009765625,2.907309003448486,9.04634133529663,-2.1251532485961913
1757863514540994800,1.347994873046875,2.9212253005981443,8.97556274871826,-2.142062297821045
1757863514550980900,1.35798095703125,2.931699932861328,8.971073620605468,-2.1440075866699217
1757863514560966000,1.3679658203125,2.9366379737854,9.015665626525879,-2.139967371368408
1757863514570950700,1.37795068359375,2.922123126220703,9.065195673370361,-2.2047604537963865
1757863514580937000,1.38793701171875,2.858826419830322,8.97047507019043,-2.4197896903991696
1757863514590922000,1.397921875,2.7424083641052244,8.809614646148681,-2.7825112419128417
1757863514600906800,1.40790673828125,2.5499744056701656,8.818143989562987,-2.998587941741943
1757863514610892800,1.417892822265625,2.5112182662963867,8.921244298553466,-2.9276597175598145
1757863514620877800,1.4278779296875,2.742707639312744,9.095871382141112,-2.6599580444335937
1757863514630862600,1.437862548828125,2.9927520751953125,9.234884716033935,-2.316240468597412
1757863514640847600,1.44784765625,3.1510686599731446,9.2320416015625,-2.043600754547119
1757863514650834000,1.457833984375,3.1030349891662596,9.112032243347167,-2.0081366424560545
1757863514660818700,1.467818603515625,2.9267618919372556,9.005190994262694,-2.2426187675476075
1757863514670803700,1.4778037109375,2.8589760574340817,8.986486293792725,-2.4431331565856933
1757863514680789800,1.487789794921875,2.7742811737060546,9.002347879791259,-2.5547628089904784
1757863514690774800,1.49777490234375,2.755426835632324,9.008931934356688,-2.6177602401733395
1757863514700759800,1.507759765625,2.7575217620849606,8.876353017425537,-2.7370214103698727
1757863514710745900,1.517745849609375,2.6978163581848142,8.690802388763426,-2.9249662406921386
1757863514720731000,1.52773095703125,2.7002105598449706,8.730157078552246,-2.8718448913574215
1757863514730715600,1.537715576171875,2.858826419830322,8.921393936157227,-2.618957341003418
1757863514740701700,1.54770166015625,3.0226795959472654,9.163208303833008,-2.3307553161621093
1757863514750687000,1.55768701171875,3.100341512298584,9.286210414123534,-2.140565921783447
1757863514760671700,1.567671630859375,3.1501708343505856,9.241019857788086,-2.0465935066223144
1757863514770657800,1.57765771484375,3.0825346374511717,9.099163409423827,-2.0121768577575683
1757863514780642800,1.587642822265625,2.933495584106445,8.949525805664061,-2.0910358749389646
1757863514790627800,1.5976279296875,2.798971378326416,8.86722512359619,-2.237082176208496
1757863514800612600,1.607612548828125,2.739565249633789,8.849567886352538,-2.4295161346435545
1757863514810599000,1.617598876953125,2.794931163024902,8.891017502593993,-2.596362062835693
1757863514820584000,1.627583984375,2.909852842712402,8.981697890472411,-2.6726772407531736
1757863514830568700,1.637568603515625,2.9795839660644527,9.082403997802734,-2.6497826873779293
1757863514840554800,1.6475546875,2.9225720390319823,9.057264880371093,-2.5746646102905273
1757863514850539800,1.657539794921875,2.7932851493835447,9.025242433166504,-2.5116671791076657
1757863514860524800,1.66752490234375,2.7718869720458983,8.98977832107544,-2.4576480041503905
1757863514870510800,1.6775107421875,2.7123312057495115,8.952967470550536,-2.569726569366455
1757863514880495900,1.687495849609375,2.752882996368408,8.93725552215576,-2.6355671150207516
1757863514890481000,1.69748095703125,2.813486225891113,8.978106587982177,-2.522291448974609
1757863514900467000,1.707467041015625,2.9037177009582518,9.11098478012085,-2.4356512763977047
1757863514910452000,1.717451904296875,2.9900585983276367,9.129988755798339,-2.3784897117614743
1757863514920436700,1.727436767578125,3.0383915443420406,9.05292538986206,-2.2782325172424316
1757863514930423000,1.737423095703125,2.937535799407959,8.89386061706543,-2.3229741607666012
1757863514940408000,1.747407958984375,2.7527333587646483,8.80437733001709,-2.487874800109863
1757863514950393000,1.75739306640625,2.6602573196411132,8.888174388122557,-2.539649411010742
1757863514960379000,1.76737890625,2.6996120094299316,9.049184449768067,-2.5469816535949708
1757863514970364000,1.777364013671875,2.8945898071289062,9.16799670715332,-2.562543964385986
1757863514980349200,1.78734912109375,3.062632836151123,9.121609049987793,-2.522441086578369
1757863514990334000,1.797333984375,3.130717945861816,8.996362375640869,-2.469469374847412
1757863515000320000,1.807320068359375,2.9541455734252926,8.839841442108154,-2.5782559127807616
1757863515010305000,1.817304931640625,2.690334477996826,8.787617918395995,-2.7816134162902832
1757863515020289800,1.827289794921875,2.5802012016296385,8.795548711395263,-2.7992706535339353
1757863515030276000,1.837276123046875,2.606537419891357,8.926032701873778,-2.5870845314025877
1757863515040261000,1.84726123046875,2.8184242668151853,9.101707248687744,-2.359036823272705
1757863515050246000,1.857245849609375,2.9658173065185545,9.080608346557616,-2.2176292877197263
1757863515060232000,1.86723193359375,2.9034184257507323,8.971971446228027,-2.362927400970459
1757863515070217000,1.877217041015625,2.8055554328918455,8.914809881591797,-2.5516204193115235
1757863515080202000,1.887201904296875,2.677764919281006,8.98259571609497,-2.5631425148010254
1757863515090188000,1.89718798828125,2.722356925201416,9.058611618804932,-2.49640414352417
1757863515100173000,1.907173095703125,2.863315547943115,9.066542411804198,-2.41320563583374
1757863515110158000,1.917157958984375,2.9032687881469723,9.013570700073242,-2.401084989929199
1757863515120144000,1.927143798828125,2.9535470230102536,9.002796792602538,-2.4446295326232907
1757863515130129000,1.93712890625,2.793734062194824,9.015665626525879,-2.486528061676025
1757863515140114200,1.9471142578125,2.647538123321533,9.038709817504882,-2.6403555183410643
1757863515150100000,1.957099853515625,2.6225486434936522,8.981248977661132,-2.8651111991882323
1757863515160085000,1.9670849609375,2.66878666305542,8.997260201263428,-2.9077579162597655
1757863515170070000,1.977070068359375,2.688389189147949,9.049334087371825,-2.739415612030029
1757863515180054800,1.9870546875,2.6856957122802734,9.030629386901856,-2.542193250274658
1757863515190041000,1.997041015625,2.708739903259277,9.035268152618407,-2.2972364929199216
1757863515200026000,2.007026123046875,2.7570728492736816,9.029731561279297,-2.1040543464660644
1757863515210011000,2.017010986328125,2.80271231842041,9.0021982421875,-2.0350714111328125
1757863515219997000,2.026996826171875,2.840420994567871,8.968230506134033,-2.136076793670654
1757863515229982000,2.03698193359375,2.8444612098693844,9.016114539337158,-2.3126491661071777
1757863515239967000,2.046967041015625,2.7512369827270504,9.057713793182373,-2.4959552307128905
1757863515249953000,2.056953125,2.598905902099609,9.022848231506346,-2.7090391784667966
1757863515259938000,2.06693798828125,2.524236737823486,8.978854776000976,-2.8687025016784666
1757863515269923000,2.076923095703125,2.5680805557250976,9.022399318695069,-2.821117743682861
1757863515279908900,2.086908935546875,2.7180174346923827,9.034819239807128,-2.617012052154541
1757863515289894000,2.096893798828125,2.862118447113037,9.049633362579344,-2.3814824638366696
1757863515299879200,2.106879150390625,2.958485063934326,9.039009092712401,-2.261323468017578
1757863515309865000,2.116864990234375,2.9222727638244628,9.005340631866455,-2.306663661956787
1757863515319850000,2.12685009765625,2.794332612609863,8.99591346282959,-2.5116671791076657
1757863515329835000,2.1368349609375,2.6752210800170895,8.999205490112304,-2.7257985900878903
1757863515339820000,2.146820068359375,2.6707319519042967,8.965537029266358,-2.7928362365722657
1757863515349806000,2.15680615234375,2.7174188842773437,8.952668195343017,-2.72609786529541
1757863515359791000,2.166791015625,2.7564742988586426,8.992322160339356,-2.587383806610107
1757863515369776000,2.176776123046875,2.8190228172302243,9.010877223205567,-2.4275708457946776
1757863515379762000,2.186761962890625,2.8431144714355465,8.980500789642333,-2.311900978088379
1757863515389747000,2.196746826171875,2.8420670082092285,8.961796089172363,-2.2753894027709958
1757863515399732000,2.20673193359375,2.7986721031188964,8.95147109451294,-2.3223756103515623
1757863515409718000,2.216718017578125,2.724451851654053,8.967781593322753,-2.4794950942993164
1757863515419703000,2.226703125,2.6472388481140134,9.0780645072937,-2.638709504699707
1757863515429688000,2.23668798828125,2.6241946571350097,9.126547090911865,-2.69422505569458
1757863515439673900,2.246673828125,2.645592834472656,9.114875357818603,-2.6837504234313965
1757863515449659000,2.256658935546875,2.786102544403076,9.028684098052977,-2.5555109970092773
1757863515459644200,2.26664404296875,2.861968809509277,8.974365647888183,-2.4027310035705565
1757863515469630000,2.2766298828125,2.868253588867187,8.941295737457274,-2.2842180213928223
1757863515479615000,2.286614990234375,2.8470050491333008,8.872462439727782,-2.284367658996582
1757863515489600000,2.29660009765625,2.724451851654053,8.928875816345215,-2.3344962562561036
1757863515499585800,2.306585693359375,2.6562171043395995,9.006388095092772,-2.449567573547363
1757863515509571000,2.316571044921875,2.668038475036621,9.060856182861327,-2.5438392639160154
1757863515519556000,2.32655615234375,2.656666017150879,9.083451461029052,-2.593369310760498
1757863515529542000,2.3365419921875,2.6773160064697263,9.075071755218506,-2.6056395942687987
1757863515539527000,2.34652685546875,2.7084406280517577,9.051129738616943,-2.564638890838623
1757863515549512000,2.356511962890625,2.798223190307617,8.987683394622803,-2.4785972686767574
1757863515559497000,2.3664970703125,2.7816134162902832,8.94488703994751,-2.4341549003601073
1757863515569483000,2.37648291015625,2.696319982147217,8.96419029083252,-2.361580662536621
1757863515579468000,2.386468017578125,2.7359739471435547,9.015216713714599,-2.2987328689575195
1757863515589453000,2.396453125,2.827701798248291,9.073126466369628,-2.218078200531006
1757863515599438800,2.40643896484375,2.9134441452026367,9.019107291412354,-2.3458687141418455
1757863515609424000,2.416423828125,2.8275521606445313,8.87485664138794,-2.7379192359924316
1757863515619409000,2.426408935546875,2.703053674316406,8.885031998443603,-2.9842227317810055
1757863515629395000,2.43639501953125,2.6946739685058594,9.00189896697998,-2.9366379737854
1757863515639380000,2.4463798828125,2.8893524909973145,9.114426445007323,-2.7641058166503907
1757863515649365000,2.456364990234375,3.095702746582031,9.124751439666747,-2.5055320373535155
1757863515659350800,2.466350830078125,3.1420904037475585,9.075071755218506,-2.244713694000244
1757863515669335800,2.476335693359375,2.9281086303710935,8.894159892272949,-2.213439434814453
1757863515679321000,2.486321044921875,2.6843489738464354,8.65099878616333,-2.5842414169311523
1757863515689307000,2.496306884765625,2.6057892318725586,8.672696238708495,-2.8036101440429686
1757863515699292000,2.5062919921875,2.6357167526245115,9.030330111694335,-2.6906337532043456
1757863515709277000,2.51627685546875,2.8700492401123046,9.177573513793945,-2.4959552307128905
1757863515719263000,2.526262939453125,3.0807389862060544,9.155576786041259,-2.4109610717773435
1757863515729248000,2.536248046875,3.097049485015869,9.00159969177246,-2.5258827514648434
1757863515739233000,2.54623291015625,2.8859108261108397,8.865728747558594,-2.785503993988037
1757863515749218800,2.55621875,2.6604069572448727,8.910769666290284,-2.893392706298828
1757863515759203800,2.566203857421875,2.5948656867980957,9.045892422485352,-2.8104934738159177
1757863515769188900,2.57618896484375,2.66205297088623,9.216928203582762,-2.5602994003295896
1757863515779174000,2.586173828125,2.761861252593994,9.299079248046874,-2.2717981002807615
1757863515789160000,2.596159912109375,2.6828525978088376,9.249399563598633,-2.123507234954834
1757863515799145000,2.60614501953125,2.5034371109008786,9.145102153778076,-2.134281142425537
1757863515809130000,2.6161298828125,2.2768857788085937,9.128043466949462,-2.2073042930603024
1757863515819115800,2.62611572265625,2.12590143661499,9.225607184600829,-2.2252608055114744
1757863515829100800,2.636100830078125,2.1238065101623533,9.317185398101806,-2.248304996490478
1757863515839086000,2.646086181640625,2.103605433654785,9.35983211517334,-2.4211364288330075
1757863515849071900,2.65607177734375,2.1440075866699217,9.233388339996337,-2.673874341583252
1757863515859057000,2.666056884765625,2.203114440155029,9.042151482391358,-2.8061539833068845
1757863515869042000,2.6760419921875,2.301575983428955,8.967631955718993,-2.7301380805969235
1757863515879028000,2.686028076171875,2.442833881378174,9.050231912994384,-2.4109610717773435
1757863515889012000,2.696011962890625,2.541445062255859,9.158569538116454,-2.033275759887695
1757863515898996700,2.705996826171875,2.666841374206543,9.16111337738037,-1.8339584716796873
1757863515908982800,2.715982666015625,2.7474960426330566,9.121609049987793,-1.8939631507873533
1757863515918967800,2.7259677734375,2.7130793937683104,9.064746760559082,-2.108094561767578
1757863515928952600,2.73595263671875,2.6364649406433105,9.069684801483154,-2.4637831459045407
1757863515938939000,2.74593896484375,2.6138696624755857,9.089436965179443,-2.733729383087158
1757863515948924000,2.755923828125,2.677016731262207,9.158719175720215,-2.797026089477539
1757863515958908700,2.76590869140625,2.745850028991699,9.21932240524292,-2.7097873664855956
1757863515968894700,2.775894775390625,2.853289828491211,9.222315157318114,-2.57915373840332
1757863515978879700,2.785879638671875,2.9206267501831054,9.129090930175781,-2.378788986968994
1757863515988865000,2.795864990234375,2.9782372276306153,8.976759849548339,-2.262071656036377
1757863515998850800,2.805850830078125,2.950254995727539,8.815450512695312,-2.2233155166625975
1757863516008835800,2.8158359375,2.93678761138916,8.614187935638427,-2.4046762924194334
1757863516018820900,2.82582080078125,3.0033763450622555,8.482806119537353,-2.7055975135803223
1757863516028805600,2.8358056640625,3.0377929939270016,8.45856482772827,-2.881122422790527
1757863516038792000,2.8457919921875,3.1362545372009274,8.583063314056396,-2.9604303527832028
1757863516048777000,2.85577685546875,3.203142546081543,8.853757739257812,-2.9324481208801267
1757863516058761700,2.86576171875,3.205387110137939,9.056217417144774,-2.77712428817749
1757863516068747800,2.875747802734375,3.292925108337402,9.19268691177368,-2.5258827514648434
1757863516078732800,2.88573291015625,3.254019331359863,9.233238702392578,-2.3669676162719724
1757863516088717800,2.8957177734375,3.2537200561523436,9.138518099212646,-2.420986791229248
1757863516098704000,2.905703857421875,3.4084453384399414,9.00803410873413,-2.6075848831176756
1757863516108689000,2.91568896484375,3.4919431213378904,8.849118973541259,-2.873790180206299
1757863516118674000,2.925673828125,3.4796728378295896,8.780435313415527,-3.09016615524292
1757863516128659700,2.93565966796875,3.4151790306091305,8.807370082092284,-3.2000001564025875
1757863516138644700,2.945644775390625,3.403507297515869,8.77819074935913,-3.2447417999267576
1757863516148630000,2.955630126953125,3.393631215667724,8.702474121856689,-3.207930949401855
1757863516158615800,2.96561572265625,3.2366613693237305,8.597578161621094,-3.1679777091979977
1757863516168600800,2.975600830078125,3.161992205047607,8.482656481933594,-3.2386066581726074
1757863516178585900,2.9855859375,3.1802479927062985,8.422352527618408,-3.2704794677734372
1757863516188571600,2.995571533203125,3.0813375366210938,8.608501706695556,-3.2773627975463864
1757863516198557000,3.005556884765625,3.01968684387207,8.846425496673584,-3.209427325439453
1757863516208542000,3.0155419921875,3.165583507537842,9.03945800552368,-3.0225299583435055
1757863516218527700,3.02552783203125,3.14104294052124,9.1554271484375,-2.762459803009033
1757863516228512800,3.0355126953125,3.157054164123535,8.97601166152954,-2.571522220611572
1757863516238497800,3.045497802734375,2.9937995384216305,8.839691804504394,-2.571073307800293
1757863516248483800,3.05548388671875,2.8280010734558103,8.853458464050293,-2.6128221992492673
1757863516258468900,3.06546875,2.719064897918701,8.796296899414061,-2.8021137680053707
1757863516268454000,3.075453857421875,2.7521348083496093,8.717437882232666,-2.9966426528930663
1757863516278439700,3.085439697265625,2.737619960784912,8.695740429687499,-2.9887118598937987
1757863516288424700,3.0954248046875,2.648884861755371,8.613589385223388,-2.9296050064086914
1757863516298409700,3.10540966796875,2.482787121582031,8.699930282592772,-2.819322092437744
1757863516308395000,3.11539501953125,2.3882161560058592,8.518270231628417,-2.7582699501037595
1757863516318380800,3.125380859375,2.467673723602295,8.28124426727295,-2.671180864715576
1757863516328365800,3.13536572265625,2.4154501998901368,8.31221925125122,-2.4369980148315427
1757863516338350800,3.145350830078125,2.34946001663208,8.445396718597411,-2.3127988037109373
1757863516348336600,3.155336669921875,2.166004314422607,8.527847038269043,-2.4268226577758787
1757863516358322000,3.165322021484375,1.7573440185546874,8.626458219146729,-2.428019758605957
1757863516368307000,3.175306884765625,1.2101193016052245,8.645312557220459,-2.529922966766357
1757863516378292700,3.185292724609375,0.931494083404541,8.686612535858155,-2.7712884216308593
1757863516388277800,3.19527783203125,0.6827963859558105,8.73374838104248,-2.602946117401123
1757863516398262800,3.2052626953125,0.8295908752441405,8.876353017425537,-2.14505504989624
1757863516408248800,3.215248779296875,1.3486837226867674,9.310750981140137,-1.7015291923522948
1757863516418233900,3.22523388671875,1.7140987510681152,9.59536170349121,-1.5541361526489257
1757863516428219000,3.235218994140625,1.5306430488586424,9.750236623382568,-1.798494359588623
1757863516438204700,3.24520458984375,1.3829507339477538,9.690231944274903,-2.025644242095947
1757863516448189700,3.255189697265625,1.0134954902648925,9.232789789581298,-2.0452467681884765
1757863516458174700,3.2651748046875,0.3612251754760742,8.927529077911377,-2.0253449668884276
1757863516468160800,3.275160888671875,-0.01780687484741211,8.992920710754394,-1.8174983352661132
1757863516478145800,3.285145751953125,-0.4542997650146484,9.004742081451415,-1.1552023010253905
1757863516488130800,3.295130859375,-0.45010991210937495,9.34651436843872,-0.5131073432922363
1757863516498116600,3.30511669921875,-0.5994482406616211,9.937882178497313,-0.27099370040893556
1757863516508101600,3.3151015625,-1.1251251426696776,10.543764836120605,-0.5361515342712402
1757863516518087000,3.3250869140625,-1.612045905303955,10.777199497985839,-1.0513538040161132
1757863516528073000,3.335072998046875,-2.3745991340637205,10.683227082824706,-1.3875894996643066
1757863516538057700,3.3450576171875,-2.9888614974975583,10.594641621398925,-1.2669815910339355
1757863516548042800,3.355042724609375,-3.508702532958984,10.679486142730712,-0.3458125022888183
1757863516558028800,3.36502880859375,-4.336497756958008,11.015721838378905,0.9792284790039062
1757863516568013800,3.375013916015625,-4.780023614501953,11.734580886840819,2.4239795433044433
1757863516577998800,3.384998779296875,-5.071218391418457,12.400019310760497,3.54326881942749
1757863516587985000,3.39498486328125,-5.753266589355468,13.021464279174804,4.161421760559082
1757863516597969700,3.4049697265625,-5.804891562652587,13.19010585861206,3.874566474151611
1757863516607954700,3.41495458984375,-5.428702626800537,13.25325292739868,3.125181354522705
1757863516617941000,3.42494091796875,-5.7713727394104,13.129053716278076,2.1279963630676266
1757863516627925800,3.43492578125,-5.936871929168701,12.584522476196287,0.8852560638427733
1757863516637910800,3.444910888671875,-5.963956335449218,12.064382165527343,0.5496189186096191
1757863516647895800,3.454895751953125,-5.692663359832763,11.451167265319823,1.1246762298583983
1757863516657881900,3.4648818359375,-5.5267152572631835,11.58150161819458,2.4539070640563962
1757863516667866600,3.47486669921875,-5.248538951873779,11.986420973968505,3.703530693054199
1757863516677851600,3.4848515625,-5.0662803504943845,12.599037323760985,4.370465493011475
1757863516687838000,3.494837890625,-5.272630606079101,13.160028700256348,4.358344847106934
1757863516697822700,3.50482275390625,-5.457433046722412,13.457358618927001,3.9821559112548828
1757863516707807700,3.514807861328125,-5.466112027740478,13.522301338958739,3.5823242340087886
1757863516717793800,3.524793701171875,-5.4129906784057615,13.170204057312011,2.281674182128906
1757863516727778800,3.53477880859375,-5.023783271026611,12.839953865814207,1.0395324333190918
1757863516737763800,3.544763916015625,-4.491821589660645,13.029694347381591,0.36840778045654293
1757863516747750000,3.55475,-3.953425491333008,13.542053502655028,0.5370493598937988
1757863516757734700,3.564734619140625,-3.5052608680725097,14.194174179840086,1.3070844688415526
1757863516767719700,3.5747197265625,-3.452588431549072,14.382268647766113,2.1664532272338866
1757863516777706000,3.5847060546875,-3.735403502655029,13.759476940917969,2.29214881439209
1757863516787690800,3.594690673828125,-4.094084838867187,12.827833219909667,1.7193360671997069
1757863516797675800,3.60467578125,-4.261379679870605,12.127678871917723,1.2286743644714355
1757863516807661800,3.614661865234375,-4.077923977661133,11.762114205932617,0.6833949363708496
1757863516817646800,3.624646728515625,-3.725826696014404,12.158204943084716,0.3098994773864746
1757863516827631600,3.634631591796875,-3.4905963829040525,12.498929766845702,0.12075754623413085
1757863516837618000,3.644617919921875,-3.3545758010864257,12.756456082916259,0.09501987838745117
1757863516847603000,3.65460302734375,-3.0289643753051756,13.006350881195068,0.4569932418823242
1757863516857587700,3.664587646484375,-2.93693724899292,12.798055336761474,0.6762123313903808
1757863516867573800,3.67457373046875,-2.9683611457824703,12.249932794189453,0.5425859512329101
1757863516877558800,3.684558837890625,-3.1124621582031247,11.687893954467773,0.16505027694702148
1757863516887543800,3.694543701171875,-3.105878103637695,11.384428894042967,0.030974983978271482
1757863516897530000,3.704530029296875,-2.7636569038391112,11.151143869781494,-0.1970727241516113
1757863516907515100,3.71451513671875,-2.376993335723877,11.105953313446044,-0.44427404556274414
1757863516917500000,3.7245,-2.131886940765381,11.041609143829344,-0.6054337448120117
1757863516927486000,3.73448583984375,-1.965789200592041,10.89242045288086,-0.630722499847412
1757863516937471000,3.744470947265625,-1.8589479515075682,10.854562139129637,-0.26695348510742184
1757863516947456000,3.7544560546875,-1.782483135986328,10.522815571594238,0.0474351203918457
1757863516957442000,3.764442138671875,-1.740434969329834,9.99773722000122,-0.044292730712890624
1757863516967427000,3.774427001953125,-1.7865233512878418,9.457545470428466,0.005985504150390624
1757863516977412000,3.784412109375,-1.6651672546386718,8.812158485412597,0.03202244720458984
1757863516987398000,3.79439794921875,-1.3277344581604003,8.5938372215271,0.036361937713623046
1757863516997383000,3.8043828125,-1.1743559143066407,8.392873919677735,0.11118073959350586
1757863517007368000,3.814367919921875,-1.0257657737731933,8.138041080474853,0.0579097526550293
1757863517017354000,3.82435400390625,-0.9923965881347656,7.946804222869873,0.057610477447509766
1757863517027339000,3.834339111328125,-0.847248112487793,7.677007623291015,0.001197100830078125
1757863517037324000,3.844323974609375,-0.6500257507324219,7.389404148864745,-0.07930792999267577
1757863517047309800,3.854309814453125,-0.5446808776855468,7.219116555786132,0.0028431144714355467
1757863517057294800,3.864294921875,-0.47584757995605464,6.897395707702636,-0.05880757827758789
1757863517067280100,3.874280029296875,-0.41793782730102536,6.533477055358886,-0.2859574607849121
1757863517077266000,3.884265869140625,-0.26051906814575193,6.1453171112060545,-0.5084685775756835
1757863517087251000,3.8942509765625,-0.1958756233215332,6.042366439819336,-0.5219359619140624
1757863517097236000,3.904236083984375,-0.07841010437011718,5.938667580413818,-0.45878889312744137
1757863517107222000,3.914221923828125,0.008978256225585938,5.850531031799316,-0.39264907226562495
1757863517117207000,3.92420703125,0.06763619689941405,5.588814862823486,-0.4122515983581543
1757863517127192000,3.934192138671875,-0.0040402153015136714,5.465513477325439,-0.3913023338317871
1757863517137177900,3.944177734375,-0.0770633659362793,5.312434208679199,-0.3763385734558105
1757863517147163000,3.954162841796875,-0.1649006393432617,5.238662870025634,-0.3736450965881347
1757863517157148000,3.96414794921875,-0.08005611801147461,5.0945618576049805,-0.5057751007080078
1757863517167134000,3.974134033203125,0.10250175857543944,5.023633633422851,-0.7015010864257812
1757863517177119000,3.984118896484375,0.3290530906677246,4.921131874847412,-0.8940846824645996
1757863517187104000,3.99410400390625,0.46851533737182616,5.0288709495544435,-1.0274117874145507
1757863517197089800,4.00408984375,0.5377975479125976,5.071068753814697,-1.0787374855041503
1757863517207074800,4.01407470703125,0.507570751953125,5.174767613220214,-0.9057564155578612
1757863517217059800,4.024059814453125,0.40925884628295894,5.2259436737060545,-0.5913678100585937
1757863517227045000,4.034045166015625,0.45594577865600583,5.27981321105957,-0.3275567146301269
1757863517237031000,4.044031005859375,0.4423287567138672,5.363011718749999,-0.26351182022094727
1757863517247016000,4.054015869140625,0.4875193130493164,5.5373395271301264,-0.4542997650146484
1757863517257001000,4.0640009765625,0.4734533782958984,5.872228484344482,-0.5876268699645996
1757863517266986800,4.07398681640625,0.5226841499328613,6.182277599334716,-0.8894459167480468
1757863517276972000,4.083971923828125,0.6426935081481934,6.551433567810058,-1.2943652725219725
1757863517286958000,4.0939580078125,0.7570166374206543,6.863278334045409,-1.3664905975341797
1757863517296942800,4.10394287109375,0.8203133438110352,7.086836914062499,-1.2174515441894531
1757863517306927900,4.113927978515625,0.8059481338500976,7.321019763946532,-1.0996867500305174
1757863517316913000,4.123912841796875,0.8557774559020995,7.519588864135741,-1.078288572692871
1757863517326899000,4.13389892578125,1.0054150596618652,7.723844193267822,-1.222539222717285
1757863517336884000,4.143884033203125,1.088463929748535,8.03703569793701,-1.356614515686035
1757863517346869000,4.153868896484375,1.1578957778930663,8.359804009246826,-1.6379332107543945
1757863517356855000,4.16385498046875,1.10447515335083,8.73344910583496,-2.0028993263244628
1757863517366839800,4.17383984375,1.0945990715026854,9.02135185546875,-2.114528978729248
1757863517376824800,4.183824951171875,1.2822446266174317,9.160215551757812,-2.1582231590270995
1757863517386811100,4.19381103515625,1.4603133750915527,9.207650672149658,-2.070834798431396
1757863517396796000,4.2037958984375,1.7100585357666014,9.16709888153076,-1.989431941986084
1757863517406781000,4.213781005859375,1.783829874420166,9.195530026245116,-1.9035399574279783
1757863517416767000,4.22376708984375,1.777994007873535,9.16799670715332,-1.8336591964721678
1757863517426751700,4.233751708984375,1.7242741081237791,9.169642720794677,-1.8550573738098144
1757863517436737000,4.243737060546875,1.7334020019531249,9.30237127532959,-1.8851345321655273
1757863517446723000,4.25372314453125,1.6563386360168455,9.432107077789306,-1.9587562332153319
1757863517456707800,4.263707763671875,1.5740379539489746,9.467720827484131,-2.0581156021118163
1757863517466692900,4.27369287109375,1.6265607528686523,9.585934534454346,-2.1402666465759275
1757863517476679000,4.283678955078125,1.7618331466674804,9.542090716552734,-2.071732624053955
1757863517486664000,4.293663818359375,1.929427262878418,9.491213931274414,-2.000205849456787
1757863517496649000,4.30364892578125,2.070236248016357,9.554061724853515,-2.0245967788696286
1757863517506635000,4.313635009765625,2.1356278808593747,9.550021509552002,-2.129193463897705
1757863517516620000,4.3236201171875,2.113930428314209,9.50602805404663,-2.18321263885498
1757863517526604800,4.333604736328125,2.245461882019043,9.610325463867188,-2.381781739044189
1757863517536591000,4.343591064453125,2.3933038345336914,9.752032274627686,-2.43265852432251
1757863517546576100,4.353576171875,2.4984990699768064,9.797522106170653,-2.5049334869384765
1757863517556561000,4.363560791015625,2.508375151824951,9.660753336334228,-2.773981898498535
1757863517566547000,4.373546875,2.5794530136108396,9.39140564956665,-3.2269349250793455
1757863517576532000,4.383531982421875,2.6562171043395995,9.345466905212401,-3.444956913757324
1757863517586516700,4.393516845703125,2.7838579803466796,9.304316564178466,-3.3301848716735836
1757863517596503000,4.4035029296875,2.9631238296508786,9.188347421264648,-3.1325135971069336
1757863517606488000,4.413488037109375,3.1037831771850586,9.178620977020262,-2.850596351623535
1757863517616472800,4.423472900390625,3.129520845031738,9.077914869689941,-2.479644731903076
1757863517626459000,4.433458984375,3.06442848739624,8.945186315155029,-2.064550019073486
1757863517636444000,4.44344384765625,2.970456072235107,8.846126221466063,-1.9116203880310056
1757863517646429200,4.45342919921875,2.805854708099365,8.79150849609375,-1.9755156448364257
1757863517656415000,4.4634150390625,2.720860549163818,8.802432041168212,-2.0519804603576657
1757863517666400000,4.47339990234375,2.749890244293213,8.811709572601318,-2.1811177124023438
1757863517676385000,4.483385009765625,2.8568811309814452,8.889072213745116,-2.1957821975708005
1757863517686370800,4.493370849609375,2.8986300224304196,8.997559476470947,-2.0816087059020996
1757863517696356000,4.503356201171875,2.9831752685546875,8.961197538757323,-1.9571102195739745
1757863517706341000,4.513341064453125,2.939481088256836,8.971522533416747,-1.7886182777404784
1757863517716327000,4.523326904296875,2.8380267929077148,9.112331518554686,-1.6530466087341307
1757863517726312000,4.53331201171875,2.6925790420532225,9.195081113433837,-1.6575357368469237
1757863517736297000,4.543296875,2.6114754608154294,9.244012609863281,-1.7120038246154785
1757863517746283000,4.553282958984375,2.5597008499145506,9.316137934875488,-1.790114653778076
1757863517756268000,4.56326806640625,2.5903765586853025,9.245658623504639,-1.8371008613586424
1757863517766253000,4.573253173828125,2.6497826873779293,9.108141665649413,-1.822137100982666
1757863517776238800,4.58323876953125,2.75797067489624,8.994117811584472,-1.778742195892334
1757863517786223900,4.593223876953125,2.8275521606445313,8.891616053009033,-1.7721581413269043
1757863517796209000,4.603208984375,2.810942386627197,8.81709652633667,-1.8936638755798338
1757863517806195000,4.61319482421875,2.775328636932373,8.795997624206542,-2.133084041595459
1757863517816180000,4.623179931640625,2.7410616256713864,8.878298306274413,-2.383876665496826
1757863517826165000,4.6331650390625,2.737470323181152,8.993219985961913,-2.596960613250732
1757863517836150800,4.64315087890625,2.842216645812988,9.040655106353759,-2.72609786529541
1757863517846135800,4.6531357421875,2.9140426956176757,8.98259571609497,-2.7609634269714354
1757863517856121000,4.66312109375,2.9441198539733886,8.915558069610595,-2.690783390808105
1757863517866107000,4.67310693359375,2.93678761138916,8.888473663330078,-2.5698762069702146
1757863517876092000,4.683091796875,2.9445687667846676,8.859593605804443,-2.4533085136413573
1757863517886077000,4.693076904296875,2.943820578765869,8.90583162536621,-2.3675661666870114
1757863517896063000,4.70306298828125,3.017143004608154,9.076867406463622,-2.4582465545654295
1757863517906048000,4.713048095703125,3.078644059753418,9.177723151397705,-2.6568156547546384
1757863517916033300,4.723033203125,3.1070752044677734,9.186252494812011,-2.7856536315917966
1757863517926019000,4.73301904296875,3.0029274322509765,9.16754779434204,-2.8055554328918455
1757863517936004000,4.743004150390625,3.00053323059082,9.118017747497557,-2.7814637786865233
1757863517945990100,4.752990234375,2.970456072235107,9.11741919708252,-2.6312276245117188
1757863517955975200,4.76297509765625,2.959233251953125,9.107543115234375,-2.4334067123413083
1757863517965960200,4.772960205078125,2.9314006576538083,9.059060531616211,-2.3912089080810546
1757863517975946200,4.7829462890625,2.8841151748657223,9.048436261749266,-2.4729110397338867
1757863517985931300,4.79293115234375,2.8534394660949705,9.037662354278565,-2.540247961425781
1757863517995916000,4.802916015625,2.8911481422424314,9.087790951538086,-2.524984925842285
1757863518005902000,4.812902099609375,2.94980608291626,9.151835845947264,-2.479794369506836
1757863518015887400,4.822887451171875,3.0023288818359375,9.127444916534424,-2.385971591949463
1757863518025872100,4.8328720703125,2.986766571044922,9.081506172180175,-2.307411849975586
1757863518035858200,4.842858154296875,2.8968343711853026,9.020154754638671,-2.2412720291137695
1757863518045843200,4.85284326171875,2.7762264625549316,9.020005117034911,-2.1398177337646485
1757863518055828000,4.862827880859375,2.7623101654052733,9.03437032699585,-2.067842046356201
1757863518065814300,4.872814208984375,2.6797102081298827,9.1041014503479,-1.90892691116333
1757863518075799300,4.88279931640625,2.769043857574463,9.031527212524413,-1.7854758880615234
1757863518085784300,4.892784423828125,3.0544027679443357,8.977956950378417,-2.064849294281006
1757863518095770000,4.90277001953125,2.8034605064392086,9.016713089752196,-2.1836615516662596
1757863518105755100,4.912755126953125,2.813635863494873,8.953715658569335,-2.3751976844787595
1757863518115740200,4.922740234375,2.722356925201416,8.91885009689331,-2.5570073730468748
1757863518125726200,4.932726318359375,2.602497204589844,8.897451919555664,-2.703053674316406
1757863518135711200,4.942711181640625,2.479195819091797,8.813654861450194,-2.982127805328369
1757863518145696300,4.9526962890625,2.479644731903076,8.827571158599852,-3.3693899238586424
1757863518155682000,4.96268212890625,2.6487352241516113,9.130886581420897,-3.593696691894531
1757863518165667000,4.9726669921875,2.877830395507812,9.356989000701903,-3.4548329956054684
1757863518175652400,4.98265234375,2.8176760787963864,9.346664006042479,-3.0349498794555663
1757863518185638100,4.99263818359375,2.684648249053955,9.150489107513428,-2.7461493041992187
1757863518195623200,5.002623046875,2.6253917579650876,8.866626573181152,-2.6240450195312497
1757863518205608200,5.012608154296875,2.6369138534545895,8.724321212005615,-2.637512403869629
1757863518215594000,5.022593994140625,2.6212019050598143,8.897003006744384,-2.616263864135742
1757863518225579300,5.032579345703125,2.666242823791504,9.12280615081787,-2.5980080764770506
1757863518235564300,5.042564208984375,2.755875748443603,9.19927096633911,-2.6506805130004882
1757863518245550000,5.052550048828125,2.770091320800781,9.172635472869873,-2.646191384887695
1757863518255535000,5.06253515625,2.78999312210083,9.077615594482422,-2.6321254501342772
1757863518265520000,5.07252001953125,2.8215666564941406,8.946832328796386,-2.666691736602783
1757863518275506200,5.082506103515625,2.6856957122802734,8.805873706054687,-2.596960613250732
1757863518285491200,5.0924912109375,2.4365491020202636,8.815899425506592,-2.559401574707031
1757863518295476200,5.102476318359375,2.3603835617065427,8.927080165100097,-2.5667338172912597
1757863518305462000,5.1124619140625,2.4781483558654784,9.063998572540283,-2.4979005195617674
1757863518315447000,5.122447021484375,2.6506805130004882,9.16186156539917,-2.3874679679870603
1757863518325432000,5.13243212890625,2.697965995788574,9.210194511413574,-2.254290500640869
1757863518335418000,5.142418212890625,2.666691736602783,9.224410083770751,-2.145653600311279
1757863518345403100,5.152403076171875,2.5821464904785154,9.147346717834472,-2.1356278808593747
1757863518355388200,5.16238818359375,2.4582465545654295,9.037363079071044,-2.1896470558166503
1757863518365374200,5.172374267578125,2.4531588760375973,9.007435558319091,-2.2417209419250486
1757863518375359000,5.18235888671875,2.4723124893188477,9.024045332336426,-2.356343346405029
1757863518385344300,5.19234423828125,2.475903791809082,8.987533757019042,-2.590077283477783
1757863518395330300,5.202330322265625,2.479195819091797,8.886378736877441,-2.7543793724060057
1757863518405315000,5.212315185546875,2.4830863967895507,8.935908783721922,-2.73896669921875
1757863518415300000,5.222300048828125,2.521094348144531,9.029282648468017,-2.5981577140808105
1757863518425286100,5.2322861328125,2.614168937683105,9.041702569580078,-2.3205799591064453
1757863518435271200,5.242271240234375,2.654720728302002,9.098564859008789,-2.025045691680908
1757863518445256200,5.252256103515625,2.620304079437256,9.183110105133055,-1.9176058921813963
1757863518455242200,5.2622421875,2.6372131286621094,9.221866244506835,-2.025045691680908
1757863518465227000,5.27222705078125,2.6324247253417967,9.209446323394776,-2.1977274864196774
1757863518475212000,5.2822119140625,2.545634915161133,9.144503603363036,-2.4563012657165526
1757863518485198300,5.2921982421875,2.526481301879883,9.075071755218506,-2.683900061035156
1757863518495183000,5.30218310546875,2.516605220031738,9.090035515594481,-2.775927187347412
1757863518505168100,5.312168212890625,2.5673323677062987,9.0788126953125,-2.7281927917480466
1757863518515154200,5.322154296875,2.5082255142211913,9.086294575500487,-2.5125650047302246
1757863518525139200,5.33213916015625,2.4727614021301267,9.12968948059082,-2.282572007751465
1757863518535124000,5.3421240234375,2.517353408050537,9.126696728515624,-2.155978594970703
1757863518545110300,5.3521103515625,2.6562171043395995,9.124302526855468,-2.142660848236084
1757863518555095300,5.36209521484375,2.7151743202209473,9.138518099212646,-2.245312244415283
1757863518565080000,5.372080078125,2.703951499938965,9.111882605743407,-2.372953120422363
1757863518575066000,5.382066162109375,2.6158149513244626,9.100959060668945,-2.471564301300049
1757863518585051100,5.392051025390625,2.5213936233520506,9.016862727355957,-2.5611972259521485
1757863518595036200,5.4020361328125,2.487425887298584,8.985588468170166,-2.4583961921691895
1757863518605022200,5.412022216796875,2.4548048896789547,9.030330111694335,-2.302174533843994
1757863518615007200,5.42200732421875,2.5383026725769042,9.049184449768067,-2.182763726043701
1757863518624992300,5.4319921875,2.6330232757568357,9.088838414764403,-2.1683985160827635
1757863518634978000,5.44197802734375,2.667290287017822,9.096170657348631,-2.2836194709777833
1757863518644963300,5.45196337890625,2.6316765373229978,9.085097474670409,-2.495506317901611
1757863518654948400,5.4619482421875,2.601749016571045,9.082553635406494,-2.618957341003418
1757863518664934100,5.47193408203125,2.570175482177734,9.037662354278565,-2.5822961280822754
1757863518674919200,5.481919189453125,2.554463533782959,8.959102612304687,-2.4334067123413083
1757863518684904200,5.491904296875,2.614168937683105,8.984690642547607,-2.1805191619873048
1757863518694890200,5.50189013671875,2.615066763305664,9.075520668029785,-2.0784663162231443
1757863518704875300,5.511875244140625,2.60474176864624,9.14151085128784,-2.1574749710083005
1757863518714860300,5.5218603515625,2.6249428451538086,9.133879333496093,-2.35589443359375
1757863518724846000,5.53184619140625,2.647687760925293,9.056666329956053,-2.496853056335449
1757863518734831000,5.5418310546875,2.5851392425537107,9.106495652008055,-2.6173113273620605
1757863518744817200,5.551817138671875,2.5406968742370606,9.181913004302977,-2.6879402763366698
1757863518754802200,5.56180224609375,2.591424021911621,9.105747463989257,-2.6050410438537597
1757863518764787200,5.571787109375,2.6575638427734374,9.02150149307251,-2.4040777420043944
1757863518774773200,5.581773193359375,2.682553322601318,8.930072917175293,-2.2755390403747557
1757863518784758000,5.591758056640625,2.664297534942627,8.968679418945312,-2.302922721862793
1757863518794743000,5.601742919921875,2.6440964584350586,9.044545684051513,-2.438195115661621
1757863518804729300,5.611729248046875,2.690334477996826,9.041403294372557,-2.574814247894287
1757863518814714000,5.621714111328125,2.740911988067627,9.085995300292968,-2.595164962005615
1757863518824699100,5.63169921875,2.7465982170104977,9.06489639816284,-2.5112182662963867
1757863518834685200,5.641685302734375,2.702455123901367,9.07866305770874,-2.4417864181518554
1757863518844670000,5.651669921875,2.7347768463134763,9.121758687591552,-2.4756045166015626
1757863518854655200,5.6616552734375,2.690933028411865,9.016713089752196,-2.3982418754577637
1757863518864641300,5.671641357421875,2.5080758766174314,9.02733735961914,-2.3288100273132324
1757863518874626000,5.6816259765625,2.523189274597168,9.05980871963501,-2.370259643554687
1757863518884611000,5.691611083984375,2.6075848831176756,9.066243136596679,-2.391508183288574
1757863518894597600,5.70159765625,2.7246014892578123,9.095871382141112,-2.4003368019104
1757863518904582400,5.71158251953125,2.817975354003906,9.055918141937255,-2.3977929626464842
1757863518914567400,5.7215673828125,2.738218511199951,9.006986645507812,-2.392854921722412
1757863518924553700,5.7315537109375,2.657114929962158,9.018508740997314,-2.3780407989501953
1757863518934538500,5.74153857421875,2.6267384963989255,9.031377574920654,-2.3192332206726074
1757863518944523500,5.7515234375,2.6179098777770995,9.063250384521483,-2.270152086639404
1757863518954509600,5.761509521484375,2.6345196517944336,9.11083514251709,-2.2896049751281735
1757863518964494600,5.77149462890625,2.6427497200012207,9.085097474670409,-2.379986087799072
1757863518974479400,5.781479248046875,2.679859845733642,8.974964198303223,-2.466326985168457
1757863518984465700,5.791465576171875,2.7557261108398436,8.939350448608398,-2.4779987182617185
1757863518994450700,5.80145068359375,2.7144261322021483,9.011625411224365,-2.45794727935791
1757863519004435500,5.811435546875,2.5694272941589356,9.144503603363036,-2.4774001678466795
1757863519014421500,5.82142138671875,2.5731682342529294,9.12355433883667,-2.4998458084106443
1757863519024406500,5.831406494140625,2.525733113861084,9.003844255828858,-2.4817396583557128
1757863519034391600,5.8413916015625,2.510918991088867,9.012972149658202,-2.4486697479248045
1757863519044377600,5.851377685546875,2.6197055290222164,9.08434928665161,-2.467374448394775
1757863519054362600,5.861362548828125,2.7259482276916502,9.140912300872802,-2.4652795219421386
1757863519064347400,5.871347412109375,2.784905443572998,9.189694159698485,-2.41964005279541
1757863519074333400,5.88133349609375,2.8477532371520993,9.14929200668335,-2.4178444015502927
1757863519084318700,5.891318603515625,2.798372827911377,9.106346014404297,-2.3952491233825683
1757863519094303500,5.901303466796875,2.6452935592651365,9.074772480010985,-2.3478140029907224
1757863519104289500,5.91128955078125,2.570175482177734,8.942642475891112,-2.2732944763183593
1757863519114274600,5.921274658203125,2.559251937103271,8.942193563079833,-2.244264781188965
1757863519124259600,5.931259521484375,2.712630480957031,8.97631093673706,-2.2080524810791013
1757863519134245600,5.94124560546875,2.7920880485534667,9.051129738616943,-2.2411223915100096
1757863519144230700,5.951230712890625,2.7864018196105955,9.131185856628418,-2.3204303215026854
1757863519154215700,5.961215576171875,2.707542802429199,9.139715200042724,-2.4356512763977047
1757863519164201500,5.971201416015625,2.6083330711364745,9.108590578460692,-2.549675130462646
1757863519174186500,5.9811865234375,2.583792504119873,9.10380217514038,-2.4959552307128905
1757863519184171500,5.991171630859375,2.605340319061279,9.106346014404297,-2.343624150085449
1757863519194157600,6.001157470703125,2.636016027832031,9.11741919708252,-2.250549560546875
1757863519204142600,6.011142578125,2.627935597229004,9.082553635406494,-2.3657705154418944
1757863519214128400,6.02112841796875,2.718316709899902,8.96269391479492,-2.59830735168457
