time,seconds_elapsed,z,y,x
1757768728717776100,6.052776123046875,0.1809021085500717,-0.5764122605323792,0.4761929214000702
1757768728727733000,6.06273291015625,0.3423154950141907,-0.595188319683075,-0.1980515420436859
1757768728737689900,6.07268994140625,0.6126410961151123,-0.6222420334815979,-0.6850199103355408
1757768728747647000,6.08264697265625,0.8126958608627319,-0.591224193572998,-0.9439830780029296
1757768728757603800,6.092603759765625,1.155574917793274,-0.7839247584342957,-1.3168632984161377
1757768728767561000,6.10256103515625,1.721089243888855,-0.852486252784729,-1.5593334436416626
1757768728777518000,6.11251806640625,2.383320569992065,-0.9985936880111694,-1.4178813695907593
1757768728787475000,6.122474853515625,2.85682225227356,-1.1448239088058472,-1.4185348749160769
1757768728797432000,6.13243212890625,3.159354448318481,-1.0714538097381592,-1.5890157222747805
1757768728807389000,6.142388916015625,2.2551417350769043,-0.885357677936554,-1.567081093788147
1757768728817345800,6.152345703125,1.26484477519989,-0.3390654921531677,-1.7190290689468384
1757768728827303000,6.162302978515625,0.8908409476280212,-0.4889940023422241,-1.3984746932983398
1757768728837260000,6.172260009765625,0.6065622568130493,-0.599463701248169,-1.0044960975646973
1757768728847217000,6.182216796875,0.5171205401420593,-0.5831819772720337,-0.8953036069869995
1757768728857174000,6.192174072265625,0.5083023905754089,-0.6612042784690857,-0.7720984816551208
1757768728867131000,6.202130859375,0.7116086483001709,-0.6241099238395691,-0.5689027309417725
1757768728877088000,6.212087890625,1.0732372999191284,-0.591617226600647,-0.3052425384521484
1757768728887044900,6.222044921875,1.2295478582382202,-0.3890062868595123,-0.0768764987587928
1757768728897002800,6.232002685546875,1.303459405899048,-0.0974264964461326,0.0226529743522405
1757768728906959600,6.241959716796875,1.2605412006378174,0.0406980887055397,0.0374505594372749
1757768728916916700,6.251916748046875,1.2203713655471802,0.215936005115509,-0.079702079296112
1757768728926873600,6.26187353515625,1.2449653148651123,0.0878864228725433,-0.2656583487987518
1757768728936830500,6.27183056640625,1.2578023672103882,-0.1268838793039322,-0.4462667107582092
1757768728946788600,6.28178857421875,1.3035587072372437,-0.2727103233337402,-0.6857171058654785
1757768728956745700,6.291745849609375,1.3336361646652222,-0.3315842151641845,-0.9300848841667176
1757768728966702300,6.301702392578125,1.4965587854385376,-0.4188703596591949,-1.1811264753341677
1757768728976659500,6.311659423828125,1.8569674491882324,-0.637387216091156,-1.399635910987854
1757768728986616600,6.321616455078125,2.280690908432007,-0.8979248404502869,-1.5475507974624634
1757768728996573700,6.33157373046875,2.4279494285583496,-0.9797956347465516,-1.6461215019226074
1757768729006530600,6.341530517578125,2.461732864379883,-0.9727590084075928,-1.7374204397201538
1757768729016487700,6.35148779296875,3.951236486434937,-1.8085557222366333,-2.322952508926392
1757768729026444800,6.36144482421875,6.435846328735352,-3.561084270477295,-3.4182889461517334
1757768729036401400,6.3714013671875,8.87062931060791,-5.440539836883545,-4.819118499755859
1757768729046358500,6.381358642578125,9.632956504821776,-6.109954833984375,-5.190422534942627
1757768729056315600,6.391315673828125,8.847317695617676,-5.873560428619385,-5.048527717590332
1757768729066272500,6.4012724609375,6.6678853034973145,-5.206052303314209,-4.690962791442871
1757768729076229600,6.411229736328125,3.75825572013855,-3.465284824371338,-4.652082443237305
1757768729086186800,6.421186767578125,1.0009464025497437,-1.824652314186096,-4.618763446807861
1757768729096143400,6.431143310546875,-1.5005130767822266,0.4330413937568664,-4.300900459289551
1757768729106100500,6.4411005859375,-3.756319761276245,1.5022752285003662,-3.53994369506836
1757768729116057600,6.4510576171875,-5.462801933288574,3.54056978225708,-2.78963041305542
1757768729126014500,6.461014404296875,-6.678762435913086,4.883868217468262,-2.046757459640503
1757768729135971600,6.4709716796875,-7.662339687347412,5.685305118560791,-1.1485391855239868
1757768729145928700,6.4809287109375,-8.23777961730957,6.083257675170898,-0.0679182559251785
1757768729155885800,6.4908857421875,-8.277812957763672,6.031720161437988,1.141106128692627
1757768729165842400,6.500842529296875,-7.621640205383301,5.585585594177246,2.282602548599243
1757768729175799600,6.510799560546875,-6.422260284423828,4.849328994750977,3.157453775405884
1757768729185756700,6.520756591796875,-4.875621795654297,3.211888074874878,3.697338819503784
1757768729195713500,6.530713623046875,-3.2639145851135254,1.4535930156707764,3.781851530075073
1757768729205671400,6.54067138671875,-1.85937774181366,-0.1038350537419319,3.5426766872406006
1757768729215628500,6.550628662109375,-0.7477533221244812,-0.7834026217460632,3.206726312637329
1757768729225585400,6.56058544921875,0.0801744312047958,-0.5761594176292419,2.9596571922302246
1757768729235542500,6.57054248046875,0.606417715549469,-0.1819048821926117,2.923759698867798
1757768729245499600,6.580499755859375,0.7941447496414185,0.0575433894991874,3.062110185623169
1757768729255456800,6.590456787109375,0.73395836353302,0.3416925966739654,3.325742483139038
1757768729265413600,6.60041357421875,0.4739786982536316,0.6124753355979919,3.6276581287384033
1757768729275370500,6.61037060546875,0.0497486181557178,0.7776200771331787,3.894514799118042
1757768729285327600,6.62032763671875,-0.4773735404014587,0.750254213809967,4.041310787200928
1757768729295284500,6.630284423828125,-1.0631210803985596,0.7697523832321167,3.99415922164917
1757768729305241600,6.64024169921875,-1.5998750925064087,1.118733525276184,3.733708143234253
1757768729315198700,6.65019873046875,-2.021772623062134,1.6114938259124756,3.4396913051605225
1757768729325155600,6.660155517578125,-2.280888319015503,1.8489139080047607,3.1550161838531494
1757768729335112400,6.670112548828125,-2.3853442668914795,1.856706380844116,2.8434016704559326
1757768729345069600,6.680069580078125,-2.4168031215667725,1.8661835193634035,2.4752697944641118
1757768729355026400,6.6900263671875,-2.3859920501708984,2.03249740600586,2.020256757736206
1757768729364983600,6.699983642578125,-2.2531485557556152,2.0261449813842773,1.5452958345413208
1757768729374940700,6.709940673828125,-2.1398351192474365,1.6333022117614746,1.1091574430465698
1757768729384897500,6.7198974609375,-2.1439049243927,1.1679073572158811,0.6836205124855042
1757768729394854700,6.729854736328125,-2.2340657711029053,0.8311089873313904,0.2216865718364715
1757768729404811500,6.7398115234375,-2.4518492221832275,0.6602831482887268,-0.3008549213409424
1757768729414768600,6.7497685546875,-2.764961242675781,0.4865535199642181,-0.8514326214790344
1757768729424726500,6.7597265625,-2.976919889450073,0.3078325092792511,-1.4052252769470217
1757768729434683600,6.76968359375,-2.967590808868408,0.0579045116901397,-1.9284453392028809
1757768729444640500,6.779640625,-2.683880090713501,-0.3060878217220306,-2.399552583694458
1757768729454597400,6.789597412109375,-2.1313319206237797,-0.8519890904426575,-2.7348058223724365
1757768729464554500,6.799554443359375,-1.37798011302948,-1.174888014793396,-2.890904188156128
1757768729474511600,6.80951171875,-0.615465521812439,-1.5023056268692017,-2.8196723461151123
1757768729484468500,6.819468505859375,0.0819058343768119,-2.0155224800109863,-2.604219436645508
1757768729494425600,6.829425537109375,0.7660675644874573,-1.88717257976532,-1.813976526260376
1757768729504382700,6.8393828125,0.9510539174079896,-1.8909564018249512,-1.1833988428115845
1757768729514339600,6.849339599609375,0.9954132437705994,-1.2374038696289062,-0.6734141707420349
1757768729524296400,6.85929638671875,0.9309543371200562,-1.2928231954574585,-0.1901060342788696
1757768729534253600,6.869253662109375,1.059041976928711,-1.111520528793335,0.3186023235321045
1757768729544210700,6.879210693359375,1.2961000204086304,-0.9115198254585266,0.8749225735664368
1757768729554167600,6.88916748046875,1.5358203649520874,-0.7197451591491699,1.3065730333328247
1757768729564124700,6.899124755859375,1.6635652780532837,-0.4203829169273376,1.8743155002593996
1757768729574081500,6.90908154296875,1.877805471420288,-0.7771149277687073,1.957188963890076
1757768729584038400,6.919038330078125,1.8059669733047483,-1.0910606384277344,1.3767114877700806
1757768729593995500,6.92899560546875,1.14879310131073,-0.720663845539093,0.6077239513397217
1757768729603953700,6.93895361328125,0.216930478811264,-0.4880492687225342,-0.1308417618274688
1757768729613910800,6.948910888671875,-0.520159125328064,-0.1605957150459289,-0.7454348206520081
1757768729623867400,6.958867431640625,-0.6329432129859924,-0.1068698987364769,-1.0247492790222168
1757768729633824500,6.968824462890625,-0.4531877934932709,-0.4064231812953949,-1.2555526494979858
1757768729643781600,6.97878173828125,-0.2308242172002792,-0.6734066605567932,-1.435250997543335
1757768729653738500,6.988738525390625,0.0977851226925849,-0.8473556637763977,-1.5798406600952148
1757768729663695600,6.998695556640625,0.3687327206134796,-0.8623120188713074,-1.582631230354309
1757768729673652700,7.00865283203125,0.3208968043327331,-0.7075867056846619,-1.2590211629867554
1757768729683609600,7.018609619140625,0.3290580511093139,-0.5467821359634399,-1.0204216241836548
1757768729693566500,7.02856640625,0.2306354641914367,-0.5460142493247986,-0.7835189700126648
1757768729703523600,7.038523681640625,0.1714672297239303,-0.529245913028717,-0.6532488465309143
1757768729713480400,7.04848046875,0.2820403277873993,-0.4639529585838318,-0.5041874051094055
1757768729723437600,7.0584375,0.5262812376022339,-0.4972288906574249,-0.4161582291126251
1757768729733394700,7.068394775390625,0.6675724983215332,-0.5097163915634155,-0.4379243850708008
1757768729743351600,7.0783515625,0.7703319191932678,-0.4474322497844696,-0.5869804620742798
1757768729753308400,7.088308349609375,0.8146956562995911,-0.2927985489368438,-0.6726831197738647
1757768729763265500,7.098265625,0.857135534286499,-0.0045188148505985,-0.6828598380088806
1757768729773222700,7.10822265625,1.001820683479309,0.1207403019070625,-0.674885630607605
1757768729783180500,7.1181806640625,1.2280781269073486,0.140196293592453,-0.7900841236114502
1757768729793137700,7.1281376953125,1.4286205768585205,-0.0291358511894941,-0.9292081594467164
1757768729803094500,7.138094482421875,1.4997378587722778,-0.152982696890831,-0.9104571342468262
1757768729813051400,7.148051513671875,1.7381447553634644,-0.2783207893371582,-0.8261013031005859
1757768729823008500,7.158008544921875,2.2810654640197754,-0.3281469345092773,-0.592464804649353
1757768729832965600,7.167965576171875,2.724471092224121,-0.2278047800064087,-0.361497163772583
1757768729842922800,7.1779228515625,2.6880486011505127,-0.4296692013740539,-0.5366071462631226
1757768729852879600,7.187879638671875,2.658240795135498,-0.4972618520259857,-0.6813213229179382
1757768729862836500,7.19783642578125,2.7019193172454834,-0.65814608335495,-0.7752350568771362
1757768729872793600,7.207793701171875,2.885638475418091,-0.721473753452301,-0.9303176403045654
1757768729882750500,7.21775048828125,2.2598817348480225,-0.8853907585144043,-1.1545705795288086
1757768729892707800,7.227707763671875,2.217593193054199,-0.8520457744598389,-1.1778292655944824
1757768729902665000,7.2376650390625,1.9207624197006223,-0.7904444336891174,-0.8665403127670288
1757768729912622000,7.2476220703125,1.6629220247268677,-0.6049844026565552,-0.6619580388069153
1757768729922578700,7.25757861328125,1.3411234617233276,-0.3862845301628113,-0.5644101500511169
1757768729932535800,7.267535888671875,1.0292580127716064,-0.2976579666137695,-0.5412935614585876
1757768729942493000,7.277492919921875,0.7770013213157654,-0.2407627403736114,-0.5803685188293457
1757768729952449800,7.28744970703125,0.6203727126121521,-0.3044150471687317,-0.6373007893562317
1757768729962408000,7.297407958984375,0.5966442227363586,-0.4614187777042389,-0.6352192759513855
1757768729972364800,7.30736474609375,0.6712998747825623,-0.4902494549751282,-0.4759153723716736
1757768729982322000,7.317322021484375,0.8016922473907471,-0.3601058423519134,-0.1871402710676193
1757768729992278800,7.32727880859375,0.9909231662750244,-0.1190546676516532,0.155140146613121
1757768730002236000,7.33723583984375,1.2429641485214231,0.0041974885389208,0.4308673143386841
1757768730012193000,7.347193115234375,1.477994441986084,0.0405305959284305,0.5637511014938354
1757768730022150000,7.35714990234375,1.7381333112716677,0.0779061987996101,0.5428423881530762
1757768730032106800,7.367106689453125,1.930269837379456,-0.0077070910483598,0.3259558081626892
1757768730042064000,7.37706396484375,2.10554838180542,-0.1119315028190612,-0.0097920950502157
1757768730052020700,7.387020751953125,2.3068978786468506,-0.251064270734787,-0.3038003146648407
1757768730061977900,7.396977783203125,2.56960391998291,-0.2995961308479309,-0.5872738361358643
1757768730071935000,7.40693505859375,2.510363817214966,-0.0293561276048421,-0.5256674289703369
1757768730081891800,7.416891845703125,2.3515965938568115,0.1389463245868683,-0.4526920616626739
1757768730091849000,7.426848876953125,2.5754284858703613,0.1278040260076522,-0.5987217426300049
1757768730101805800,7.436805908203125,2.9086930751800537,-0.0151286348700523,-0.990226149559021
1757768730111762700,7.4467626953125,3.38823676109314,0.0617515854537487,-1.223245620727539
1757768730121720800,7.456720947265625,3.6250932216644287,0.8172363042831421,-1.1655535697937012
1757768730131678000,7.466677978515625,3.787022113800049,1.1199864149093628,-0.8403360247612
1757768730141634800,7.476634765625,2.1952338218688965,1.5072702169418335,0.2810979187488556
1757768730151591700,7.486591796875,0.2102348804473877,1.1712607145309448,1.065568923950195
1757768730161548800,7.496548828125,-0.7577104568481445,0.3436783850193023,0.9870541095733644
1757768730171506000,7.506505859375,-1.0769944190979004,0.2177641987800598,0.7901374101638794
1757768730181462800,7.516462890625,-0.9687795639038086,0.5455806851387024,0.8873390555381775
1757768730191420000,7.526419921875,-0.8390093445777893,1.1465870141983032,1.2944282293319702
1757768730201377000,7.536376953125,-0.6979073286056519,1.752312421798706,1.7328544855117798
1757768730211333600,7.546333740234375,-0.7996604442596436,2.115144729614258,1.975788116455078
1757768730221290800,7.556290771484375,-1.10462749004364,2.1851918697357178,1.9722820520401
1757768730231248000,7.566247802734375,-1.523479461669922,1.895442008972168,1.8370829820632932
1757768730241205000,7.576205078125,-1.9836210012435915,1.6876858472824097,1.7144097089767456
1757768730251161900,7.586161865234375,-2.1438803672790527,1.3383574485778809,1.6453577280044556
1757768730261119000,7.596118896484375,-2.0533149242401123,1.0927200317382812,1.669691801071167
1757768730271075800,7.606075927734375,-1.8546600341796875,0.98030686378479,1.701075553894043
1757768730281033700,7.61603369140625,-1.6101083755493164,0.8311147093772888,1.7580558061599731
1757768730290990800,7.625990966796875,-1.408732295036316,0.7871559858322144,1.772281050682068
1757768730300948000,7.635947998046875,-1.301599621772766,0.6258917450904846,1.6527130603790283
1757768730310905000,7.645905029296875,-1.2876924276351929,0.4481390416622162,1.4148377180099487
1757768730320861700,7.65586181640625,-1.3756097555160522,0.2875536382198334,1.0690152645111084
1757768730330818800,7.66581884765625,-1.5329594612121582,0.1382018029689788,0.6177623271942139
1757768730340776000,7.67577587890625,-1.6033265590667725,0.1551341712474823,0.2472500056028366
1757768730350732800,7.68573291015625,-1.631076455116272,0.1128001809120178,0.3834538757801056
1757768730360690000,7.69568994140625,-1.6485313177108765,0.1301994025707245,0.6810312271118164
1757768730370647000,7.70564697265625,-1.607735276222229,0.1031072065234184,0.9443546533584596
1757768730380604000,7.71560400390625,-1.5127416849136353,0.1160512343049049,0.9911764860153198
1757768730390560800,7.725560791015625,-1.3480976819992063,0.0700135231018066,0.9348048567771912
1757768730400518000,7.735517822265625,-1.202839493751526,-0.0395097769796848,0.8976175785064697
1757768730410474800,7.745474853515625,-0.9283746480941772,-0.1698361039161682,0.808791995048523
1757768730420432000,7.755431884765625,-0.8742432594299316,-0.2735571563243866,0.9048647284507751
1757768730430389000,7.765388916015625,-1.1464247703552246,0.2153457105159759,1.0063564777374268
1757768730440347000,7.775346923828125,-1.5155441761016846,0.8716798424720764,0.893525242805481
1757768730450303700,7.7853037109375,-1.6808679103851318,0.4658209979534149,0.689530074596405
1757768730460260900,7.7952607421875,-1.4630829095840454,0.6801908016204834,0.2608511447906494
1757768730470218000,7.805218017578125,-1.1683505773544312,0.6425384283065796,0.1376466900110244
1757768730480174800,7.8151748046875,-0.9449718594551086,0.7045749425888062,0.1969142854213714
1757768730490132000,7.825132080078125,-0.6358034014701843,0.762650191783905,0.1718701720237732
1757768730500088800,7.8350888671875,-0.3521844744682312,0.7203008532524109,0.11240204423666
1757768730510045700,7.845045654296875,-0.155185654759407,0.7504737377166748,0.0431281365454196
1757768730520002800,7.8550029296875,-0.1069246530532836,0.8714007139205933,-0.0136632416397333
1757768730529960000,7.8649599609375,-0.1423039734363556,1.093519687652588,0.0816859453916549
1757768730539916800,7.874916748046875,-0.1705292165279388,1.2148693799972534,0.1511579602956771
1757768730549874000,7.8848740234375,-0.1281222403049469,1.2037135362625122,0.0242310855537652
1757768730559830800,7.894830810546875,-0.0657677948474884,1.1135413646697998,-0.2814673185348511
1757768730569788000,7.904787841796875,0.0004967965651303,1.1391644477844238,-0.4807483851909637
1757768730579745800,7.914745849609375,0.4997438490390777,1.069370985031128,-0.5242606997489929
1757768730589703000,7.924702880859375,1.1743794679641724,0.7362352013587952,-0.6806125640869141
1757768730599660000,7.934659912109375,1.561888337135315,0.7559838891029358,-0.8107340931892395
1757768730609616600,7.94461669921875,1.680836796760559,0.9059613347053528,-0.9437430500984192
1757768730619573800,7.95457373046875,1.7698814868927002,0.9631260633468628,-0.956754207611084
1757768730629531000,7.96453076171875,1.8433507680892944,0.9143534898757936,-0.8011045455932617
1757768730639488000,7.974488037109375,1.9337522983551023,0.8625776767730713,-0.5662965774536133
1757768730649444900,7.98444482421875,1.9319777488708496,0.8018032908439636,-0.2464534938335418
1757768730659402000,7.994402099609375,1.7615245580673218,0.7178330421447754,0.0916776806116104
1757768730669358800,8.00435888671875,1.4641673564910889,0.7801042199134827,0.3253377676010132
1757768730679315700,8.014315673828126,1.0726724863052368,0.8331762552261353,0.4521457850933075
1757768730689272800,8.02427294921875,0.6086022257804871,0.8375884890556335,0.503417432308197
1757768730699230000,8.03422998046875,0.0521791838109493,0.9414256811141968,0.5485968589782715
1757768730709186800,8.044186767578125,-0.4616316854953766,1.0587741136550903,0.6191019415855408
1757768730719144000,8.05414404296875,-0.9355944395065308,1.2699670791625977,0.6349748969078064
1757768730729101800,8.064101806640625,-1.3176982402801514,1.4869765043258667,0.6364092826843262
1757768730739059000,8.074058837890625,-1.2748841047286987,1.4877344369888306,0.6307175755500793
1757768730749015800,8.084015869140625,-0.8928255438804626,1.427607536315918,0.4819238781929016
1757768730758973000,8.093972900390625,-0.4857464730739593,1.4443117380142212,0.1410967856645584
1757768730768930000,8.103929931640625,-0.090683713555336,1.361356258392334,-0.2581437826156616
1757768730778887000,8.113886962890625,0.3576008379459381,1.1091493368148804,-0.621985912322998
1757768730788843800,8.12384375,0.7845332622528076,0.88126540184021,-1.0156573057174685
1757768730798801000,8.13380078125,1.20772123336792,0.6264336705207825,-1.4137306213378906
1757768730808757800,8.1437578125,1.635892033576965,0.431328147649765,-1.809993386268616
1757768730818715000,8.15371484375,1.8760406970977783,0.594344437122345,-2.041703462600708
1757768730828672000,8.163672119140625,2.148160934448242,0.3828824162483215,-2.275099277496338
1757768730838628900,8.17362890625,2.4327051639556885,0.1312975883483886,-2.2570817470550537
1757768730848585700,8.183585693359374,2.666182518005371,0.2515316903591156,-2.135955333709717
1757768730858542800,8.19354296875,2.778450727462769,0.293749451637268,-2.041271924972534
1757768730868501000,8.2035009765625,2.689120292663574,0.5199868083000183,-1.7650835514068604
1757768730878457900,8.213457763671874,1.7692619562149048,1.5320957899093628,-1.2281732559204102
1757768730888415000,8.2234150390625,1.2019470930099487,2.0560340881347656,-0.536426842212677
1757768730898371300,8.233371337890626,1.0573872327804563,1.9274451732635496,-0.0879747346043586
1757768730908328200,8.243328125,0.8905784487724304,1.7211741209030151,0.2269532829523086
1757768730918285000,8.25328515625,0.7151661515235901,1.7265198230743408,0.3911054730415344
1757768730928242200,8.2632421875,0.6245704889297485,1.421576976776123,0.42535200715065
1757768730938199300,8.27319921875,0.6239404082298279,1.2250220775604248,0.466075986623764
1757768730948156200,8.28315625,0.6892211437225342,1.2380132675170898,0.6988303661346436
1757768730958113300,8.29311328125,0.6699223518371582,1.4127908945083618,0.8831825852394104
1757768730968070100,8.303070068359375,0.6996528506278992,1.4844149351119995,0.9903091788291932
1757768730978027000,8.313027099609375,0.7809200286865234,1.4744219779968262,1.0839147567749023
1757768730987984100,8.322984130859375,0.833447277545929,1.5044667720794678,1.1579809188842771
1757768730997941200,8.332941162109375,0.8575195670127869,1.536043643951416,1.176156520843506
1757768731007899400,8.3428994140625,0.8608834147453308,1.288371443748474,1.1005291938781738
1757768731017856000,8.35285595703125,0.8135172128677368,1.0807737112045288,1.066177248954773
1757768731027813000,8.362813232421875,0.7701641917228699,0.9766045808792114,1.0370233058929443
1757768731037770200,8.372770263671875,0.7387067079544067,0.92845219373703,1.0195550918579102
1757768731047727000,8.38272705078125,0.8019395470619202,0.9451735019683838,0.9554404020309448
1757768731057684200,8.392684326171874,0.5361555814743042,0.4239675998687744,0.6873703002929688
1757768731067641300,8.402641357421874,0.2421184629201889,0.1400356441736221,0.3183803856372833
1757768731077598200,8.41259814453125,0.0040811421349644,-0.0273813009262084,-0.044158399105072
1757768731087555000,8.42255517578125,-0.1033730953931808,-0.1012979447841644,-0.3896797001361847
1757768731097512200,8.43251220703125,-0.1181312724947929,-0.0532635748386383,-0.6380527019500732
1757768731107469300,8.44246923828125,0.0082611292600631,0.1959221810102462,-0.6864247918128967
1757768731117426200,8.45242626953125,0.3489486575126648,0.3450927734375,-0.5886942148208618
1757768731127383300,8.46238330078125,0.5458866357803345,0.4847132265567779,-0.4874987304210663
1757768731137340400,8.47234033203125,0.5460065007209778,0.5383040308952332,-0.4562220275402069
1757768731147298000,8.482298095703126,0.3758595287799835,0.5649317502975464,-0.49777552485466
1757768731157255200,8.492255126953125,0.1397402137517929,0.4825244843959808,-0.5165731310844421
1757768731167212300,8.50221240234375,-0.1683828979730606,0.383812665939331,-0.5883362293243408
1757768731177169200,8.512169189453125,-0.4104770123958587,0.160314068198204,-0.7546884417533875
1757768731187126300,8.522126220703125,-0.547768235206604,-0.1995168775320053,-1.0328423976898191
1757768731197083100,8.532083251953125,-0.6352786421775818,-0.3654054701328277,-1.347820520401001
1757768731207040300,8.542040283203125,-0.4921031594276428,-0.1990696638822555,-1.4582476615905762
1757768731216997000,8.5519970703125,-0.2538783550262451,-0.1646009087562561,-1.553980588912964
1757768731226954200,8.561954345703125,-0.0106808366253972,-0.1326372027397155,-1.694587230682373
1757768731236911400,8.571911376953125,0.2568456530570984,-0.1952355951070785,-1.8502089977264404
1757768731246868200,8.5818681640625,0.3748119175434112,-0.2918058335781097,-1.926177263259888
1757768731256825000,8.5918251953125,0.3668994009494781,-0.2294263690710067,-1.7832419872283936
1757768731266782200,8.6017822265625,0.3372198045253753,-0.1051648706197738,-1.5993545055389404
1757768731276740400,8.611740234375,0.1881871670484542,0.2130173593759536,-1.9051703214645384
1757768731286697200,8.621697265625,-0.1573687940835952,-0.1713146865367889,-1.6617697477340698
1757768731296654300,8.631654296875,-0.5227209329605103,-0.0983169078826904,-1.3458455801010132
1757768731306611200,8.641611083984374,-0.5752797722816467,0.4658519923686981,-1.2787514925003052
1757768731316568000,8.651568115234374,-0.4869113266468048,0.4345782399177551,-1.2536083459854126
1757768731326525200,8.661525146484376,-0.3602176308631897,0.3380433022975921,-1.2617496252059937
1757768731336482300,8.671482421875,-0.3164413869380951,0.4151663184165954,-1.2747695446014404
1757768731346439200,8.681439208984376,-0.3050109148025512,0.5012722611427307,-1.1741448640823364
1757768731356396300,8.691396240234376,-0.2804230153560638,0.6212617754936218,-0.8775146007537842
1757768731366353200,8.701353271484376,-0.3054982125759125,0.6622530221939087,-0.6017453670501709
1757768731376310000,8.71131005859375,-0.2524624168872833,0.7068897485733032,-0.3815813064575195
1757768731386267100,8.72126708984375,-0.164214089512825,0.7877287864685059,-0.1970942169427871
1757768731396224300,8.731224365234375,-0.0419254675507545,1.0378224849700928,0.1012200340628624
1757768731406181000,8.74118115234375,0.1222623959183693,0.8863905668258667,0.356330007314682
1757768731416139000,8.751138916015625,0.2228638529777526,0.6617414951324463,0.526268720626831
1757768731426096000,8.76109619140625,0.2928789854049682,0.5922595858573914,0.4854115843772888
1757768731436675300,8.77167529296875,0.311831921339035,0.6244337558746338,0.2772498428821563
1757768731446632200,8.781632080078126,0.3107964098453522,0.618642270565033,0.049170721322298
1757768731456589300,8.79158935546875,0.3110933601856231,0.5647569298744202,-0.1728138774633407
1757768731466546200,8.801546142578125,0.2642789483070373,0.4579119682312011,-0.3033459186553955
1757768731476503000,8.8115029296875,0.2057242840528488,0.3495319485664367,-0.3158539831638336
1757768731486460200,8.821460205078125,0.1383788287639618,0.416745513677597,-0.3105683922767639
1757768731496417300,8.831417236328125,0.0620323903858661,0.4049685001373291,-0.3268568217754364
1757768731506374100,8.8413740234375,0.069237932562828,0.6223192811012268,-0.433757334947586
1757768731516332000,8.85133203125,0.126810148358345,0.7368525266647339,-0.4584669470787048
1757768731526289200,8.8612890625,0.2148464918136596,0.8616689443588257,-0.3620299696922302
1757768731536246300,8.871246337890625,0.2858511805534363,0.8409942984580994,-0.2893906533718109
1757768731546203100,8.881203125,0.3632105588912964,0.7702912092208862,-0.3339388966560364
1757768731556160300,8.89116015625,0.4003499448299408,0.3205586969852447,-0.485346257686615
1757768731566117400,8.901117431640625,0.019556064158678,0.4012567102909088,-0.6379318237304688
1757768731576074200,8.91107421875,-0.0476232394576072,1.1286251544952393,-0.4712583720684051
1757768731586031000,8.921031005859374,-0.1612283140420913,0.51890629529953,0.6259240508079529
1757768731595988200,8.93098828125,0.1424040049314499,-0.0974383875727653,0.9596125483512878
1757768731605945000,8.940945068359374,0.1365486234426498,-0.2180858105421066,0.3789799809455871
1757768731615902200,8.950902099609374,-0.1793731153011322,0.0605370439589023,0.1172168031334877
1757768731625859300,8.960859375,-0.3223105669021606,0.1915267407894134,0.2490936070680618
1757768731635816200,8.970816162109376,-0.2874524593353271,0.1455267667770385,0.3361003994941711
1757768731645774000,8.980774169921874,-0.2478432357311248,0.2499646246433258,0.3983984589576721
1757768731655731200,8.990731201171876,-0.1587554365396499,0.4508697688579559,0.4221682548522949
1757768731665688300,9.000688232421876,-0.0776997879147529,0.7230930328369141,0.3462958633899688
1757768731675645200,9.010645263671876,0.0559062100946903,1.050514578819275,0.2855480909347534
1757768731685602300,9.020602294921876,0.2450810819864273,1.4147826433181765,0.2490182518959045
1757768731695559200,9.03055908203125,0.5375704765319824,1.803892016410828,0.2081919908523559
1757768731705516000,9.04051611328125,0.8785872459411621,2.257812976837158,0.1991220861673355
