time,seconds_elapsed,z,y,x
1758280589012519700,74.77051977539062,-2.872820166130364,0.5962707796692848,-1.9227859251677988
1758280589022605600,74.78060546875,-2.685181625278294,0.5419125820159911,-1.7873206391453742
1758280589032690400,74.7906904296875,-2.429838206204772,0.6614560762852429,-1.6647107430428263
1758280589042776600,74.80077661132813,-2.1618653149217364,0.915551833385229,-1.6319816088736057
1758280589052862700,74.81086279296875,-1.887691523171961,1.1598691237926482,-1.745945841705799
1758280589062947600,74.82094750976563,-1.608580567280948,1.2143839733123778,-2.016700472661853
1758280589073033500,74.83103344726563,-1.421873462060094,1.0500023894071575,-2.223542311155796
1758280589083119600,74.84111962890626,-1.286805650922656,0.741778151756525,-2.2416543064296244
1758280589093204500,74.85120458984375,-1.0960475167453287,0.4038946889013052,-2.087975318324566
1758280589103290600,74.86129052734375,-0.8690525325387716,0.0274064778417348,-1.7984990357637405
1758280589113376500,74.87137646484375,-0.6685492494165897,-0.3207341751337051,-1.345239719712734
1758280589123461400,74.88146142578125,-0.5140972311124206,-0.6098603290826082,-0.8053694571793079
1758280589133547500,74.89154760742187,-0.3998942210882902,-0.9410118533343076,-0.3262047154992818
1758280589143633700,74.90163354492188,-0.3330617417871951,-1.2709452339679002,0.1065045644760131
1758280589153718500,74.91171850585937,-0.3245920196056365,-1.5889958691060542,0.4448603210180997
1758280589163804400,74.92180444335938,-0.4189952273994684,-1.861414049360156,0.7970932117432356
1758280589173890600,74.931890625,-0.5610238174602389,-2.068960821253061,1.084982517373562
1758280589183975700,74.9419755859375,-0.7330860189959406,-2.209998938971758,1.2795119867831468
1758280589194061600,74.9520615234375,-0.90792206915915,-2.320144490298629,1.4030898511350154
1758280589204147500,74.9621474609375,-1.0632412256866692,-2.3934575637906788,1.417154616844654
1758280589214232600,74.97223266601563,-1.1843649748846887,-2.4134610718995333,1.2954039679199456
1758280589224318500,74.982318359375,-1.26675859593302,-2.4651328069478278,1.1163397786676883
1758280589234404600,74.99240454101563,-1.2645569942355157,-2.548310856372118,0.8539122465521096
1758280589244489700,75.00248974609374,-1.1394918139353394,-2.5838188076049087,0.5941869591325522
1758280589254575600,75.01257568359375,-0.984133786702156,-2.572811091378331,0.3911591259688138
1758280589264661500,75.02266162109375,-0.8879577240169048,-2.518091659197211,0.256197697815299
1758280589274746600,75.03274658203125,-0.8085866656601428,-2.494700846737623,0.2197352223366498
1758280589284832500,75.04283251953125,-0.7156921088635921,-2.449084758466482,0.2473269936174154
1758280589294918700,75.05291870117188,-0.6259814428001642,-2.335521507650613,0.370386387053132
1758280589305003500,75.06300341796874,-0.5846183357983827,-2.1725690797656774,0.5563526107788086
1758280589315089700,75.07308959960938,-0.4923515555113554,-1.9726438887923956,0.7885621147632599
1758280589325175600,75.08317553710937,-0.3520470127642154,-1.7480583038151265,1.0784633447378873
1758280589335260700,75.0932607421875,-0.1907888215765356,-1.4593945066809653,1.422915664589405
1758280589345346800,75.10334692382813,0.0196577634111046,-1.1451841803580525,1.8189748375594612
1758280589355432400,75.11343237304688,0.1904702571466565,-0.8982529080599546,2.2531980292290448
1758280589365517600,75.123517578125,0.2881064555123448,-0.7691261774092912,2.651585352885723
1758280589375603700,75.13360375976562,0.4139002423480152,-0.7420359259098768,2.9002286897987126
1758280589385689600,75.14368969726563,0.6803799724638462,-0.6944739642679691,2.926860091614723
1758280589395774700,75.15377465820312,0.9379495431542396,-0.6171960787981748,2.744081265753508
1758280589405860600,75.16386059570313,1.0625117423683403,-0.4700999762147664,2.437182723748684
1758280589415946500,75.17394653320312,1.0544286814168096,-0.2262082177430391,2.063472745230794
1758280589426032000,75.1840322265625,0.9575579144656656,0.0501572388321161,1.611966994848847
1758280589436118000,75.19411791992188,0.7840838003054261,0.3411310664743185,1.2085364163279533
1758280589446204200,75.2042041015625,0.5462549951344728,0.574298601835966,0.804307965427637
1758280589456289000,75.2142890625,0.2059311533898115,0.7790425912678242,0.4154699758827686
1758280589466375200,75.22437524414063,-0.1937476713821291,1.055067856103182,-0.0126642512619495
1758280589476461000,75.2344609375,-0.5327139610379934,1.4242366840600966,-0.5246878909707069
1758280589486546000,75.2445458984375,-0.8417997839540242,1.804023936665058,-1.0729606556683775
1758280589496632000,75.25463208007812,-1.1142737860485912,2.152560895481705,-1.6092898845940828
1758280589506718200,75.26471826171876,-1.430263689264655,2.480723174789548,-2.079987242180109
1758280589516803000,75.27480297851562,-1.86728148008883,2.7529735972613096,-2.5007839660435915
1758280589526889000,75.28488891601563,-2.306723867711425,3.048749856749177,-2.8054548951268194
1758280589536975000,75.29497509765625,-2.6514129189282656,3.3802556012660263,-2.950672344356775
1758280589547060000,75.30506005859375,-2.9200872364789245,3.775557818388939,-2.9831244151502845
1758280589557146000,75.31514599609375,-3.0666528854474424,4.273736472618579,-2.8827035545021293
1758280589567232300,75.32523217773438,-2.969036268565058,4.710078556138277,-2.7110218767166137
1758280589577317000,75.33531713867187,-2.791096407167613,4.976452195531129,-2.4269161812782287
1758280589587403000,75.34540307617188,-2.565483817230165,4.878644147729873,-1.832248745152354
1758280589597489200,75.3554892578125,-2.183935692432523,4.363462336251139,-0.924216785877943
1758280589607574000,75.36557397460938,-1.3589680930748582,3.76673270689845,-0.1415326232373714
1758280589617660200,75.37566015625,-0.4458578076228499,3.2760651589512824,0.3334399274498224
1758280589627746000,75.38574609375,0.142094641034305,2.868049590727687,0.4791682488113641
1758280589637831000,75.39583081054687,0.262232886326313,2.312835044068098,0.256423323264718
1758280589647917000,75.4059169921875,0.1249465223565697,1.5723755736947058,-0.3852168764382601
1758280589658003200,75.41600317382813,-0.2545510996520519,0.8136188146084546,-1.318374509140849
1758280589668088300,75.42608837890624,-0.9058274349674582,0.0323538711160421,-2.275305231618881
1758280589678174000,75.43617407226563,-1.6560042894959448,-0.8782435547322034,-3.008788433238864
1758280589688260000,75.44626000976562,-2.2000901238977906,-1.8399036438196896,-3.494868653395772
1758280589698345200,75.45634521484375,-2.43179080157727,-2.7471342235833407,-3.792512460321188
1758280589708431000,75.46643115234374,-2.403097791056335,-3.466908633324504,-3.8115246193051338
1758280589718517000,75.47651708984375,-2.245529978819192,-3.984306951808929,-3.6226129897773274
1758280589728602000,75.48660205078124,-2.1140867879197,-4.173903640991449,-3.1540637501358986
1758280589738688000,75.49668798828125,-1.9737734773442148,-4.010498208642006,-2.5081319907188413
1758280589748774100,75.50677416992187,-1.7584122323080895,-3.560137536641955,-1.7760206619739531
1758280589758859300,75.516859375,-1.538901027985662,-3.019720746141672,-1.0571090065419673
1758280589768945000,75.52694482421875,-1.2821046336248516,-2.562366269731521,-0.3447913425475358
1758280589779031000,75.53703100585938,-1.069448555894196,-2.2261147919923068,0.3137397862017154
1758280589789116200,75.5471162109375,-0.9122773417592048,-2.005558316400647,0.8479998076379298
1758280589799202300,75.55720239257812,-0.7955019970290362,-1.9401257670253516,1.2490788545966147
1758280589809288000,75.56728784179687,-0.7034568966686725,-2.036564280039072,1.4501777655243873
1758280589819373000,75.577373046875,-0.5882428099058569,-2.2738415888071057,1.4193056573987006
1758280589829459200,75.58745922851563,-0.489007359649986,-2.6083874316722158,1.202229425138235
1758280589839545000,75.59754516601562,-0.3080008041583001,-2.8558050261825323,0.8914403054356574
1758280589849630200,75.60763012695313,-0.1654525741375982,-2.894808418315649,0.6240116040319204
1758280589859716000,75.61771606445312,-0.1048493446148931,-2.7230624431222674,0.4546551543235778
1758280589869802000,75.62780200195313,-0.0766249745190143,-2.479887893009185,0.3472977724105119
1758280589879887000,75.63788720703126,-0.0649380438566207,-2.351124150452017,0.3331622795522213
1758280589889973200,75.64797314453125,0.0138487848713994,-2.3944857377946374,0.4773711362615227
1758280589900059000,75.65805883789062,0.1223101825036108,-2.5341017137557267,0.7723384174540638
1758280589910144000,75.66814404296875,0.2078384483158588,-2.678566883313656,1.14450759627074
1758280589920230100,75.67823022460938,0.2625239782273769,-2.82820624063909,1.5305717371881007
1758280589930316000,75.68831591796875,0.2785330098725855,-2.926597641286253,1.925251438498497
1758280589940401200,75.69840112304688,0.2981892389137298,-2.989485182353854,2.263294475829601
1758280589950487000,75.70848706054687,0.3403052101094275,-3.039506812107563,2.5614877333313224
1758280589960573200,75.7185732421875,0.4574200889922678,-3.11206059166491,2.8230440355703235
1758280589970658000,75.72865795898437,0.5418190585136413,-3.107989396703243,3.051787324748933
1758280589980744200,75.738744140625,0.6210172445215284,-2.988081160774827,3.237251736432314
1758280589990830000,75.748830078125,0.7109528053820133,-2.7945179060488936,3.335438262157142
1758280590000915000,75.7589150390625,0.7337140877664089,-2.5701082621604203,3.3636794372573493
1758280590011001000,75.7690009765625,0.7791326076388359,-2.2991449568897484,3.301223857866228
1758280590021087200,75.77908715820313,0.9109493080258368,-1.915693336558342,3.1707281769499183
1758280590031172000,75.78917211914063,1.0839841539859771,-1.4853548773676155,2.9634748350456355
1758280590041258000,75.79925805664062,1.2547194908320902,-1.0028104301214218,2.730465120594203
1758280590051344100,75.80934423828126,1.4397522330999373,-0.4847720601677894,2.4463702388107773
1758280590061429000,75.81942895507812,1.563654507100582,0.1215653554856777,2.1955290995925663
1758280590071515100,75.82951513671875,1.688494354212284,0.8362187689512968,2.037749398170412
1758280590081601000,75.83960107421875,1.7767524833798407,1.6196318303883075,1.8989277874574064
1758280590091687200,75.84968725585938,1.877649144846201,2.2561732456475494,1.7281477346867322
1758280590101772000,75.85977197265625,2.002880621623993,2.545846512085199,1.4690721433475613
1758280590111858200,75.86985815429688,2.335983279943466,2.3587936621665957,1.2316691623732448
1758280590121944000,75.87994409179687,2.8122867869734764,1.8862234964460132,1.009531262809038
1758280590132029200,75.890029296875,3.266959476953745,1.5420388876199722,0.8985568594425916
1758280590142115000,75.90011499023437,3.4593805759072302,1.447846692228317,0.8875573265224694
1758280590152201200,75.910201171875,3.261669553852081,1.4357348141521216,0.932275589171052
1758280590162286000,75.9202861328125,2.832081036245823,1.384121531292796,0.9953908015146852
1758280590172372200,75.93037231445312,2.287632798272371,1.207856032848358,0.9231222686395048
1758280590182458000,75.9404580078125,1.7724856197156011,0.9590636428534984,0.7637500373288989
1758280590192543000,75.95054296875,1.3631693441569803,0.6318073724746703,0.5295511130928993
1758280590202629000,75.96062915039063,1.0584826329827308,0.2326794595837593,0.2632069920554757
1758280590212715300,75.97071533203125,0.7046749672215431,-0.0689911186397075,-0.0093465050160884
1758280590222800100,75.98080004882813,0.3510311867851763,-0.2603834590673446,-0.2455120531499385
1758280590232886000,75.99088598632812,0.0392938995122909,-0.377947177696228,-0.4030564845114946
1758280590242972200,76.00097216796875,-0.2897042460978031,-0.4501426453351974,-0.4594540790379047
1758280590253057000,76.01105712890624,-0.5100539470709861,-0.4530693464368581,-0.4914899702459573
1758280590263143200,76.02114306640625,-0.5353180060565471,-0.3399532548666,-0.4584159681618213
1758280590273229000,76.03122900390625,-0.4681646242380142,-0.0510486347138881,-0.4179945259243249
1758280590283314000,76.04131396484375,-0.3358337637837976,0.4782195697844028,-0.3355044587641954
1758280590293400000,76.05140014648437,-0.2002770000856369,1.1475801355838775,-0.3389981460988521
1758280590303486200,76.061486328125,0.002142857247591,1.8154022397696967,-0.4254378276675939
1758280590313571000,76.07157104492188,0.2723379546247422,2.3451947604030368,-0.6090104342550039
1758280590323657000,76.08165698242188,0.6167312377654016,2.630541980335116,-0.8793968164205551
1758280590333743000,76.0917431640625,0.93937818771787,2.8174913698792454,-1.215390520006418
1758280590343828200,76.101828125,1.0691677661914378,2.91735459664464,-1.509791399487853
1758280590353914000,76.1119140625,1.0421932500261812,2.8728339023947718,-1.6625120639547704
1758280590364000000,76.122,0.9542961361907422,2.6200883908599613,-1.6855881113767623
1758280590374085000,76.13208520507813,0.8151881097517907,2.2302105368733405,-1.481131998975575
1758280590384171000,76.1421708984375,0.7082127859588712,1.8163877436757088,-1.1036977392375469
1758280590394257200,76.15225708007813,0.4736940551839768,1.5041799893468617,-0.6883253785103559
1758280590404342300,76.16234228515626,0.0557974366761744,1.3565952264636754,-0.3249590993523597
1758280590414428000,76.17242797851563,-0.3911678937971591,1.369927586245537,-0.0793348179996013
1758280590424513300,76.18251318359376,-0.7356383338272571,1.520207579562068,-0.050604982599616
1758280590434598400,76.19259838867187,-0.9843651112399996,1.6297200936824083,-0.2039697901889681
1758280590444684300,76.20268432617188,-1.199139788559824,1.4987363369882103,-0.6007321429923176
1758280590454770400,76.2127705078125,-1.3865139793872832,1.1938391979336738,-1.0972460788801313
1758280590464856300,76.22285620117188,-1.4624316824197767,0.87424016430974,-1.4077394305065274
1758280590474941400,76.23294140625,-1.4602759656906128,0.6253051509737968,-1.5139026341989636
1758280590485027300,76.24302734375,-1.3648038134910163,0.432032403627038,-1.4882865469053386
1758280590495113500,76.25311352539063,-1.2005460020959378,0.227469031459093,-1.376710085992515
1758280590505198600,76.26319848632812,-1.0088531443517654,-0.0237695826441049,-1.1814148929074406
1758280590515284200,76.2732841796875,-0.7078899106800556,-0.1676028840392827,-1.0353209531038998
1758280590525370400,76.28337036132812,-0.5328115761935711,-0.3809358381181955,-0.777390440146625
1758280590535455500,76.29345556640625,-0.3545136220734566,-0.6024509296089411,-0.5065475463852286
1758280590545541400,76.30354125976562,-0.2148480348169803,-0.8970464548796415,-0.2959253125697374
1758280590555627300,76.31362719726563,-0.1604127533394843,-1.2468880665540694,-0.1399830557078123
1758280590565712400,76.32371240234374,-0.114364045804739,-1.606633232605457,-0.0007550561510026
1758280590575798300,76.33379833984375,-0.1154747104603797,-1.935068483635783,0.1334763041622936
1758280590585884400,76.34388452148437,-0.1087817521603777,-2.2171669309049844,0.3137203508488834
1758280590595969500,76.35396948242187,-0.0490156675815582,-2.429367666083574,0.4772207680054008
1758280590606055400,76.36405541992187,-0.0572550881385803,-2.5808546971023083,0.6498983249604702
1758280590616141300,76.37414135742188,-0.0286076337924227,-2.71699744399488,0.8297130403190851
1758280590626226400,76.38422631835938,0.0137725778300315,-2.8679262566089627,1.0303091162912548
1758280590636312600,76.3943125,0.0258755784800276,-2.98132291868627,1.2510070461802183
1758280590646398200,76.40439819335937,0.015585691666603,-3.1017309208303687,1.409824273956567
1758280590656483300,76.4144833984375,-0.0049812864107545,-3.1636218520760533,1.5254659384816884
1758280590666569500,76.42456958007813,-0.0296539553744252,-3.220537332996726,1.6016854009397328
1758280590676655400,76.4346552734375,-0.0473462730646133,-3.259430250492692,1.662906323969364
1758280590686740500,76.44474047851563,-0.0459171170443296,-3.2705706531882286,1.674837730912119
1758280590696826400,76.45482641601562,-0.0191886663283221,-3.219195855259895,1.68994236106351
1758280590706912300,76.46491235351563,-0.0076396828318946,-3.133958535218239,1.7347564853020012
1758280590716998400,76.47499829101562,0.0660136006662622,-3.0388381190657614,1.7632929900869727
1758280590727083500,76.48508349609375,0.1730331289270892,-2.926867690399289,1.8095431384779512
1758280590737169200,76.49516918945312,0.1793612359700724,-2.686126504912972,1.88261714251712
1758280590747255300,76.50525537109375,0.2277513920644298,-2.3569044874191283,2.007411835312843
1758280590757340400,76.51534033203124,0.3289192351549864,-1.9293401691168544,2.133841728094965
1758280590767426600,76.52542651367187,0.33820721491687,-1.221118250003457,2.2644774020038545
1758280590777512200,76.53551220703125,0.3784130416423082,-0.3699953419089317,2.3675747883848843
1758280590787597300,76.54559741210937,0.4167121579635888,0.5683318023860454,2.4374660707347093
1758280590797683500,76.55568334960938,0.3788706492166966,1.632549764150381,2.4359768550902605
1758280590807769300,76.56576928710938,0.3093961309742182,2.7940280767053363,2.210512441451848
1758280590817854500,76.5758544921875,0.1132575458675622,4.089844132557511,1.732288195492327
1758280590827940400,76.5859404296875,-0.1013718777626752,5.444550184273719,1.0362387986011805
1758280590838026200,76.59602612304687,-0.4591092841882258,6.479442682832479,0.2528102473340928
1758280590848111400,76.606111328125,-0.8791495636612177,6.977175346860289,-0.3921680107504129
1758280590858197500,76.61619750976563,-1.2748381497532129,7.029670673251152,-0.8437273910157382
1758280590868283400,76.62628344726562,-1.6337860279470682,6.832194628995657,-1.2001622634753584
1758280590878368300,76.6363681640625,-1.9660873067557807,6.563239156416058,-1.4298276359349489
1758280590888454400,76.64645434570312,-2.1286101110517976,5.936050675913691,-1.632882503236085
1758280590898540500,76.65654052734375,-2.027947842863202,4.977835758844018,-1.8598120209909972
1758280590908625400,76.66662548828126,-1.867880030503869,4.3571150130510325,-1.99848019470796
1758280590918711300,76.67671118164063,-1.9293723178207876,4.248190527951717,-2.0576509072095157
1758280590928797400,76.68679736328124,-2.1096786160886287,4.403631265032291,-2.069841403479874
1758280590938883300,76.69688330078125,-2.1923568992972373,4.32520947022438,-2.070112183245272
1758280590948968400,76.70696850585938,-2.092481982094049,4.02511242492795,-2.1230413710087537
1758280590959054600,76.7170546875,-1.9698598110318184,3.838007552561164,-2.2666429094746707
1758280590969140200,76.72714013671875,-1.8362708402752876,3.660094286909699,-2.595406077285111
1758280590979225300,76.73722534179687,-1.596404099535942,3.116191407859325,-3.018316724562645
1758280590989311500,76.7473115234375,-1.377224757516384,2.0467145026534794,-3.332254079163074
1758280590999397400,76.7573974609375,-1.3014379873871802,0.6030126551449299,-3.4381463569596407
1758280591009482500,76.767482421875,-1.381600488382578,-0.8213269047677516,-3.2893060410574075
1758280591019568400,76.777568359375,-1.648223134100437,-1.8725287330925464,-2.926229684756696
1758280591029654300,76.787654296875,-1.8886977776050569,-2.4794506706357,-2.547167239294946
1758280591039739400,76.79773950195313,-1.863997051590681,-2.653763281446696,-2.276239589859545
1758280591049825500,76.80782543945313,-1.7972329613506792,-2.5597809294134377,-2.038996183361113
1758280591059911400,76.81791137695312,-1.6008276150666176,-2.3301316313058136,-1.837568478870392
1758280591069996300,76.82799633789062,-1.3585352546155451,-2.086658975028992,-1.815234189726412
1758280591080082400,76.83808251953126,-1.0653308914422988,-1.9065964223891496,-1.9324623927906155
1758280591090168600,76.84816845703125,-0.8040309751171618,-1.8243255509376528,-2.0844868916869164
1758280591100253400,76.85825341796875,-0.6020832653403282,-1.855914282900095,-2.2085335425943136
1758280591110339300,76.86833935546875,-0.4816717560648917,-1.8839461991637945,-2.163091641846299
1758280591120425500,76.87842553710938,-0.4145452622532844,-1.9732336713790888,-1.9279457921490075
1758280591130510300,76.88851025390625,-0.3814706756472587,-2.1200077024012804,-1.5626739716306328
1758280591140596500,76.89859643554688,-0.3461644575316459,-2.3329987111747266,-1.076988888271153
1758280591150682400,76.90868237304687,-0.2809188090305775,-2.6266081480175254,-0.5247063034102321
1758280591160768300,76.91876831054688,-0.1834042642831802,-2.8930425776869058,0.0103583124071359
1758280591170853400,76.92885327148437,-0.0750981302779167,-3.100611561411619,0.5449298840105533
1758280591180939500,76.938939453125,0.0303097980678081,-3.2415736912846564,1.0641402203530073
1758280591191025400,76.949025390625,0.0971241571903228,-3.321733269670605,1.4930626752659677
1758280591201110300,76.9591103515625,0.2110732655186206,-3.357736310943961,1.870352558097243
1758280591211196400,76.96919653320313,0.3571476238388568,-3.39930926130414,2.1320739877700805
1758280591221282600,76.97928247070313,0.5438147623755037,-3.4879590201377866,2.391262391833961
1758280591231367400,76.98936743164063,0.7255518240988255,-3.542964868044853,2.603676185241341
1758280591241453300,76.99945336914062,0.8196271881777792,-3.4859365743994712,2.7937860846430063
1758280591251539500,77.00953955078126,0.9434336005885152,-3.429388173225522,3.0011130763053893
1758280591261624300,77.01962426757812,1.1065058554608374,-3.5019250016480683,3.220164992552996
1758280591271710500,77.02971044921875,1.2926514543414116,-3.598918225935101,3.5544156518638133
1758280591281796400,77.03979638671875,1.448150643610954,-3.607030220720172,3.950091378474235
1758280591291881200,77.04988110351563,1.5278513723134994,-3.5121021122694014,4.465624487608671
1758280591301967400,77.05996728515625,1.5030524466216564,-3.3158272604972123,5.054418647786974
1758280591312053500,77.07005346679688,1.3327636844992636,-2.994014057955145,5.557354725676775
1758280591322139100,77.08013916015625,1.1785609647810458,-2.548803023803234,6.051300856903195
1758280591332224300,77.09022436523438,1.1197042866647242,-1.981983379545808,6.328099444198608
1758280591342310400,77.10031030273437,1.1599323252219709,-1.3659353017389773,6.249767665761709
1758280591352396500,77.110396484375,1.3580442562282085,-0.8170528807103633,5.820472578144073
1758280591362481400,77.1204814453125,1.5946832670927047,-0.3542611816823482,5.201950219178199
1758280591372567300,77.1305673828125,1.8230548003494735,0.1067675993263721,4.518739991724491
1758280591382653400,77.1406533203125,1.9910791246712207,0.6156909349322318,3.967107102943957
1758280591392738300,77.15073828125,2.0475778414845465,1.1259142472207546,3.5114380954027173
1758280591402824400,77.16082446289063,2.017223619753122,1.5386024834305048,3.1058883327707645
1758280591412910300,77.17091040039062,1.893593586822599,1.8188275380432604,2.647939105337858
1758280591422995500,77.18099536132813,1.8267022169411185,2.079906578159332,2.0262565287753938
1758280591433081300,77.19108129882812,1.903980686932802,2.4277368500113488,1.148047460834682
1758280591443167500,77.20116748046875,2.0073804172612726,3.033682635998726,0.0014402619361877
1758280591453252400,77.21125244140624,2.0471502637222407,3.712007429498434,-1.2505001195713876
1758280591463338500,77.22133837890625,2.142912046518177,4.094075486516952,-2.4439517794921994
1758280591473424400,77.23142431640625,2.169876187419891,4.039050349387527,-3.3448312366634605
1758280591483509200,77.24150927734375,1.9338333888828756,3.7255741825580593,-3.733514035646617
1758280591493595400,77.25159545898437,1.4227284714542328,3.5705490405410525,-3.709148240675032
1758280591503681500,77.261681640625,0.8969044160604477,3.680454353371262,-3.527180146674812
1758280591513767200,77.27176708984375,0.4951961312875151,3.804775729566812,-3.356173883932829
1758280591523852300,77.28185229492188,0.1631105410560965,3.983070103490352,-3.220648976677656
1758280591533938400,77.2919384765625,-0.1366575645469129,4.005070922896266,-3.175053931194544
1758280591544024300,77.3020244140625,-0.328850846093893,3.721466162717342,-3.276561418035626
1758280591554109400,77.312109375,-0.4704036353364587,3.492907582455873,-3.365958488105237
1758280591564195300,77.3221953125,-0.6956175813451408,3.4494267526477573,-3.441343107174337
1758280591574281500,77.33228149414063,-1.100831536151469,3.380170845592022,-3.571051144844293
1758280591584366300,77.34236645507812,-1.5903814782455563,3.291748465773463,-3.68168097255677
1758280591594452500,77.35245239257813,-1.965054894968122,3.080041067069769,-3.602465397022665
1758280591604538400,77.36253833007812,-2.1466895192302764,2.6269495088011023,-3.290128171095252
1758280591614623200,77.37262329101563,-2.2081752306759355,2.0671634164422747,-2.7177345260977743
1758280591624709400,77.38270947265624,-2.173965356429666,1.656567184075713,-1.9546096349298956
1758280591634795500,77.39279541015625,-2.0873497337721285,1.4051128813952207,-1.058555113697052
1758280591644880400,77.40288037109374,-2.0102325918219983,1.28814128344059,-0.1006602223619818
1758280591654966300,77.41296630859375,-1.843579555853456,1.2247639130294323,0.8095388518184423
1758280591665052400,77.42305249023437,-1.6222737231992184,1.1116659416377543,1.5125918438613415
1758280591675138300,77.43313818359375,-1.2235725112877784,0.8080909910976887,1.9428993233919143
1758280591685223400,77.44322338867188,-0.664079995048046,0.4344014708459377,2.2069535799264908
1758280591695309300,77.45330932617188,-0.1205588087916374,0.0883177504003047,2.282480237814784
1758280591705395200,77.46339526367187,0.2601799723844975,-0.2437351066052913,2.249586852994561
1758280591715480300,77.47348022460938,0.4818658173322677,-0.600267155829072,2.12554721634984
1758280591725566500,77.48356640625,0.533509568395093,-0.9731360073477028,1.9982941706165671
1758280591735652400,77.49365234375,0.4841899494308978,-1.3573375692635774,1.873504300126433
1758280591745737200,77.5037373046875,0.4000478772800415,-1.730294683587551,1.77751820705533
1758280591755823400,77.5138232421875,0.2910099949341267,-2.112487828290462,1.7131849972240625
1758280591765909500,77.52390942382813,0.1844716012537479,-2.4421798013836145,1.6220478054888543
1758280591775994400,77.53399438476562,0.1160812980514019,-2.7149627232968805,1.548849590548128
1758280591786080300,77.54408032226563,0.075439600659348,-2.9631723449677225,1.4610633166760203
1758280591796166400,77.55416650390625,0.0031926585614681,-3.169423231831193,1.3611813852101564
1758280591806251300,77.56425122070313,-0.0621370149612426,-3.3616520230829714,1.2246506619133055
1758280591816337400,77.57433740234374,-0.1402501456787809,-3.5365333736926314,1.1102410234011708
1758280591826423300,77.58442333984375,-0.2387619761015288,-3.744311616253853,1.001427012939006
1758280591836509200,77.59450927734375,-0.301599266552925,-3.95599563408196,0.918965879612416
1758280591846594300,77.60459423828125,-0.3223907101690769,-4.136515282839537,0.8814680697366595
1758280591856680400,77.61468041992188,-0.2983645224153995,-4.289393475955724,0.8801583023123443
1758280591866766300,77.62476635742188,-0.2840361373335123,-4.367379217433929,0.9290897987417877
1758280591876851200,77.63485131835938,-0.3044031997914426,-4.351832104212045,1.0172913754165172
1758280591886937300,77.64493725585938,-0.3854986159890889,-4.263406801784038,1.1152066829845309
1758280591897023500,77.6550234375,-0.5560205658128484,-4.062052454790472,1.2076581721886992
1758280591907108400,77.6651083984375,-0.7986211519628763,-3.626510581737756,1.3412120716318487
1758280591917194200,77.6751943359375,-0.9586778584063052,-3.0734207721471787,1.4425105918973684
1758280591927280400,77.6852802734375,-1.0742466038256884,-2.3407979867488145,1.5615375149466098
1758280591937365200,77.695365234375,-1.1217343311876058,-1.4777362190574406,1.6823447455413638
1758280591947451400,77.70545141601562,-1.1937843259412797,-0.6446832206606865,1.8283564138889312
1758280591957537500,77.71553759765625,-1.3739602027624844,0.1841951223999261,1.9422475814849136
1758280591967622400,77.72562231445312,-1.5266953341461718,1.0521604442238808,1.9617345183737576
1758280591977708300,77.73570825195313,-1.4433733462065457,2.1117641901910305,1.6723055820859969
1758280591987794400,77.74579443359374,-1.2260989610254764,3.470200076085329,1.189261368624121
1758280591997880300,77.75588037109375,-0.971594111667946,4.903413262805342,0.7704629789710045
1758280592007965400,77.76596533203124,-0.8029297358769923,6.033837096405029,0.3671455054357647
1758280592018051300,77.77605126953125,-0.7378191849976777,6.510199055624008,-0.0930490167059004
1758280592028137500,77.78613745117187,-0.839057280312851,6.6834180259794,-0.6192755154207349
1758280592038222300,77.79622241210937,-1.283685473075509,7.042748766010999,-1.1140312094643712
1758280592048308500,77.80630859375,-1.8895172772943971,7.395068750497698,-1.6418477538496254
1758280592058394400,77.81639428710938,-2.398880173361301,7.2285180058598515,-2.2311714908599853
1758280592068479200,77.82647924804688,-2.6359482232928277,6.517033285558223,-2.806248968113959
1758280592078565400,77.8365654296875,-2.488113869562745,5.440517567756772,-3.141200761431455
1758280592088651500,77.84665161132813,-2.0193904423981905,4.096265105515719,-3.2205452240422368
1758280592098736400,77.856736328125,-1.534709567645192,3.136592975375056,-3.0364430406227707
1758280592108822300,77.866822265625,-1.3662807541757822,2.9148820690512656,-2.5683319001376628
1758280592118908400,77.87690844726562,-1.5348820016026496,3.0345787080556152,-1.996120918230712
1758280592128993300,77.8869931640625,-1.7325193738996982,2.9365760144650936,-1.3848553985252976
1758280592139079400,77.89707934570312,-1.756519842690229,2.805514516359568,-0.8212132152602076
1758280592149165300,77.90716528320313,-1.6208651715755462,2.795844770738482,-0.5823264254689217
1758280592159251500,77.91725146484374,-1.5796762520968912,2.9334692806214093,-0.6884811535939573
1758280592169336300,77.92733642578125,-1.3972785345077514,2.841804557880759,-1.176598724797368
1758280592179422500,77.93742236328124,-1.223936230033636,2.056769448199868,-1.9401441794648768
1758280592189508400,77.94750830078125,-1.2525906621098517,0.51632688986063,-2.769484002557397
1758280592199593200,77.95759326171876,-1.4120283598721026,-1.2860954568266867,-3.2672868092119693
1758280592209679400,77.96767944335937,-1.5588088206350803,-2.742390243926644,-3.381984909276664
1758280592219765500,77.977765625,-1.4883704257965087,-3.4237282477676865,-3.2004516995623704
1758280592229850400,77.98785034179687,-1.0737387273687868,-3.342002735239267,-2.87092339259833
1758280592239936300,77.99793627929688,-0.6402302598398179,-2.676106046158075,-2.503711251667142
1758280592250022400,78.0080224609375,-0.3416214072745293,-1.716262066581845,-2.1848104294404385
1758280592260107300,78.01810717773438,-0.1259608870308846,-0.8893120612353086,-2.0762787430509926
1758280592270193400,78.028193359375,-0.0354360550403594,-0.5541220752477646,-2.183852982585132
1758280592280279300,78.038279296875,-0.0133084674496203,-0.8090355784714222,-2.2718726268216964
1758280592290365200,78.048365234375,0.0538987634479999,-1.3303092770844698,-2.0871903054267165
1758280592300450300,78.0584501953125,0.1013151060741394,-1.7855822710454463,-1.602899599035084
1758280592310536400,78.06853637695312,0.1389314277630299,-2.1176514946639537,-0.9594035423323511
1758280592320622300,78.07862231445313,0.2164800199329853,-2.4193477918505666,-0.249860311487317
1758280592330707200,78.08870727539062,0.3422363973677158,-2.685885681894421,0.3478817097783088
1758280592340793300,78.09879345703125,0.4743032731235027,-2.9448277099817988,0.8383622107207774
1758280592350879500,78.10887939453124,0.6716612439572811,-3.077459233883023,1.1982397709801793
1758280592360964400,78.11896435546875,0.7450245863318443,-3.126630384287238,1.5391221233904362
1758280592371050200,78.12905029296876,0.7438882757782935,-3.1879888160914183,1.768672929559648
1758280592381136400,78.13913647460937,0.6569559883870184,-3.182432351008057,2.0370804128676654
1758280592391221200,78.14922119140626,0.5791325247984379,-3.158240159037709,2.312628123319149
1758280592401307400,78.15930737304687,0.5327052297422662,-3.1845944974780083,2.592906661684811
1758280592411393300,78.16939331054688,0.5159621482014656,-3.323669790691137,2.876410007315874
1758280592421478100,78.17947802734375,0.5718167218923569,-3.47868324227035,3.18586846293658
1758280592431564500,78.189564453125,0.6917535993933678,-3.6784172945857048,3.459336152243614
1758280592441650400,78.199650390625,0.7991197491347789,-3.860247441419959,3.7760938249617815
1758280592451736600,78.20973657226563,0.919063640898466,-3.919560631132126,4.068527496023476
1758280592461821400,78.21982153320313,1.002729766100645,-3.855025907379389,4.422147749453782
1758280592471907300,78.2299072265625,1.0234031362950802,-3.634271278867125,4.805632687532902
1758280592481993500,78.23999340820312,0.938840354514122,-3.323466961595416,5.1369490469574925
1758280592492078600,78.25007861328125,0.8806430170893669,-2.866689408290386,5.296033108976483
1758280592502164500,78.26016455078125,0.8520330086767673,-2.295797400027513,5.340465540421008
1758280592512250400,78.27025048828125,0.9283446794629095,-1.710674621838331,5.145411754876375
1758280592522335500,78.28033544921875,1.152159280067682,-1.0955962658464908,4.793939911651611
1758280592532421400,78.29042138671875,1.4093921661496165,-0.3862976574122905,4.288944563144446
1758280592542507500,78.30050756835938,1.6950024209320544,0.3530792784214019,3.765358495935797
1758280592552592600,78.31059252929687,1.9702391657382248,1.1060504398435351,3.2697482308894394
1758280592562678500,78.32067846679688,2.158566857898235,1.7491390847891568,2.8213129739940164
1758280592572764400,78.33076440429687,2.3269354656130075,2.120091873553396,2.4482635052114725
1758280592582849500,78.340849609375,2.561170337945222,2.2810054890871045,2.259227372521162
1758280592592935700,78.35093579101563,2.772299059978127,2.384448912426829,2.21590670171082
1758280592603021300,78.36102124023438,2.917147091373801,2.5407658478200434,2.239765716204047
1758280592613107500,78.371107421875,2.998470452842116,2.801086763045192,2.29502057043612
1758280592623192600,78.38119262695312,3.0569471917301416,3.1298744807749985,2.28435187690556
1758280592633278500,78.39127856445313,3.0717385181486603,3.345201239019632,1.9619594131708145
1758280592643364400,78.4013642578125,2.992086889284849,3.258498522600531,1.3261211777448654
1758280592653449500,78.41144946289063,2.8248505004704,2.737603594172001,0.4901549222499132
1758280592663535400,78.42153540039062,2.6360733109772205,2.0017267754137515,-0.2986380786597729
1758280592673621500,78.43162158203126,2.4572072746455667,1.2746622086644173,-1.0448755479127168
1758280592683706600,78.44170654296875,2.2332091341674327,0.6595458587497472,-1.7761153545200823
1758280592693792500,78.45179248046875,1.996012635550648,0.2278828729569912,-2.332042433363199
1758280592703878400,78.46187841796875,1.7625018397092818,-0.0259112708479166,-2.740279535382986
1758280592713963500,78.47196362304688,1.4646201323747634,-0.0715875648736953,-3.0608108814209696
1758280592724049700,78.48204956054687,1.2259551686406134,0.1225420915633439,-3.294177154225111
1758280592734135300,78.49213525390626,1.0514835678756236,0.4723410331398248,-3.3509751462459563
1758280592744220400,78.50222045898437,0.8872048598229885,1.1065987213760613,-3.191924986496568
1758280592754306600,78.512306640625,0.651342094027996,2.092488996356725,-2.9972429568737744
1758280592764392400,78.52239233398437,0.3228242792807519,3.188838126397133,-2.850129318633676
1758280592774478300,78.53247827148438,-0.0061046004854142,4.045743125024438,-2.541309453177452
1758280592784563500,78.5425634765625,-0.1547873877383768,4.491077493295073,-1.986843679058552
1758280592794649300,78.5526494140625,-0.0630748803332447,4.492684928491712,-1.3293752111047503
1758280592804735500,78.56273559570313,0.0259808289527893,4.03046489187181,-0.756892134258151
1758280592814820600,78.57282055664062,0.0294563961088657,3.228354144227505,-0.2113186916470527
1758280592824906200,78.58290625,0.0267241946659982,2.360644258469343,0.2593804195046424
1758280592834992400,78.59299243164062,-0.1677532522954046,1.6394003606975078,0.6590916852414608
1758280592845077500,78.60307739257813,-0.4184625818274915,1.0870026250243183,1.0097200633794068
1758280592855163600,78.61316357421875,-0.627487901840359,0.6885849062293767,1.3921288966596126
1758280592865249300,78.62324926757813,-0.7666039654552936,0.3978308588176965,1.68639416706264
1758280592875334400,78.63333447265624,-0.8465593995712697,0.1730868684083223,1.730223664177954
1758280592885420500,78.64342065429688,-1.011508115839958,-0.0092348613351583,1.406715932677686
1758280592895506400,78.65350634765625,-1.2148995216190814,-0.179476861706376,0.8582757024586201
1758280592905592300,78.66359228515626,-1.4230826917193828,-0.4243956251382828,0.2536252169787883
1758280592915677400,78.67367749023437,-1.625070075919479,-0.7264192545831203,-0.1770744767397642
1758280592925763300,78.68376342773438,-1.8473209343388677,-1.0212971039265393,-0.3088721801653504
1758280592935849500,78.69384936523437,-2.043183405917883,-1.157583058682084,-0.1998947958350181
1758280592945934600,78.7039345703125,-2.119242417117208,-1.1896896770387888,0.0175572840005159
1758280592956020500,78.7140205078125,-2.034687964773178,-1.1805781498223542,0.2696776493743061
1758280592966106400,78.7241064453125,-1.8938401089295744,-1.1809919913202525,0.5491562695339322
1758280592976191500,78.73419140625,-1.711711563670635,-1.1926070257902144,0.7387851074203848
1758280592986277600,78.74427758789062,-1.4777319812737404,-1.3168009762138126,0.7967702633991837
1758280592996363500,78.75436352539063,-1.2767476366363466,-1.4698235462367537,0.8415355800598859
1758280593006448400,78.76444848632812,-1.0823111062072217,-1.662072795754671,0.9118670073926448
1758280593016534500,78.77453442382813,-0.8980407266139984,-1.8242846344053745,0.993669384549558
1758280593026620400,78.78462036132812,-0.7019429849743842,-1.9576982485949992,1.176497894771397
1758280593036705500,78.79470556640625,-0.5242785795174538,-2.093569777330756,1.4693369317635894
1758280593046791700,78.80479174804688,-0.3652396718144416,-2.230731345877051,1.829764819382131
1758280593056877300,78.81487719726563,-0.1785385579429566,-2.298262328836321,2.2206486355409023
1758280593066963500,78.82496337890625,-0.0316902926407754,-2.309755782753229,2.49645002849251
1758280593077048600,78.83504858398437,0.1585353420950472,-2.350069672963023,2.685985050615668
1758280593087134500,78.84513452148437,0.3376690163869411,-2.34287596206665,2.8171999857172367
1758280593097220400,78.85522045898438,0.4379753107447177,-2.221861226201057,2.836931106625497
1758280593107305500,78.86530541992188,0.4739104744136333,-2.066459067565203,2.739464127346873
1758280593117391400,78.87539135742188,0.5225708257514983,-2.0258044010937213,2.5747441052675244
1758280593127477500,78.8854775390625,0.518717511324212,-1.882242902377248,2.3664859702348706
1758280593137562600,78.89556274414062,0.4969523273050785,-1.438587280973792,2.1679674311891195
1758280593147648500,78.9056484375,0.455479366720654,-0.7966893071174621,2.006246883186698
1758280593157734400,78.915734375,0.2854664989301935,-0.2098901201486587,1.9399425194129347
1758280593167819500,78.92581958007813,-0.0588484217446297,0.2504652916431427,1.9048451948076488
1758280593177905700,78.93590576171874,-0.3032873657703399,0.563420064947009,1.871873484054208
1758280593187991300,78.9459912109375,-0.2686228796243667,0.8002794405639171,1.6607427161946893
1758280593198076400,78.95607641601562,-0.1860626698374748,1.12215518694818,1.207119827528298
1758280593208162600,78.96616259765625,-0.2717693609565496,1.6678139697551726,0.6639940703302621
1758280593218248400,78.97624853515624,-0.3458189320296049,2.315113510394096,0.1362090901270508
1758280593228334300,78.98633422851563,-0.4383727490970864,2.9639672947376963,-0.406599271684885
1758280593238419500,78.99641943359374,-0.716630266496539,3.497605969405174,-0.906657748311758
1758280593248505300,79.00650537109375,-1.21258949111104,3.8069887294411657,-1.2167965874120592
1758280593258591500,79.01659155273437,-1.7579928378522396,4.018020420840382,-1.406070620511472
1758280593268676600,79.02667651367187,-2.336196045911312,4.177845072093605,-1.5257807035192847
1758280593278762500,79.03676245117188,-2.9447423697859048,4.12446068790853,-1.5616227090120314
1758280593288848400,79.04684838867188,-3.384787983998656,3.833828805571794,-1.613178124204278
1758280593298933500,79.05693359375,-3.632306116273999,3.514191778025031,-1.6672060669898985
1758280593309019600,79.06701953125,-3.670037004253268,3.2525060041874645,-1.7428548899531364
1758280593319105300,79.07710522460937,-3.4103321750998496,2.884117512953281,-1.9122882042899727
1758280593329190400,79.0871904296875,-2.87641702157855,2.3325749328047034,-2.016682644744217
1758280593339276500,79.09727661132813,-2.38304898250103,1.8720266287893053,-1.9445792393028736
1758280593349362400,79.10736254882812,-2.1743688226640225,1.7143471728712318,-1.6209990270882844
1758280593359447600,79.11744750976563,-2.243018580520153,1.8899813876748084,-1.0173162175968289
1758280593369533400,79.12753344726562,-2.3721429730832577,2.2515198668837546,-0.3837847978085279
1758280593379619300,79.13761938476563,-2.3089175783634186,2.48446762201488,0.0748112030953168
1758280593389705500,79.14770556640624,-2.005752962189913,2.4468097992718216,0.2498784316658973
1758280593399790600,79.15779052734375,-1.5701543905138968,2.134165407091379,0.0518859623208642
1758280593409876200,79.16787622070312,-1.0771931786715985,1.60586341727674,-0.4970154556691646
1758280593419962400,79.17796240234375,-0.5237397964656353,0.981989175888896,-1.2527075664877891
1758280593430047200,79.18804711914062,-0.1075390586229041,0.4505751915335655,-2.042213684102893
1758280593440133400,79.19813330078125,0.0733365274328738,0.0806646052986383,-2.806092316247523
1758280593450219500,79.20821948242188,0.0087689973890781,-0.2446668344974517,-3.2328353812947865
1758280593460304400,79.21830444335937,-0.1931365537464618,-0.6468775158345699,-3.1935660317018626
1758280593470390300,79.22839038085938,-0.5000444481015205,-1.2074877840578555,-2.7011130616426464
1758280593480476400,79.23847631835937,-0.7976924928106367,-1.7891981234550476,-1.949469057171047
1758280593490561500,79.2485615234375,-1.1112335415698589,-2.1941373529732227,-0.98749274174124
1758280593500647400,79.2586474609375,-1.3129238425195215,-2.3852497074157,-0.0851256763607263
1758280593510733300,79.2687333984375,-1.3186626784324644,-2.366145778495073,0.5407143121421337
1758280593520819500,79.2788193359375,-1.11664942913875,-2.131923765644431,0.7643953494951129
1758280593530904300,79.288904296875,-0.8908323296051472,-1.80081257340312,0.456424794344604
1758280593540990500,79.29899047851562,-0.8037129221439361,-1.428411923918128,-0.2502805827260017
1758280593551076400,79.30907641601563,-0.7672106991767883,-1.01141108520627,-1.1096619083389638
1758280593561161200,79.3191611328125,-0.6614603140689432,-0.6452706651598215,-1.889981095413864
1758280593571247400,79.32924731445313,-0.4963188517071306,-0.4669324520945548,-2.436942192991078
1758280593581333500,79.33933349609374,-0.3575041091263294,-0.5749474211335182,-2.642318050585687
1758280593591418400,79.34941845703125,-0.2802664826016873,-0.9676222123622894,-2.5510154391556976
1758280593601504300,79.35950415039062,-0.2362358368910849,-1.3583949693620203,-2.296926404057443
1758280593611590400,79.36959033203125,-0.1787106996394693,-1.6224176617145538,-2.0566849847868083
1758280593621675500,79.37967553710938,-0.0831155786473304,-1.8037825291246172,-1.8609291884526609
1758280593631761400,79.38976147460937,0.0565442364554852,-1.961079707726836,-1.6512790145397185
1758280593641847300,79.39984741210938,0.1948223879415541,-2.1597955229103563,-1.4225076683104037
1758280593651932400,79.40993237304687,0.3692916506189853,-2.3168828581541776,-1.1094131942749024
1758280593662018300,79.42001831054688,0.4982932205200195,-2.441753100404143,-0.7035159333795309
1758280593672104400,79.4301044921875,0.6337035614848137,-2.515057406067848,-0.2256201887220144
1758280593682189600,79.440189453125,0.660545975703001,-2.5729496230661866,0.3027256402343511
1758280593692275200,79.45027514648437,0.5900432834565639,-2.592161104014516,0.9471791437923908
1758280593702361300,79.460361328125,0.5625497118532657,-2.615713244515657,1.5751555598020552
1758280593712447500,79.47044750976562,0.5443792643904686,-2.6379122168421745,2.1053759504586456
1758280593722532400,79.48053247070312,0.5466740973293781,-2.6306922024607657,2.567500125488639
1758280593732618200,79.4906181640625,0.5142085825324059,-2.550574709650874,3.009012889644503
1758280593742704400,79.50070434570313,0.5120832609415054,-2.4160423205643893,3.4096628975361583
1758280593752789500,79.51078955078125,0.5099029942929745,-2.243128470635414,3.675242171680927
1758280593762875400,79.52087548828125,0.5342687892645597,-2.076363790985942,3.866633343064785
1758280593772961300,79.53096118164062,0.5456926850765943,-1.8730618170559403,3.946216582867503
1758280593783046400,79.54104638671875,0.5362988337874413,-1.6283341922819614,3.984373002782464
1758280593793132300,79.55113232421876,0.5328577534228564,-1.3543272815316916,4.045559000629186
1758280593803218400,79.56121850585937,0.5260118695834651,-0.9995955597281456,4.064821919503808
1758280593813303600,79.57130346679688,0.5654004616418853,-0.6732441292345523,3.991034214237332
1758280593823389200,79.58138916015625,0.6139642572700977,-0.3613742285579442,3.8621564899116754
1758280593833475300,79.59147534179688,0.7477215703308582,-0.0635100568801164,3.518392152324319
1758280593843561500,79.6015615234375,0.9802000274498016,0.1127829140931367,3.066902768555283
1758280593853646300,79.61164624023438,1.2354565719574688,0.2735200040161609,2.6479502112537623
1758280593863732200,79.62173217773437,1.3811013066887854,0.4517407281816005,2.3420307434141634
1758280593873818400,79.631818359375,1.5652169341117144,0.6879647285044193,2.2176918315619227
1758280593883903200,79.6419033203125,1.731868801036477,1.0803706396639343,2.2680478078365325
1758280593893989400,79.6519892578125,1.8929805694907904,1.493498436334729,2.314436049523949
1758280593904075300,79.6620751953125,2.088706555208564,1.877305445975065,2.3121160821437834
1758280593914160400,79.67216040039062,2.263814700311422,2.2076742954164743,2.248316686928272
1758280593924246300,79.68224633789063,2.423905309024453,2.4122499425441024,2.054904823371768
1758280593934332400,79.69233251953125,2.5169810676068067,2.4493670825392004,1.810148557025194
1758280593944417500,79.70241748046875,2.493358199957013,2.3119506624490023,1.5048504359543322
1758280593954503400,79.71250341796875,2.4214888955324887,2.019154295554757,1.2128215463012455
1758280593964589300,79.72258935546876,2.2824884211212395,1.6753770984858274,0.9671493341535328
1758280593974674400,79.73267431640625,2.1331401556968688,1.3461720321267845,0.7420733353108168
1758280593984760300,79.74276025390625,1.9612907201290128,1.1288573149353265,0.5331511834114789
1758280593994846500,79.75284643554687,1.699033283883333,1.1161550697505471,0.3210042242467403
