time,seconds_elapsed,z,y,x
1757859055405079800,42.44207983398437,1.4316909455887972,9.701458856210111,0.0482985596876125
1757859055415063800,42.45206372070312,1.3808712973251938,9.7088273391515,0.0475973160830792
1757859055425047000,42.46204711914063,1.3297019588410854,9.71597253473103,0.0464354600963182
1757859055435031000,42.47203100585938,1.279256989108771,9.722744805344938,0.0457966416029725
1757859055445013800,42.482013671875,1.2308129839353263,9.728996266955138,0.0461269101703772
1757859055454997800,42.491997802734375,1.1843522615335882,9.73475146948099,0.0479166705308249
1757859055464980700,42.50198071289063,1.138604144380614,9.740206227755548,0.0484517226890195
1757859055474964700,42.51196484375,1.094992600864917,9.745223179134726,0.0445287679584696
1757859055484948000,42.52194799804688,1.0552608213920145,9.74963748844564,0.037312372589542
1757859055494932000,42.531931884765626,1.0196781974878162,9.753453831863403,0.0286206942033953
1757859055504914700,42.54191479492187,0.9876335384514182,9.756772162631153,0.0190604813629004
1757859055514898700,42.55189868164062,0.9579791355524212,9.75974153383076,0.0106183527244545
1757859055524882700,42.56188256835937,0.9303204365152864,9.762421566694975,0.0043280657889539
1757859055534866000,42.57186596679688,0.9056320585258304,9.76474328764081,0.0003267270440315
1757859055544850000,42.58184985351563,0.8843821305524557,9.766692668142914,-0.0020129526804186
1757859055554833000,42.5918330078125,0.8648874487485736,9.76843688146174,-0.0039404016243948
1757859055564817000,42.60181689453125,0.845321893665567,9.770147777032852,-0.0067673427062196
1757859055574800100,42.61180004882812,0.8253278109721839,9.771852827385068,-0.0110872774189454
1757859055584784100,42.6217841796875,0.805913281732425,9.773463769713045,-0.0177348222497093
1757859055594767000,42.63176708984375,0.7898748047970234,9.774746795260906,-0.0287628403371549
1757859055604751000,42.64175122070313,0.7817089609328657,9.775347099241614,-0.0436654839263297
1757859055614734000,42.651734130859374,0.7830074032455683,9.775171158152816,-0.0577695906990906
1757859055624718000,42.66171801757813,0.7939275873191655,9.774204943469169,-0.0707654896347783
1757859055634701000,42.671701171875,0.8160480875819921,9.772282450973988,-0.0833035115680191
1757859055644685000,42.68168505859375,0.8513426883250474,9.769183900436758,-0.0930012685740366
1757859055654669000,42.6916689453125,0.90029193960689,9.764745041206478,-0.0981200454930309
1757859055664652000,42.701652099609376,0.9614560178827494,9.758895146134495,-0.0996472185276914
1757859055674636000,42.711635986328126,1.032910604026541,9.751615510520338,-0.0973380922019481
1757859055684619300,42.72161938476562,1.1108737683467569,9.743094350412488,-0.091989579913998
1757859055694603000,42.73160302734375,1.189446077541262,9.733880531865358,-0.0847682868909556
1757859055704586000,42.7415859375,1.2630341685824096,9.724693601325152,-0.0739291915298206
1757859055714570000,42.75157006835938,1.3272308925524354,9.71625252071619,-0.0573758878069231
1757859055724553200,42.76155322265625,1.38078055030182,9.708895728212594,-0.0345124602223047
1757859055734537200,42.771537109375,1.425778360544145,9.702448451769351,-0.00634086434739
1757859055744520200,42.78152026367187,1.4654294029310344,9.696508540326356,0.0249900666330591
1757859055754504000,42.79150390625,1.503175634609908,9.69059025619328,0.0574718041957588
1757859055764487000,42.80148681640625,1.5422629056341943,9.68419324863255,0.0907157423195894
1757859055774471200,42.81147119140625,1.5843566649980845,9.677007721042632,0.1253563817990943
1757859055784455200,42.821455078125,1.6286970342449842,9.669115506488083,0.1610349403584376
1757859055794438100,42.831438232421874,1.6742780512027442,9.66065455213487,0.1972815080640837
1757859055804422100,42.841422119140624,1.7214457528300582,9.651540686830876,0.2340539445410482
1757859055814404900,42.85140478515625,1.7712936334520577,9.641554714867471,0.2708269838062115
1757859055824388900,42.86138891601563,1.8237370835252105,9.630675008934736,0.3073511080779135
1757859055834372000,42.8713720703125,1.8773197667613624,9.61915934318602,0.3432709280472248
1757859055844356000,42.88135620117188,1.9304317637458444,9.607314591613411,0.3785463491657748
1757859055854339000,42.89133911132812,1.982611156055331,9.595296237039566,0.4122335877774283
1757859055864323000,42.90132299804687,2.0352628420516847,9.582882745668291,0.4432293953480198
1757859055874306000,42.91130615234375,2.0899093551270664,9.569787701773643,0.4709636073067784
1757859055884290000,42.9212900390625,2.1472676113791764,9.555828734526038,0.4957501849737018
1757859055894273000,42.93127294921875,2.207347693810612,9.540862051540612,0.5195906043643131
1757859055904257000,42.94125708007813,2.26986157926023,9.524751459217072,0.5451756389325484
1757859055914241000,42.95124096679688,2.333365937051922,9.507617953586578,0.5753166928373277
1757859055924224300,42.96122436523437,2.394668547015637,9.49017815848589,0.6103067942084744
1757859055934208300,42.97120825195312,2.450968380255997,9.473313532924651,0.6476577794920653
1757859055944191000,42.98119091796875,2.500338268102705,9.45785526703,0.6838625538825989
1757859055954175000,42.991175048828126,2.54324334384948,9.444026063641903,0.7160081890754402
1757859055964158000,43.00115795898437,2.580885092240572,9.431638875755668,0.7440461697537452
1757859055974142000,43.01114184570312,2.6150144485965368,9.42020212046206,0.7693347786586732
1757859055984125200,43.02112524414063,2.64554841080904,9.409737425071,0.79265311040394
1757859055994109200,43.03110913085938,2.670228094035387,9.401099360585212,0.8121626975160091
1757859056004092000,43.041091796875,2.6914596826344725,9.393676517108082,0.8278069144368171
1757859056014076000,43.05107592773437,2.7154554752498865,9.385420729938147,0.8429376288775354
1757859056024059100,43.06105908203125,2.743227863794565,9.375703053522107,0.8609697638481855
1757859056034043100,43.07104321289062,2.77027047675997,9.36613501470983,0.8783417544096708
1757859056044026000,43.08102612304688,2.791287545825541,9.358895126584173,0.88892715357095
1757859056054010000,43.091010009765625,2.8053838757172227,9.354522902849316,0.8905749207779765
1757859056063994000,43.100994140625,2.8153929362952708,9.351952175578475,0.8859579285018145
1757859056073977000,43.11097705078125,2.822790645331144,9.350327204725144,0.879556902353093
1757859056083961000,43.120961181640624,2.8264512136653064,9.349824515900016,0.873115909520164
1757859056093944000,43.13094409179688,2.8234879799455403,9.351462930756806,0.865128783223778
1757859056103928000,43.14092797851563,2.8121111381456254,9.355825802141428,0.8549464119054376
1757859056113911000,43.1509111328125,2.794006157134473,9.362474738636612,0.8414168490510433
1757859056123895300,43.16089526367188,2.772970967890322,9.370141327741742,0.8255055056266486
1757859056133878000,43.1708779296875,2.752690980927646,9.377443759709596,0.8103353359583765
1757859056143862000,43.18086206054687,2.7347672017022964,9.383772962731122,0.797635428861156
1757859056153845000,43.190844970703125,2.7161314748153087,9.39012087045312,0.7865493136361241
1757859056163829000,43.2008291015625,2.6943077655419705,9.39757586263418,0.7724358134139329
1757859056173813000,43.21081298828125,2.671822669750452,9.40575098578334,0.750724551539123
1757859056183796200,43.22079614257812,2.650621184028685,9.414108479762076,0.7205332652844488
1757859056193780200,43.2307802734375,2.628924900527298,9.42288975211084,0.6843268103934824
1757859056203763000,43.24076293945313,2.603585876609385,9.432607428526875,0.6462582879576831
1757859056213747000,43.25074682617188,2.573641404722631,9.4433065171957,0.6088584950963035
1757859056223730200,43.260730224609375,2.543702485793829,9.453671259343624,0.5727787718575448
1757859056233714200,43.270714111328125,2.5175126902654767,9.46257528128922,0.5405547741988673
1757859056243697200,43.280697265625,2.495743633788824,9.469964807018638,0.5113043124582618
1757859056253681200,43.29068115234375,2.4766467191308736,9.476389287108182,0.4844072819760069
1757859056263664000,43.3006640625,2.45978413939625,9.4820614875257,0.4586136461583897
1757859056273648000,43.31064819335938,2.445200756639987,9.48713513752818,0.4308868868537246
1757859056283631000,43.32063110351562,2.431729572909325,9.491988422778247,0.3990489659031853
1757859056293615000,43.33061499023437,2.4173667010359465,9.497083115568756,0.3635150399789214
1757859056303598000,43.34059814453125,2.3988594228342173,9.503114212426542,0.3266218814654275
1757859056313582000,43.35058203125,2.372356615833938,9.510919333219528,0.2910823660505935
1757859056323566000,43.36056616210937,2.33698281237483,9.520621227544543,0.2582391770476475
1757859056333549000,43.370549072265625,2.2937172327525914,9.53193406419754,0.2268758696052245
1757859056343533000,43.380532958984375,2.2431930603042245,9.544629295119645,0.1962929171518422
1757859056353516000,43.39051611328125,2.1876794090054927,9.558059854578971,0.1670701471357606
1757859056363500000,43.4005,2.130881709245592,9.57130161346793,0.1411413132316898
1757859056373483300,43.41048315429688,2.074146553327888,9.584030746659636,0.121111976561835
1757859056383467000,43.42046704101563,2.0173951769277454,9.596302783733606,0.1071037816113326
1757859056393450000,43.43044995117187,1.9616519546568392,9.60794938238561,0.0980347874955274
1757859056403434000,43.44043408203125,1.9085431725427504,9.61867360549569,0.0946990580684039
1757859056413417200,43.45041723632813,1.8592443041056397,9.628289575102924,0.098138631462492
1757859056423401200,43.46040112304688,1.8121376850157973,9.63717372330427,0.1068566567161586
1757859056433384200,43.47038427734375,1.7671726079992949,9.645405545076729,0.1167998672500718
1757859056443368000,43.48036791992188,1.7242777613855895,9.653089669838549,0.123035802497575
1757859056453352000,43.49035205078125,1.6836352237433194,9.660272859340903,0.1220207071708981
1757859056463335000,43.5003349609375,1.6456778335317968,9.666924133923647,0.1127931614925153
1757859056473319200,43.51031909179687,1.6114280656665565,9.672845340666177,0.0987959902595262
1757859056483302100,43.52030224609375,1.5804064660675825,9.678105453151463,0.0834435319600626
1757859056493286100,43.5302861328125,1.551789297261834,9.6828529399395,0.0685034995195455
1757859056503268900,43.54026879882812,1.524656229534,9.68725146715939,0.054585252441396
1757859056513252900,43.5502529296875,1.4975209698490797,9.691552963745591,0.0401214500773465
1757859056523236000,43.56023608398438,1.46813734671548,9.696102297613024,0.0236307929446338
1757859056533220000,43.57022021484375,1.4355311082735658,9.701009943398832,0.0067778566795459
1757859056543203000,43.580203125,1.4015541660003363,9.705974872329833,-0.0092355702962784
1757859056553187000,43.59018701171875,1.3678868741981685,9.710756845909357,-0.022299473558925
1757859056563170000,43.60017016601562,1.3338311676003038,9.715464000687003,-0.032396901973593
1757859056573154000,43.61015405273437,1.2965978538796306,9.720471599715948,-0.0408289407595759
1757859056583137000,43.62013696289063,1.253145957905054,9.726130356130003,-0.0489825416300911
1757859056593121000,43.63012109375,1.205590060677752,9.732091894882917,-0.0579745341200847
1757859056603104800,43.64010473632813,1.1576562700487674,9.73784651288688,-0.0677164362285053
1757859056613088000,43.650087890625,1.1125557300843298,9.743018947088718,-0.0788291974318679
1757859056623072000,43.660072021484375,1.0712386541813612,9.747544315558672,-0.0907977123814634
1757859056633055000,43.67005493164063,1.0330654292620718,9.751552966678142,-0.101926817364851
1757859056643039000,43.6800390625,0.9972758846089244,9.755183432134986,-0.1106395088562741
1757859056653022000,43.69002197265625,0.9631111646786332,9.758536834216118,-0.1172792299985419
1757859056663006000,43.700005859375,0.9287019684679806,9.761786775922774,-0.124127680254355
1757859056672989000,43.70998901367187,0.8926338260691612,9.765026780757308,-0.1335022331879939
1757859056682973000,43.71997290039062,0.8563733029033989,9.768084999284149,-0.1467704142929986
1757859056692956000,43.72995581054688,0.8232188559941946,9.770651634901762,-0.1645095394001342
1757859056702940000,43.73993994140625,0.7957775260347872,9.772566528612376,-0.1846008353902958
1757859056712924000,43.749923828125,0.7756512683290988,9.773777073445917,-0.2050197558996267
1757859056722907000,43.759906982421874,0.7618198729839175,9.77440601899922,-0.2258471293456852
1757859056732891000,43.76989086914063,0.7494025091551244,9.77483271997869,-0.2477845646591857
1757859056742873900,43.77987377929688,0.7353649967785925,9.775290985140204,-0.2707490962644107
1757859056752857900,43.78985791015625,0.7216103199314325,9.775646958971024,-0.2939246768044307
1757859056762841000,43.799841064453126,0.7120066983491182,9.775723531338572,-0.3141318542592227
1757859056772825000,43.8098251953125,0.711099666506797,9.77522201155722,-0.3313171631421893
1757859056782807800,43.81980786132812,0.7228433688577264,9.773853645813464,-0.3459270320465788
1757859056792791800,43.82979174804687,0.7474326703868805,9.771518480864168,-0.3594039513982832
1757859056802774800,43.83977490234375,0.7853141458179801,9.76794705211818,-0.3753644677266478
1757859056812759000,43.84975903320313,0.8365346299674361,9.76289502942562,-0.3955700742788612
1757859056822742000,43.859741943359374,0.8993795009370893,9.75627298093736,-0.42028713037353
1757859056832726000,43.86972607421875,0.9719734663743526,9.74810487205088,-0.4473226560110226
1757859056842709000,43.879708984375,1.0541504489973186,9.738359723106026,-0.4727595508128404
1757859056852692700,43.88969262695313,1.1445891370743513,9.727223996585607,-0.4913325511945411
1757859056862676700,43.8996767578125,1.2391029656358064,9.715288644120095,-0.4981520950162783
1757859056872660000,43.909659912109376,1.3300972417689858,9.703447984200716,-0.4943083156023174
1757859056882644000,43.91964404296875,1.4111528922118246,9.692404612138867,-0.4861231459831818
1757859056892627000,43.929626953125,1.4790915791891517,9.682602764570712,-0.479461751865223
1757859056902611000,43.93961083984375,1.5324872154206035,9.67445569847226,-0.4762133079959079
1757859056912594000,43.94959399414063,1.571468980243802,9.668309450802209,-0.4739747718214988
1757859056922578000,43.95957788085938,1.599571769786626,9.664059976664184,-0.4665947445727884
1757859056932561000,43.96956079101562,1.623740580881387,9.660814126610756,-0.4500377967212349
1757859056942545000,43.979544921875,1.6531661434605716,9.656988430842755,-0.4242517231555655
1757859056952528000,43.98952783203125,1.6902394443139432,9.65194868310988,-0.3916168431410565
1757859056962512100,43.99951220703125,1.7327566897869109,9.645822893705963,-0.3550450986016542
1757859056972494800,44.00949487304688,1.7809946509942411,9.638439797717332,-0.3145374028528109
1757859056982478800,44.019478759765626,1.834417613624036,9.629783613052965,-0.2693939553284086
1757859056992462800,44.029462890625,1.8917992507517336,9.619912207379937,-0.2207988695127889
1757859057002445800,44.03944580078125,1.9519106051042676,9.60890507567525,-0.1713501808088272
1757859057012430000,44.04943017578125,2.014054780458659,9.59681657847464,-0.1228564821416046
1757859057022413000,44.0594130859375,2.078709915720671,9.583495324608682,-0.0772452344423625
1757859057032397000,44.06939697265625,2.1472812015131115,9.56861924251616,-0.0333777776535484
1757859057042379800,44.0793798828125,2.21960394879356,9.552155014449358,0.0095565841240371
1757859057052363800,44.08936376953125,2.294013146959245,9.534401915615796,0.0553306639812188
1757859057062347000,44.09934692382812,2.366686461243033,9.5162086717993,0.104725745634688
1757859057072331000,44.1093310546875,2.437075902373344,9.497738364607097,0.1550424767442978
1757859057082314000,44.11931396484375,2.5044728836894032,9.479299037075045,0.2022777637151069
1757859057092298000,44.12929809570313,2.567625213173032,9.461406822031735,0.2438136334679089
1757859057102281000,44.139281005859374,2.626234638530016,9.44431598649919,0.2795952505429275
1757859057112265000,44.14926489257813,2.678529181651771,9.428639693939685,0.3108652536787092
1757859057122249000,44.1592490234375,2.7274551251232624,9.413554353010651,0.3411557625241577
1757859057132232000,44.16923193359375,2.7778976106375453,9.397603335162996,0.3724611840331926
1757859057142216000,44.1792158203125,2.8292592568233608,9.380891269814969,0.4056321071531623
1757859057152199000,44.189198974609376,2.8780291329503056,9.364553882998228,0.4387051959218457
1757859057162183200,44.19918310546875,2.9214637855291365,9.349642729592322,0.4686506907219067
1757859057172166000,44.20916577148437,2.957105007752776,9.337195920473336,0.4926415514338761
1757859057182150000,44.21914990234375,2.986478401753306,9.326867418682577,0.5107649448845535
1757859057192132900,44.2291328125,3.01362535187602,9.317266646644471,0.5263021212343126
1757859057202116900,44.23911694335938,3.0398212848842143,9.308031200787424,0.5389273191275075
1757859057212100000,44.24910009765625,3.062430591577291,9.3002623203516,0.5449847925355658
1757859057222084000,44.259083984375,3.079310122446716,9.294711700487136,0.5445709510376676
1757859057232066800,44.26906689453125,3.0890625779151915,9.291660496222972,0.5414126331372187
1757859057242050800,44.27905078125,3.089880616299808,9.29153365497291,0.5389270999317989
1757859057252034000,44.28903393554688,3.0809128814682363,9.294618761506676,0.5370406651306897
1757859057262018000,44.29901806640625,3.064602090397477,9.300130218404531,0.5349455194823444
1757859057272002000,44.309001953125,3.0446859683111307,9.306773894202708,0.533143913420476
1757859057281985000,44.318985107421874,3.024707010121644,9.313324046498536,0.5324702519426122
1757859057291969000,44.328968994140624,3.0069851832091805,9.31898631004393,0.5337968243712559
1757859057301952000,44.33895190429688,2.991084141983092,9.324039501780272,0.5348829025749117
1757859057311936000,44.34893603515625,2.9732872040078044,9.329946095475554,0.5310956025885418
1757859057321919000,44.3589189453125,2.9503394591405985,9.337886825346946,0.5193664036870003
1757859057331903000,44.36890307617188,2.920788955007493,9.348190192696451,0.5007188767643646
1757859057341886000,44.37888598632812,2.886113362945616,9.360188089004158,0.477085305057466
1757859057351870000,44.38886987304687,2.848988916426897,9.372897348451614,0.4499483648721128
1757859057361853000,44.39885302734375,2.8117475655302404,9.3854914570868,0.4207422537298872
1757859057371837000,44.4088369140625,2.777215181331336,9.39700069309473,0.3922097675329074
1757859057381820000,44.41881982421875,2.7462556871831416,9.407141563358902,0.3662641194913536
1757859057391804000,44.42880395507812,2.7196733852058648,9.415788395673037,0.3416120549242943
1757859057401788000,44.43878784179688,2.699628376042843,9.42242271912098,0.3167616547735408
1757859057411771100,44.44877124023437,2.6879829464346168,9.426573409059642,0.2912640610267408
1757859057421755000,44.4587548828125,2.6851921466723083,9.428132913461328,0.2653848840838298
1757859057431737900,44.46873779296875,2.68926363389492,9.427708550569417,0.2378108859217725
1757859057441721900,44.478721923828125,2.694163973157108,9.427090126410128,0.2045474439464509
1757859057451705000,44.488705078125,2.693747209049761,9.42801484003961,0.1632071698309853
1757859057461689000,44.49868920898437,2.684178293454647,9.431439553791284,0.1162349999089259
1757859057471672000,44.50867211914063,2.6628844532743097,9.437947620511055,0.0675194158190628
1757859057481655800,44.51865576171875,2.6296035304412246,9.447496370100977,0.0196117094794055
1757859057491638800,44.528638671875,2.585185127522051,9.459735089427232,-0.0249529152437346
1757859057501623000,44.538623046875,2.5310186530485748,9.474207266893982,-0.0610839302783133
1757859057511606000,44.54860595703125,2.4693437026411296,9.490297985473276,-0.0835949413958005
1757859057521590000,44.55859008789062,2.402838555598259,9.507276008281112,-0.0918816077611874
1757859057531574000,44.56857397460937,2.334429913021624,9.524307222580909,-0.091682194465259
1757859057541556700,44.578556640625,2.267002974958717,9.540593755993246,-0.0902081672567874
1757859057551540700,44.588540771484375,2.2018638555720447,9.555839840441942,-0.0900967336384113
1757859057561524700,44.598524658203125,2.139286549497396,9.57003320096731,-0.0910749675534199
1757859057571508700,44.6085087890625,2.0791338402211665,9.583273206290604,-0.0920392460083123
1757859057581491500,44.61849145507812,2.021552004346251,9.595583821809292,-0.0921999986611306
1757859057591475500,44.62847534179687,1.96661103836894,9.607000703358649,-0.0914148396328091
1757859057601458400,44.63845849609375,1.912731271882355,9.61789209972918,-0.0895346336430869
1757859057611442700,44.64844262695313,1.8575529900178311,9.628737318870424,-0.0855586974831297
1757859057621425700,44.65842578125,1.80053740972355,9.639605334365369,-0.0804107858011964
1757859057631409700,44.66840966796875,1.7431611794233322,9.650188687700032,-0.0750911205818178
1757859057641392400,44.67839233398438,1.687305875080079,9.66013432765305,-0.0718333745946176
1757859057651376400,44.68837646484375,1.6357570357590914,9.668991003325582,-0.0727526174645405
1757859057661360400,44.6983603515625,1.5897811742648482,9.676610246157646,-0.0787282943406608
1757859057671343600,44.708343505859375,1.5491773611977695,9.68310896052718,-0.088552280675387
1757859057681327600,44.71832763671875,1.5125022658817469,9.68879577399194,-0.0998037151305004
1757859057691310600,44.728310546875,1.4767252884492277,9.694203185993432,-0.1099163639471866
1757859057701294600,44.73829467773437,1.4391761867776511,9.699749714204668,-0.1183661210529506
1757859057711277600,44.74827758789063,1.3990499280944466,9.705522452387212,-0.1259642662980593
1757859057721261600,44.75826147460938,1.356166771918535,9.711523154106736,-0.1323696306951809
1757859057731244500,44.76824462890625,1.3107726558350026,9.71768810647726,-0.1370870876711327
1757859057741228500,44.778228515625,1.2645697075866162,9.723736738991736,-0.142076265127398
1757859057751211500,44.78821142578125,1.2192639273736623,9.729410692974923,-0.1494086081763263
1757859057761195800,44.79819580078125,1.1745748908195643,9.734768420615792,-0.1582592103010974
1757859057771178500,44.80817846679688,1.129990849009901,9.739925657248495,-0.1653988711889833
1757859057781162500,44.81816259765625,1.0865647450637073,9.744808168593048,-0.168707137220446
1757859057791146500,44.828146484375,1.045857398556918,9.749238259994984,-0.1700353718832135
1757859057801129500,44.83812939453125,1.00811723129265,9.75318086014092,-0.1718774743522517
1757859057811113500,44.84811352539062,0.9738083536513148,9.756589791801572,-0.1761776192315854
1757859057821096700,44.8580966796875,0.9438372860185802,9.759375038605928,-0.1848178026092238
1757859057831080700,44.86808081054688,0.9179756995312868,9.761583946827054,-0.1979480456814169
1757859057841063400,44.8780634765625,0.8930750670306384,9.763553785595295,-0.2140187991849146
1757859057851047400,44.88804736328125,0.867419305313751,9.765514272013306,-0.2295296172507107
1757859057861030700,44.89803076171875,0.8418599166434257,9.767440856161713,-0.2424062874206341
1757859057871014700,44.9080146484375,0.8183611868299543,9.76916168860495,-0.2532734443990513
1757859057880997600,44.91799755859375,0.7996550250552594,9.770417826145886,-0.264314387041796
1757859057890981600,44.92798168945313,0.786025947349146,9.771204008087516,-0.275896487356536
1757859057900964600,44.93796459960937,0.776579489089921,9.771619018629194,-0.2877150450419634
1757859057910948600,44.94794848632812,0.7706769139826297,9.771731831353902,-0.2995251819589175
1757859057920932600,44.9579326171875,0.7692977345839143,9.77145885963142,-0.3117082803741097
1757859057930915600,44.96791552734375,0.77405888457112,9.770665078905225,-0.3245194292934611
1757859057940899600,44.97789965820313,0.7869586250893771,9.76921721818447,-0.3368574442757293
1757859057950882600,44.987882568359375,0.8092093276031315,9.766990189784766,-0.3484874571191146
1757859057960866800,44.99786669921875,0.8404390900600701,9.76393781647682,-0.3599637772381305
1757859057970849500,45.007849609375,0.8807646707076578,9.759904030916092,-0.3727169488925486
1757859057980833500,45.01783349609375,0.930689708219096,9.754694187313316,-0.3874942833183333
1757859057990816500,45.02781640625,0.9926174643438308,9.748027130639551,-0.4013159244544804
1757859058000800500,45.037800537109376,1.0682901796393096,9.739647424829004,-0.4103480662917718
1757859058010783700,45.04778369140625,1.1557689949974417,9.729423552456495,-0.4158227348431945
1757859058020767700,45.057767822265625,1.2536499619044363,9.71726023645401,-0.4166807033794
1757859058030750500,45.06775048828125,1.3581098688103257,9.703501760214566,-0.4098290108537301
1757859058040734500,45.077734375,1.4630096284382044,9.688767716941236,-0.3971962872412055
1757859058050718500,45.08771850585938,1.56307086199373,9.673668347486853,-0.3838388660833239
1757859058060701700,45.09770166015625,1.6539618238829077,9.658936057779192,-0.3738197225026786
1757859058070685700,45.107685791015626,1.7310715131789445,9.645628832438588,-0.3682564258197322
1757859058080668700,45.11766870117187,1.790773117686808,9.63480757869482,-0.3660398457488045
1757859058090652400,45.12765234375,1.831996377826482,9.627126961064338,-0.3641326969532296
1757859058100635600,45.1376357421875,1.8567239918477831,9.622559507018329,-0.3595757277686148
1757859058110619600,45.14761962890625,1.8707116006679831,9.620236032506822,-0.3491090596161783
1757859058120602600,45.1576025390625,1.884548110579699,9.618310617402196,-0.3270582270560786
1757859058130586600,45.167586669921874,1.9100996082045136,9.614473815718291,-0.2895150984675623
1757859058140569600,45.17756958007813,1.9466224355682729,9.608536826884746,-0.2389030102737248
1757859058150553300,45.18755322265625,1.9913151253841817,9.60056803996265,-0.1847929969615303
1757859058160536600,45.19753662109375,2.0439685649462045,9.590321955758332,-0.1353202697948552
1757859058170520600,45.2075205078125,2.1039583387456835,9.57783306106329,-0.0941508678674232
1757859058180504600,45.21750463867188,2.1688160108424723,9.563633270797132,-0.059658217457286
1757859058190487600,45.22748754882812,2.2366955149784684,9.548131165760754,-0.0278027791163651
1757859058200471600,45.23747143554687,2.3067148076221344,9.531498010867834,0.0049936527019832
1757859058210454500,45.24745458984375,2.378715044949949,9.513687044367192,0.0431106950212037
1757859058220438500,45.2574384765625,2.451142567779124,9.494982343897222,0.0870543976672925
1757859058230421500,45.26742138671875,2.52197346906662,9.475897704198957,0.1319408564896322
1757859058240405500,45.27740551757813,2.5904680363610386,9.456740583786369,0.1730123784000053
1757859058250388700,45.287388671875,2.655419231960177,9.437983860868217,0.2087677102562971
1757859058260372700,45.29737280273437,2.715235987280309,9.420199197852613,0.2402337291545234
1757859058270355500,45.30735546875,2.769147317948937,9.403689961600303,0.2698183730192482
1757859058280339500,45.31733935546875,2.8184947017028925,9.388055754616856,0.301459218761418
1757859058290322400,45.32732250976562,2.8647660390123724,9.372758816763758,0.3389640976987779
1757859058300306400,45.33730639648437,2.90646203123033,9.35819136222899,0.3835461302144453
1757859058310290700,45.34729077148437,2.9401904055699704,9.34558205602467,0.4309839174874126
1757859058320273700,45.35727368164063,2.9627827611282465,9.33635011729896,0.4741920313013717
1757859058330257700,45.36725756835938,2.9753982048124072,9.33047742587328,0.5094895546538755
1757859058340240400,45.37724047851562,2.983109217581153,9.326415583261848,0.5379667304670438
1757859058350224400,45.38722436523437,2.9902792553409934,9.32271906683147,0.5617179372042417
1757859058360207600,45.39720751953125,2.9981498425856232,9.318992155262828,0.5812767337528988
1757859058370191600,45.40719165039062,3.004393120889365,9.316158393141627,0.5943024387383833
1757859058380174600,45.41717456054688,3.0077304486185312,9.314793534529208,0.5988202084237709
1757859058390158600,45.42715869140625,3.0096397893711924,9.314355727633831,0.5960194717893377
1757859058400141600,45.4371416015625,3.010788667145371,9.314583691170812,0.5865718079537153
1757859058410125600,45.44712548828125,3.010378917300701,9.315811771661044,0.5689077756430954
1757859058420109600,45.457109619140624,3.0053292326956984,9.318907984110712,0.5443801777059212
1757859058430092500,45.46709252929688,2.992386456753313,9.324631622454524,0.5169797642787918
1757859058440076500,45.47707666015625,2.9713901382148262,9.332727250626682,0.491340844098851
1757859058450059800,45.487059814453126,2.945051289604604,9.342064403292536,0.4720959358049556
1757859058460043800,45.49704370117188,2.9166280359357595,9.35153248886168,0.4610056923940777
1757859058470026500,45.50702661132812,2.8894755328550934,9.360272260156274,0.4545665992572903
1757859058480010500,45.51701049804687,2.866506745199859,9.367716730943322,0.4465685131754726
1757859058489993500,45.526993408203126,2.847825133344531,9.374123090854289,0.4313706883152947
1757859058499977500,45.5369775390625,2.8308745830655098,9.38036344654858,0.4065861930076033
1757859058509960700,45.546960693359374,2.813509899027645,9.386952761811015,0.3737201345857233
1757859058519944700,45.55694482421875,2.7943951564520595,9.394009110063314,0.3381317019952461
1757859058529927400,45.56692749023438,2.7719071380510925,9.401838780775666,0.3038624257119372
1757859058539911400,45.57691137695313,2.745810573764145,9.410438851338624,0.2730097346727736
1757859058549895400,45.5868955078125,2.7177228356599805,9.41930780197084,0.2469735953361727
1757859058559878100,45.59687817382813,2.691160991948843,9.427443762153386,0.2266275026010349
1757859058569862100,45.60686206054688,2.67049317471236,9.433655476275083,0.2121694815238006
1757859058579845000,45.61684521484375,2.658200679372251,9.437356084358692,0.2016773136039264
1757859058589829000,45.6268291015625,2.6527184485688804,9.43907457871437,0.1931987870614044
1757859058599812000,45.63681201171875,2.651214473746717,9.439681312435864,0.1839976453327573
1757859058609796000,45.646796142578125,2.650601894806325,9.440112689590451,0.1701795295942574
1757859058619779000,45.65677905273437,2.6465108261004087,9.441596206146478,0.1504290646647103
1757859058629763000,45.66676318359375,2.6352111411899326,9.445088139915466,0.1278305076945107
1757859058639746300,45.67674633789063,2.6147806398406623,9.451035650143028,0.105919147537183
1757859058649730300,45.68673022460938,2.584794082377851,9.459466793879866,0.0878109151230193
1757859058659713000,45.69671313476562,2.5453791868343947,9.470254729875922,0.0756991375115234
1757859058669697000,45.70669702148437,2.496867084860801,9.483207734951376,0.069412549789017
1757859058679681000,45.71668090820312,2.4407956535488364,9.497819028627871,0.0657552602573297
1757859058689664000,45.7266640625,2.3806318383567038,9.513104276043176,0.0619758695827797
1757859058699648300,45.73664819335937,2.3203820984467862,9.528001400923728,0.0585447397900512
1757859058709631200,45.74663134765625,2.262842055886984,9.541831188833712,0.0581326655575539
1757859058719615200,45.756615234375,2.20838609694764,9.554563829156756,0.0610362095459131
1757859058729598000,45.76659790039062,2.1569535774827,9.566277647826077,0.06528567455078
1757859058739582000,45.77658203125,2.108807093951106,9.576967968666551,0.0707404054258717
1757859058749565200,45.78656518554688,2.06451889328286,9.586569909748434,0.0764579519556136
1757859058759549200,45.79654907226563,2.024025262591988,9.595153029176592,0.0822569707903079
1757859058769532200,45.8065322265625,1.986706170284003,9.602890345430374,0.0889053592962212
1757859058779516200,45.81651611328125,1.9522363299272956,9.609888826015592,0.0958111292298417
1757859058789500000,45.8265,1.9210665540292855,9.616108723443746,0.1016971459279768
1757859058799483100,45.83648315429687,1.8940202878020704,9.621431379771233,0.105382145450497
1757859058809467100,45.84646704101562,1.870929188941419,9.625944473281502,0.1058362641598563
1757859058819450000,45.8564501953125,1.849811582110822,9.63006827521324,0.1018549211724195
1757859058829434000,45.86643408203125,1.825854075679183,9.634718731367588,0.093928466421552
1757859058839417300,45.87641723632812,1.7972803076237438,9.640169397988917,0.0854977428098209
1757859058849401000,45.88640112304687,1.768310818248987,9.645573302859068,0.079759948076494
1757859058859384000,45.89638403320313,1.7411868106104431,9.650524787786605,0.0775499804094433
1757859058869368000,45.9063681640625,1.7155014574728906,9.655132573843002,0.0764707794711459
1757859058879351000,45.91635107421875,1.6901552731618283,9.659622870999574,0.0737976238722912
1757859058889335000,45.9263349609375,1.662896533227712,9.66438497083485,0.0695361761686857
1757859058899318300,45.936318359375,1.633901032628864,9.669359252116084,0.0649996698167873
1757859058909302000,45.94630200195313,1.6024324199147522,9.674649175217748,0.0612096070511732
1757859058919286000,45.9562861328125,1.566438146469742,9.680561029610038,0.0582932994793634
1757859058929269000,45.96626904296875,1.5259893778339026,9.687031102406978,0.0564496672069421
1757859058939253000,45.9762529296875,1.483297798707336,9.693658996114134,0.0566420571070397
1757859058949236200,45.986236328125,1.4423058631055057,9.699828624659776,0.0588691814048681
1757859058959220200,45.99622021484375,1.4059621917009353,9.705144266724586,0.06195918330946
1757859058969203000,46.00620288085938,1.373902188964933,9.709721073120832,0.0642064370798645
1757859058979187000,46.01618701171875,1.345962919420749,9.713629186475275,0.0645172702944371
1757859058989170200,46.026170166015625,1.321680711079389,9.716973236206174,0.062915196259506
1757859058999154200,46.036154296875,1.2983056807108222,9.720144851979612,0.0597884288413682
1757859059009137200,46.04613720703125,1.2737081228099765,9.723426357868313,0.0551688244830118
1757859059019121200,46.05612109375,1.2475056139305234,9.726853994229437,0.0490812618973664
1757859059029105200,46.06610522460937,1.220165479323268,9.730361125567557,0.0406643384821247
1757859059039088000,46.07608813476563,1.1948081890963018,9.733547938910126,0.0295972088020644
1757859059049072000,46.08607202148438,1.174818344186619,9.736011698675156,0.0166123587000649
1757859059059055000,46.09605517578125,1.1594934954132885,9.737861710456013,0.0021738394764441
1757859059069039000,46.1060390625,1.1450006404846906,9.73956734533012,-0.0137501844767772
1757859059079022000,46.11602197265625,1.1275927018269896,9.74156056497395,-0.0304111669498961
1757859059089006000,46.12600610351563,1.1075772110193969,9.74379577668011,-0.0456891352410428
1757859059098989000,46.13598901367188,1.0871432025387882,9.746039756214618,-0.056826980653312
1757859059108973000,46.14597314453125,1.0681067858964204,9.748086167350412,-0.0660650614254409
1757859059118956000,46.1559560546875,1.054590301719308,9.749479083013536,-0.0767790508358739
1757859059128940000,46.16593994140625,1.0490817674309014,9.7499911241889,-0.086580460012611
1757859059138923300,46.17592333984375,1.0507241278104484,9.749739779776334,-0.0946012967823538
1757859059148907300,46.1859072265625,1.0608285385217515,9.748570151475072,-0.1019646925566717
1757859059158891300,46.19589135742188,1.080434864006564,9.74635013733804,-0.1080709278767462
1757859059168874000,46.2058740234375,1.108674943128228,9.74312883720398,-0.1125695636034011
1757859059178858000,46.21585791015625,1.1429437810201195,9.739124277737735,-0.1163337567088194
1757859059188841200,46.22584130859375,1.1815745404485611,9.73447206801772,-0.1197157364304643
1757859059198825200,46.2358251953125,1.2215660668361932,9.72952993544042,-0.1201006166953593
1757859059208808200,46.24580810546875,1.2601558366671204,9.7246795727998,-0.1140533541540615
1757859059218792200,46.255792236328126,1.2960099709890782,9.720099843794108,-0.1019772871767636
1757859059228775000,46.26577490234375,1.3286695470534264,9.715845693480968,-0.0859272568008862
1757859059238759200,46.27575927734375,1.3583935080572962,9.711880296981334,-0.0673652801366988
1757859059248742100,46.2857421875,1.3866530955970289,9.707996733546256,-0.0488999961794819
1757859059258726100,46.29572607421875,1.413006849515438,9.704267483890057,-0.0317480027609388
1757859059268710100,46.30571020507813,1.4379714871630072,9.700638187476992,-0.0158665909672155
1757859059278693000,46.31569311523437,1.4644449219383298,9.69668857306838,0.000106814222225
1757859059288677000,46.325677001953125,1.495189750422537,9.691979080203176,0.0183536528343742
1757859059298660000,46.33566015625,1.5311143196322023,9.68630337265432,0.0401533658858388
1757859059308644000,46.34564404296875,1.5711010237142442,9.679759065577388,0.065360945443809
1757859059318627000,46.355626953125,1.6131865997716783,9.672606271213292,0.0932716190811712
1757859059328611000,46.365611083984376,1.6557374552533028,9.66508055188358,0.1231143476265016
1757859059338594300,46.37559423828125,1.6979698924355209,9.657302903619408,0.1542454811477102
1757859059348578300,46.385578369140624,1.7408277680397033,9.649115505510569,0.1857159570253454
1757859059358561000,46.39556103515625,1.7859513966187834,9.64025123105347,0.2152091049480251
1757859059368545000,46.405544921875,1.8351568876840172,9.630346507632732,0.242887622930482
1757859059378529000,46.41552905273438,1.8893572644270955,9.619133039700984,0.2701592040798626
1757859059388512300,46.42551220703125,1.948309219611436,9.60656991072595,0.2970977173499763
1757859059398496300,46.43549633789063,2.011462425877899,9.592711481243372,0.3229564908256754
1757859059408479200,46.44547924804687,2.0777391709923743,9.577703881725668,0.3478288105472922
1757859059418463200,46.45546313476562,2.145334889750928,9.561814823198318,0.3736898490453139
1757859059428446000,46.46544604492188,2.2097285975977776,9.545984216859935,0.4020919868608936
1757859059438430000,46.47542993164063,2.266710860144346,9.531288752031326,0.432374495062977
1757859059448413200,46.4854130859375,2.3154373355209827,9.5181299952507,0.4629765175430104
1757859059458397200,46.49539721679688,2.3568889975890515,9.506524897652865,0.4913768287276849
1757859059468380200,46.50538012695313,2.3929947685845194,9.496186458989976,0.5161559537405148
1757859059478364200,46.5153642578125,2.423646365827322,9.487121109002828,0.5393325754601508
1757859059488348000,46.52534790039063,2.449486763396114,9.479152322080733,0.5622253387371078
1757859059498331100,46.5353310546875,2.472135671447217,9.471832938978077,0.5859119558054954
1757859059508315100,46.54531518554688,2.494689156299829,9.464389637234806,0.6101244599115103
1757859059518298000,46.55529809570312,2.51970698543936,9.456169505900144,0.6343037193350494
1757859059528282000,46.5652822265625,2.5456372532486915,9.4475571603775,0.6586242138601839
1757859059538265300,46.57526538085938,2.569936704985797,9.439358656352756,0.6814096077725291
1757859059548249000,46.5852490234375,2.590093942351639,9.43243499456942,0.700704967612028
1757859059558232300,46.595232421875,2.6055951706051825,9.427031674221157,0.7157827097564935
1757859059568216300,46.60521630859375,2.6180121691077947,9.42271790267527,0.7271707305375487
1757859059578199300,46.61519921875,2.626466109198332,9.419675466239452,0.7360445034753531
1757859059588183300,46.62518334960937,2.629216576950252,9.41840939182639,0.7424020558085292
1757859059598167300,46.63516723632812,2.62563930298537,9.419209602293371,0.7449178380217403
1757859059608150300,46.645150390625,2.6162948437958957,9.42184287340641,0.7444768893212079
1757859059618134300,46.65513427734375,2.601915020787716,9.425818791300058,0.7445495892312377
1757859059628117200,46.6651171875,2.5842449240624905,9.430255896964669,0.7498967954780906
1757859059638101200,46.675101318359374,2.567650932136178,9.433878763636946,0.7612413424436002
1757859059648084500,46.68508447265625,2.553448511521518,9.436603804686666,0.7751114623639732
1757859059658068500,46.695068359375,2.537850544895232,9.439929149717091,0.785783370764926
1757859059668051200,46.70505126953125,2.516190209490061,9.445474508884548,0.7888000882375985
1757859059678035200,46.71503515625,2.4880557096347213,9.45356253827214,0.7810865912508219
1757859059688018400,46.72501831054687,2.457043608516454,9.463222931542992,0.7620546315878629
1757859059698002400,46.73500244140625,2.4244519831217826,9.473620991438628,0.736822867436707
1757859059707985400,46.7449853515625,2.391494739285111,9.48405996786654,0.7097478865716605
1757859059717969400,46.75496948242188,2.3619924582079053,9.493134085682032,0.6868569133929908
1757859059727953400,46.76495336914063,2.3391933280311523,9.4998747921139,0.671521543225646
1757859059737936400,46.77493627929688,2.321460249072313,9.504894081580638,0.6619727936357259
1757859059747920400,46.78492041015625,2.308057454402745,9.50873088326454,0.6536861729361116
1757859059757903400,46.7949033203125,2.3011362768374384,9.511256017827987,0.6412153984196484
1757859059767887400,46.80488745117187,2.3006726048484443,9.51283305788636,0.6191018393542618
1757859059777870300,46.814870361328126,2.3015384278975426,9.514834460836648,0.5841650390729308
1757859059787854300,46.82485424804688,2.297873475649208,9.518417580020428,0.5384175429744645
1757859059797837300,46.83483740234375,2.288253998910636,9.52348713836968,0.4873070220055058
1757859059807821300,46.8448212890625,2.2740379881620405,9.52926805985868,0.4383967875597998
1757859059817804300,46.85480419921875,2.254500636260212,9.535714751780032,0.3972048358738422
1757859059827788300,46.86478833007813,2.228856638046354,9.543018352791666,0.3651903527799993
1757859059837772300,46.87477221679688,2.196567648860067,9.551433129915594,0.3399932946160435
1757859059847755500,46.884755615234376,2.157907371076196,9.56095089984536,0.3194329928746446
1757859059857739300,46.8947392578125,2.114960794275254,9.57111748907268,0.3017179610291495
1757859059867722200,46.90472216796875,2.069626299424469,9.581513210880756,0.2856748444512486
1757859059877706200,46.91470629882812,2.0231743448510766,9.591859248328207,0.2709014007492922
1757859059887689500,46.924689453125,1.976309717823565,9.602009470942615,0.2568841274431906
1757859059897673500,46.93467358398438,1.9300413031235333,9.611763387715817,0.2436099093230441
1757859059907656400,46.944656494140624,1.8837433700680728,9.621220367369055,0.2324233111319132
1757859059917640200,46.95464013671875,1.8359388318419456,9.630628831705453,0.2251700338017195
1757859059927623200,46.964623046875,1.787131546314061,9.639871876347064,0.222273234647978
1757859059937607200,46.97460717773438,1.739113949859142,9.648636782082916,0.2228783609342761
1757859059947591400,46.98459130859375,1.6916459501110015,9.657049805641174,0.2238440641612745
1757859059957574400,46.99457446289063,1.643046023723483,9.665525373041628,0.2199984033174812
1757859059967558400,47.004558349609376,1.5920333371058106,9.67432651913464,0.2079139247048646
1757859059977541000,47.014541015625,1.538850320711732,9.683326402670144,0.1884544968774542
1757859059987525000,47.02452514648437,1.4850954957790672,9.692143330854178,0.1650322480999864
1757859059997508400,47.03450830078125,1.4310415417693554,9.700668582615256,0.1397815143868792
1757859060007492400,47.04449243164063,1.3748629968211057,9.709124276271462,0.1141816201762296
1757859060017475300,47.05447534179687,1.313989718185365,9.717797412070633,0.0906707158677745
1757859060027459300,47.06445922851562,1.2477592964306472,9.726673376965522,0.0727195097793824
1757859060037442300,47.0744423828125,1.179841579176113,9.735214995339511,0.0627891952596604
1757859060047426300,47.08442626953125,1.112539217340946,9.743155725210904,0.0596933755356352
1757859060057410300,47.09441040039062,1.0466478182822463,9.750454065525531,0.0595964727661106
1757859060067393300,47.10439331054688,0.9821567144755272,9.757164961341022,0.0588859133439604
1757859060077377300,47.114377197265625,0.9177661484338344,9.763452663308382,0.0556156869010999
1757859060087360300,47.1243603515625,0.8512442694518715,9.769507141041757,0.0499505235791439
1757859060097344500,47.134344482421874,0.7822878567993641,9.775301506534218,0.0435189744279952
1757859060107327200,47.1443271484375,0.7125503767717629,9.780654557999968,0.0382063554373336
1757859060117311200,47.15431127929688,0.6447161730822175,9.78537048060596,0.0353887293168925
1757859060127294200,47.16429418945312,0.5824676605705171,9.789271579697727,0.0357350927858613
1757859060137278200,47.1742783203125,0.5286859841635451,9.792313431611657,0.0382038666527252
1757859060147261400,47.18426147460937,0.4840566419074311,9.79462053951025,0.0385365509395021
1757859060157245400,47.19424536132812,0.4461692481921985,9.796436649021503,0.0337532005369314
1757859060167229400,47.2042294921875,0.4140052736250683,9.797877495479582,0.02362067112613
1757859060177212200,47.214212158203125,0.3863086902629584,9.799032510733603,0.0107792640658328
1757859060187196200,47.22419604492188,0.3630455593036487,9.799927413746714,-0.0021377986216277
1757859060197179400,47.23417944335937,0.3443681486994028,9.800594937744735,-0.0126650686792796
1757859060207163400,47.24416333007812,0.3308012129766866,9.801048526731131,-0.0200849141984363
1757859060217146400,47.254146484375,0.3231381675355136,9.801292272359133,-0.0254002799853216
1757859060227130400,47.26413037109375,0.3209748154891654,9.801344879329204,-0.0313413810216938
1757859060237113300,47.27411328125,0.3208335073223337,9.801319160366058,-0.0396000519851688
1757859060247097300,47.284097412109375,0.3197514477066695,9.801308638972044,-0.0498602606129599
1757859060257080300,47.29408032226563,0.3181306050391868,9.801298117578028,-0.0609852511102333
1757859060267064300,47.30406420898437,0.3189581053718924,9.801214530947805,-0.0696224159803008
1757859060277048300,47.31404833984375,0.3262470202710479,9.800947404444218,-0.0732298658877378
1757859060287031300,47.32403125,0.3423679878581315,9.80042191926539,-0.0698652756923111
1757859060297015600,47.334015625,0.3672008523521944,9.79959774340093,-0.0583574005244066
1757859060306998300,47.34399829101562,0.401715408633463,9.798325823768971,-0.0424842062864685
1757859060316982300,47.35398217773437,0.4481670709459111,9.796367675438525,-0.0267176964265527
1757859060326965200,47.36396533203125,0.506567785455659,9.793548526364564,-0.0132429656070016
1757859060336949200,47.37394921875,0.5772300887105987,9.789646842750908,-0.0019177924882365
1757859060346932500,47.38393237304688,0.6581789543107152,9.784534614303707,0.0089429303255223
1757859060356916500,47.39391650390625,0.7446577257808298,9.778314132353662,0.0213926015468081
1757859060366899200,47.40389916992188,0.8314707707066088,9.771264213842151,0.0382750413259491
1757859060376883200,47.41388330078125,0.9136098324719816,9.76380980618298,0.0610967760601546
1757859060386867200,47.4238671875,0.988174148134142,9.756335524779558,0.0883752892738208
