time,seconds_elapsed,z,y,x
1757768752737173200,30.07217333984375,-1.4517930746078491,-1.7993451356887815,0.1969314366579055
1757768752747130400,30.08213037109375,-1.4877673387527466,-1.6441504955291748,0.1684846132993698
1757768752757087500,30.09208740234375,-1.5180610418319702,-1.4602340459823608,0.1566193848848343
1757768752767044400,30.10204443359375,-1.528376221656799,-1.2471017837524414,0.1613073348999023
1757768752777000400,30.11200048828125,-1.5181015729904177,-1.0242390632629397,0.1744517385959625
1757768752786957300,30.121957275390624,-1.4928468465805054,-0.8118991255760193,0.1872394382953643
1757768752796914400,30.13191455078125,-1.4512286186218262,-0.6169519424438477,0.1952347159385681
1757768752806871300,30.141871337890624,-1.3981562852859497,-0.4540940821170807,0.1915510296821594
1757768752816828200,30.151828125,-1.3278238773345947,-0.3514340221881866,0.1747936755418777
1757768752826785300,30.161785400390624,-1.2362178564071655,-0.2913182079792022,0.1370553523302078
1757768752836742400,30.171742431640624,-1.1199065446853638,-0.253002792596817,0.0812540799379348
1757768752846699500,30.181699462890624,-0.986456573009491,-0.2376494109630584,0.0397801361978054
1757768752856655400,30.1916552734375,-0.8619348406791687,-0.2586971223354339,0.0308793522417545
1757768752866612500,30.201612548828123,-0.7612642049789429,-0.3119078874588012,0.054738875478506
1757768752876569300,30.2115693359375,-0.6657172441482544,-0.356632649898529,0.0889458358287811
1757768752886526500,30.2215263671875,-0.5393313765525818,-0.359617531299591,0.1195540800690651
1757768752896483300,30.2314833984375,-0.3539461195468902,-0.2932703495025635,0.1360273510217666
1757768752906440200,30.241440185546875,-0.1212518960237503,-0.1567537933588028,0.1416351646184921
1757768752916397600,30.2513974609375,0.1234710961580276,0.019537916406989,0.139305904507637
1757768752926354700,30.261354736328126,0.3404835760593414,0.203250765800476,0.1297523379325866
1757768752936310500,30.271310546875,0.4987123906612396,0.3998081386089325,0.1252513825893402
1757768752946267600,30.281267578125,0.584716260433197,0.6161561608314514,0.1327867954969406
1757768752956224800,30.291224853515622,0.6292994618415833,0.8555585145950317,0.126189038157463
1757768752966181600,30.301181640625,0.680650532245636,1.1270602941513062,0.1086443960666656
1757768752976138500,30.31113842773437,0.7593568563461304,1.451408624649048,0.0974112451076507
1757768752986095600,30.321095703125,0.8760759830474854,1.7908433675765991,0.1010962575674057
1757768752996052500,30.331052490234374,1.058964490890503,2.032049655914306,0.1014381498098373
1757768753006009600,30.341009521484374,1.2944731712341309,2.0946919918060303,0.1011238992214202
1757768753015965400,30.35096533203125,1.4910836219787598,1.957524299621582,0.1357958763837814
1757768753025922600,30.36092260742188,1.5762463808059692,1.691962957382202,0.2157780528068542
1757768753035879700,30.37087963867188,1.5317285060882568,1.3810101747512815,0.3129152655601501
1757768753045836800,30.3808369140625,1.3748773336410522,1.097569465637207,0.39589324593544
1757768753055793400,30.39079345703125,1.1679476499557495,0.8519598245620728,0.4194744825363159
1757768753065750500,30.40075048828125,0.9586082696914672,0.6356887817382812,0.3497483730316162
1757768753075707600,30.41070776367188,0.7782061696052551,0.4582888484001159,0.2050350308418274
1757768753085664500,30.42066455078125,0.6675789952278137,0.3566900491714477,0.0505413152277469
1757768753095620600,30.43062060546875,0.6465490460395813,0.3383946716785431,-0.0630503967404365
1757768753105577500,30.440577392578124,0.7167766094207764,0.3763300478458404,-0.1135844141244888
1757768753115534600,30.45053466796875,0.8532527089118958,0.4165626168251037,-0.1186944991350174
1757768753125491700,30.46049169921875,1.029865264892578,0.4830827713012695,-0.1020494773983955
1757768753135448600,30.470448486328124,1.2002639770507812,0.5707943439483643,-0.0736763700842857
1757768753145405400,30.480405517578124,1.327012300491333,0.6975464820861816,-0.0595038272440433
1757768753155362600,30.490362548828124,1.403461456298828,0.8825308680534363,-0.0766338109970092
1757768753165319700,30.500319580078123,1.4302046298980713,1.0792080163955688,-0.1179082840681076
1757768753175275500,30.510275634765627,1.4179030656814575,1.249717116355896,-0.1746296733617782
1757768753185232600,30.520232666015627,1.388307809829712,1.3923370838165283,-0.2396677881479263
1757768753195189500,30.530189453125,1.360497236251831,1.4921187162399292,-0.3041048347949981
1757768753205146600,30.540146728515627,1.3406124114990234,1.5477840900421145,-0.3691320121288299
1757768753215103700,30.550103759765623,1.335640549659729,1.5854252576828003,-0.4279573857784271
1757768753225060400,30.56006030273437,1.345753192901611,1.6089990139007568,-0.4824682772159576
1757768753235017500,30.570017578125,1.3537254333496094,1.589948296546936,-0.5348971486091614
1757768753244973600,30.5799736328125,1.3405158519744873,1.5476956367492676,-0.5840127468109131
1757768753254930400,30.589930419921878,1.315066695213318,1.4282655715942385,-0.6311037540435791
1757768753264887600,30.599887451171877,1.2938508987426758,1.2717081308364868,-0.6790100336074829
1757768753274844700,30.6098447265625,1.2700839042663574,1.094859600067139,-0.7120622992515564
1757768753284801500,30.619801513671877,1.2343517541885376,0.9282718896865844,-0.7371726632118225
1757768753294758700,30.629758544921877,1.1943442821502686,0.7579514384269714,-0.7658324837684631
1757768753304715500,30.639715576171877,1.1649330854415894,0.5974568128585815,-0.779886782169342
1757768753314672400,30.64967236328125,1.1303683519363403,0.449755996465683,-0.7672038078308105
1757768753324628500,30.65962841796875,1.0874578952789309,0.3126021325588226,-0.7432494759559631
1757768753334585600,30.669585693359377,1.027941107749939,0.204668179154396,-0.7153773307800293
1757768753344542500,30.67954248046875,0.9585288166999816,0.1117342561483383,-0.6879659295082092
1757768753354499600,30.68949951171875,0.886282742023468,0.0504352115094661,-0.6697792410850525
1757768753364456700,30.699456787109376,0.814021646976471,0.0356115251779556,-0.6433170437812805
1757768753374413600,30.70941357421875,0.7492496967315674,0.0121583295986056,-0.6029637455940247
1757768753384370700,30.71937060546875,0.7122538089752197,-0.000537757994607,-0.5482602715492249
1757768753394326800,30.72932690429688,0.7225972414016724,-0.0607301890850067,-0.4959741532802582
1757768753404283600,30.73928369140625,0.7523887157440186,-0.1473569720983505,-0.4286584854125976
1757768753414240500,30.749240478515624,0.7414404153823853,-0.2830015420913696,-0.3445220291614532
1757768753424197600,30.75919775390625,0.6521837711334229,-0.4346373975276947,-0.2448702603578567
1757768753434154500,30.769154541015624,0.4755170345306396,-0.5619354844093323,-0.1310971528291702
1757768753444111600,30.779111572265624,0.2300566732883453,-0.7017908096313477,-0.0319519229233264
1757768753454068700,30.78906884765625,-0.0500381588935852,-0.7588930726051331,0.0673915147781372
1757768753464025600,30.799025634765623,-0.3055024445056915,-0.725057065486908,0.1674744337797165
1757768753473981700,30.808981689453127,-0.5076257586479187,-0.5992579460144043,0.2670832872390747
1757768753483938800,30.818938720703127,-0.6479455828666687,-0.4038437008857727,0.3560243248939514
1757768753493895400,30.8288955078125,-0.7616204023361206,-0.1785785406827926,0.4239692389965057
1757768753503852500,30.8388525390625,-0.8611392974853516,0.0016088192351162,0.4519023299217224
1757768753513809700,30.8488095703125,-0.9483788013458252,0.0937038883566856,0.4390001595020294
1757768753523766500,30.8587666015625,-1.0236685276031494,0.101622000336647,0.4046464264392853
1757768753533723600,30.8687236328125,-1.1008869409561155,0.0206925962120294,0.3609557151794433
1757768753543679500,30.87867944335937,-1.1877104043960571,-0.1466276943683624,0.3128198683261871
1757768753553636600,30.88863671875,-1.268532156944275,-0.374950647354126,0.2588159143924713
1757768753563593700,30.89859375,-1.339383244514465,-0.6281219124794006,0.2195931375026703
1757768753573550300,30.90855029296875,-1.4161051511764526,-0.8901215195655823,0.2064180970191955
1757768753583507500,30.918507568359374,-1.5055484771728516,-1.195207118988037,0.2107207030057907
1757768753593464600,30.928464599609374,-1.5972470045089722,-1.5405322313308716,0.2219815105199813
1757768753603421700,30.938421630859374,-1.6761932373046875,-1.8959132432937624,0.2146655470132827
1757768753613377500,30.94837744140625,-1.726454734802246,-2.21203351020813,0.1847763657569885
1757768753623334700,30.95833471679688,-1.7436299324035645,-2.4831736087799072,0.1299301534891128
1757768753633291500,30.96829150390625,-1.731951355934143,-2.685821056365967,0.0655878707766532
1757768753643248600,30.97824853515625,-1.696075201034546,-2.7849762439727783,0.0114415492862463
1757768753653205800,30.98820581054688,-1.6448155641555786,-2.804782629013061,-0.0188377331942319
1757768753663162400,30.998162353515625,-1.601168155670166,-2.7741687297821045,-0.0279625207185745
1757768753673119500,31.008119384765624,-1.559520602226257,-2.6824419498443604,-0.0255292430520057
1757768753683075600,31.01807568359375,-1.512214183807373,-2.5434346199035645,-0.025144949555397
1757768753693032400,31.028032470703124,-1.4709017276763916,-2.3488283157348637,-0.0235435795038938
1757768753702989600,31.037989501953124,-1.4418154954910278,-2.1600489616394043,-0.0232793930917978
1757768753712946700,31.04794677734375,-1.4322290420532229,-1.969857215881348,-0.0299508646130561
1757768753722903600,31.057903564453124,-1.4353058338165283,-1.7732282876968384,-0.0489186979830265
1757768753732860700,31.067860595703124,-1.453397512435913,-1.5803776979446411,-0.0860874280333519
1757768753742817500,31.077817626953124,-1.4906508922576904,-1.4017109870910645,-0.1349276751279831
1757768753752773600,31.087773681640623,-1.5528647899627686,-1.2330644130706787,-0.189124047756195
1757768753762730500,31.09773046875,-1.640851616859436,-1.069911003112793,-0.2346052378416061
1757768753772687600,31.1076875,-1.7306725978851318,-0.9103944897651672,-0.271900475025177
1757768753782644500,31.11764453125,-1.806868553161621,-0.7597671747207642,-0.2859086990356445
1757768753792601600,31.1276015625,-1.866363286972046,-0.6208060383796692,-0.2832673490047455
1757768753802558700,31.137558837890627,-1.8973629474639893,-0.4768422245979309,-0.2575811445713043
1757768753812515600,31.147515625,-1.890663743019104,-0.3331534266471863,-0.2153668701648712
1757768753822472400,31.15747241210937,-1.8455910682678225,-0.1906290054321289,-0.1668749749660492
1757768753832428800,31.1674287109375,-1.7694534063339231,-0.0615199729800224,-0.115919329226017
1757768753842385400,31.177385498046878,-1.671216607093811,0.0627985149621963,-0.0673240944743156
1757768753852342500,31.187342529296878,-1.5598191022872925,0.1614416390657425,-0.0263537503778934
1757768753862299600,31.197299560546877,-1.4410629272460938,0.1965301185846328,0.0022661760449409
1757768753872256500,31.207256591796877,-1.3252710103988647,0.2305867224931717,0.0380459651350975
1757768753882213600,31.217213623046877,-1.2167961597442627,0.2342831939458847,0.0616064183413982
1757768753892169500,31.22716943359375,-1.1184806823730469,0.1969689279794693,0.0836747586727142
1757768753902126600,31.237126708984373,-1.0351940393447876,0.1523495316505432,0.1014854460954666
1757768753912084000,31.247083984375,-0.9679040312767028,0.1024837046861648,0.1199206486344337
1757768753922040800,31.257040771484377,-0.915278136730194,0.0510689839720726,0.139542281627655
1757768753931997700,31.266997802734377,-0.8622155785560608,0.000561143620871,0.1583100706338882
1757768753941954800,31.276954833984377,-0.7708896398544312,-0.0217201933264732,0.1725630462169647
1757768753951912000,31.286911865234377,-0.6052624583244324,0.0036502734292298,0.1789682209491729
1757768753961867800,31.29686767578125,-0.3614875972270965,0.0858844220638275,0.1755122393369674
1757768753971825000,31.30682495117188,-0.0659614130854606,0.2036036401987075,0.1612117439508438
1757768753981781800,31.31678173828125,0.2436678111553192,0.3361462652683258,0.1368973553180694
1757768753991739000,31.32673876953125,0.5258315205574036,0.4661689698696136,0.1080581024289131
1757768754001695700,31.33669580078125,0.7458126544952393,0.5870578289031982,0.1027893051505088
1757768754011652900,31.34665283203125,0.8724091053009033,0.7210201621055603,0.1233464702963829
1757768754021609700,31.356609619140624,0.9382339119911194,0.863074779510498,0.142173171043396
1757768754031565800,31.36656591796875,1.004269242286682,0.984986126422882,0.1363751739263534
1757768754041522700,31.376522705078123,1.0962753295898438,1.0994054079055786,0.1010896265506744
1757768754051479800,31.386479736328123,1.1884225606918335,1.268448829650879,0.0716052129864692
1757768754061437000,31.39643701171875,1.2553783655166626,1.5026588439941406,0.0535649582743644
1757768754071393800,31.406393798828127,1.3384675979614258,1.7801730632781982,0.0394169278442859
1757768754081351000,31.416350830078127,1.4738129377365112,2.042945146560669,0.0293818712234497
1757768754091307800,31.426307861328127,1.6486884355545044,2.2318129539489746,0.0402609407901763
1757768754101264000,31.436263916015623,1.79755699634552,2.2922821044921875,0.0755139961838722
1757768754111220700,31.446220703125,1.866532325744629,2.2411305904388428,0.1231733784079551
1757768754121177900,31.456177734375,1.8513553142547607,2.1245837211608887,0.1774643063545227
1757768754131134700,31.466134765625,1.7762081623077393,1.9671313762664795,0.2161395251750946
1757768754141091800,31.476091796875,1.6664835214614868,1.758979558944702,0.2080491036176681
1757768754151049000,31.486049072265622,1.549820899963379,1.499808669090271,0.1402647346258163
1757768754161004800,31.4960048828125,1.4279972314834597,1.2015773057937622,0.0222259778529405
1757768754170962000,31.5059619140625,1.3036823272705078,0.9017247557640076,-0.1078275740146637
1757768754180919000,31.5159189453125,1.1940878629684448,0.6491484045982361,-0.2006736248731613
1757768754190875600,31.525875732421877,1.1255242824554443,0.488799899816513,-0.2362197190523147
1757768754200832800,31.535832763671877,1.1129727363586426,0.3901556134223938,-0.2250581532716751
1757768754210790000,31.545789794921877,1.146726131439209,0.362585961818695,-0.1925504505634308
1757768754220746800,31.55574682617188,1.2118675708770752,0.373494803905487,-0.1612516492605209
1757768754230702800,31.565702880859376,1.291172981262207,0.431226521730423,-0.1472456157207489
1757768754240659700,31.57565966796875,1.373334884643555,0.5260273814201355,-0.1654118299484253
1757768754250616800,31.585616943359376,1.4418491125106812,0.6385114192962646,-0.2129740118980407
1757768754260574000,31.595573974609376,1.4859508275985718,0.745397686958313,-0.2820985019207001
1757768754270530800,31.60553076171875,1.5166029930114746,0.8437955379486084,-0.3668688237667084
1757768754280487700,31.61548779296875,1.535779595375061,0.9037206768989564,-0.4640475511550903
1757768754290444800,31.62544482421875,1.5494507551193235,0.9540120363235474,-0.5579753518104553
1757768754300400600,31.635400634765624,1.5472211837768557,0.9873234033584596,-0.6466759443283081
1757768754310357800,31.645357666015624,1.531830906867981,1.0136566162109375,-0.7249643206596375
1757768754320315000,31.65531494140625,1.5004408359527588,1.0398526191711426,-0.7828662395477295
1757768754330271700,31.665271728515624,1.4581528902053833,1.0786701440811155,-0.8211750388145447
1757768754340228900,31.675228759765623,1.413669228553772,1.0918490886688232,-0.8419684767723083
1757768754350186000,31.68518603515625,1.359846830368042,1.1069670915603638,-0.8405245542526245
1757768754360141800,31.695141845703127,1.3102670907974243,1.1027380228042605,-0.8383615612983704
1757768754370099000,31.705098876953127,1.2667251825332642,1.0731548070907593,-0.8283543586730957
1757768754380055800,31.715055908203126,1.2172784805297852,1.0175764560699463,-0.8082363605499268
1757768754390012700,31.7250126953125,1.1641416549682615,0.9786595106124878,-0.773183286190033
1757768754399969800,31.7349697265625,1.103218913078308,0.9283952713012696,-0.7420192360877991
1757768754409927000,31.74492700195313,1.029612421989441,0.875517725944519,-0.712048351764679
1757768754419883800,31.7548837890625,0.9398611783981324,0.8570724129676819,-0.6727949380874634
1757768754429840000,31.76483984375,0.8484627604484558,0.8628709316253662,-0.6244082450866699
1757768754439797000,31.774796875,0.753996729850769,0.8548985123634338,-0.5669901967048645
1757768754449753900,31.78475390625,0.6538845300674438,0.8141157031059265,-0.5003030300140381
1757768754459710700,31.794710693359374,0.5411499738693237,0.7225961685180664,-0.4266642034053802
1757768754469667800,31.804667724609374,0.4237646758556366,0.5927191972732544,-0.3429909348487854
1757768754479624700,31.814624755859374,0.2934085428714752,0.416311115026474,-0.2499195784330368
1757768754489580800,31.824580810546877,0.1380841434001922,0.2001034766435623,-0.1507522463798523
1757768754499538000,31.83453784179688,-0.0466705150902271,-0.0291430279612541,-0.0425514727830886
1757768754509494800,31.84449487304688,-0.2533091604709625,-0.2590738832950592,0.062534250319004
1757768754519452000,31.85445190429688,-0.4615739583969116,-0.427947074174881,0.1631833612918853
1757768754529409000,31.86440893554688,-0.6094450354576111,-0.487883061170578,0.2607982754707336
1757768754539366000,31.87436596679688,-0.6654279232025146,-0.4319905042648315,0.3677516281604767
1757768754549322000,31.884322021484376,-0.6726639270782471,-0.2918980717658996,0.4707070589065552
1757768754559278800,31.89427880859375,-0.6711435317993164,-0.1070835068821907,0.5537092685699463
1757768754569235700,31.904235595703124,-0.6655716896057129,0.042883601039648,0.6143398284912109
1757768754579192800,31.91419287109375,-0.6670013070106506,0.1088413149118423,0.6584535241127014
1757768754589149700,31.924149658203124,-0.7263773679733276,0.0824980586767196,0.6893161535263062
1757768754599106800,31.93410693359375,-0.8321245312690735,-0.052317276597023,0.7138369083404541
1757768754609064000,31.94406396484375,-0.9436649680137634,-0.3174712359905243,0.7331836819648743
1757768754619019800,31.954019775390623,-1.0480427742004397,-0.6874040365219116,0.7461564540863037
1757768754628977000,31.963976806640623,-1.1510943174362185,-1.1118866205215454,0.741205632686615
1757768754638934000,31.97393408203125,-1.256857991218567,-1.5504144430160522,0.7169226408004761
1757768754648890600,31.983890625,-1.362232327461243,-1.9650499820709229,0.6870105862617493
1757768754658847700,31.99384765625,-1.4680602550506592,-2.328247308731079,0.6543498039245605
1757768754668804900,32.00380493164062,-1.562403917312622,-2.638212919235229,0.6194555759429932
1757768754678760700,32.0137607421875,-1.6535418033599854,-2.901867389678955,0.5750542879104614
1757768754688717800,32.0237177734375,-1.740020751953125,-3.1092631816864014,0.5179376602172852
1757768754698675000,32.03367504882812,-1.817803740501404,-3.2556772232055664,0.4626922309398651
1757768754708631800,32.0436318359375,-1.882038116455078,-3.3452036380767822,0.4129411876201629
1757768754718589000,32.0535888671875,-1.935874104499817,-3.3513054847717285,0.3791547119617462
1757768754728545800,32.0635458984375,-1.999036192893982,-3.2969348430633545,0.361503541469574
1757768754738502000,32.073501953125,-2.048584222793579,-3.1639130115509038,0.3582965731620788
1757768754748458800,32.08345874023438,-2.0724432468414307,-2.985166549682617,0.3795714676380157
1757768754758416000,32.09341577148437,-2.065549850463867,-2.7982306480407715,0.4071101546287536
1757768754768372700,32.10337280273438,-2.026967287063598,-2.574223041534424,0.4450524747371673
1757768754778329900,32.11332983398437,-1.9726039171218872,-2.33659291267395,0.4712236225605011
1757768754788287000,32.12328686523438,-1.9135687351226809,-2.1090080738067627,0.4661886692047119
1757768754798242800,32.13324291992188,-1.8536635637283323,-1.9269444942474363,0.4373929798603058
1757768754808200000,32.14319995117187,-1.7917855978012085,-1.7844793796539309,0.3858347833156585
1757768754818156800,32.15315673828125,-1.7272676229476929,-1.668919801712036,0.3257077932357788
1757768754828114000,32.16311401367187,-1.6615254878997805,-1.5574413537979126,0.2572340965270996
1757768754838070800,32.17307080078125,-1.616407036781311,-1.5313565731048584,0.1860885471105575
1757768754848028000,32.18302783203125,-1.5867117643356323,-1.4602769613265991,0.1197816804051399
1757768754857983700,32.19298364257813,-1.564690113067627,-1.3887784481048584,0.0643144249916076
1757768754867940900,32.20294091796875,-1.5426864624023438,-1.3102302551269531,0.0184671953320503
1757768754877897700,32.21289770507813,-1.513537883758545,-1.2033897638320925,-0.0131913982331752
1757768754887854800,32.222854736328124,-1.4742521047592163,-1.0685979127883911,-0.0371261201798915
1757768754897812000,32.23281201171875,-1.4295886754989624,-0.9067493081092834,-0.0543367974460125
1757768754907768800,32.24276879882812,-1.3779698610305786,-0.7150517702102661,-0.0654677748680114
1757768754917725000,32.25272485351562,-1.3130600452423096,-0.5436406135559082,-0.0760506391525268
1757768754927682000,32.26268212890625,-1.224910855293274,-0.3944951295852661,-0.0862172320485115
1757768754937638700,32.272638671875,-1.1192706823349,-0.2557249963283539,-0.0989487394690513
1757768754947595800,32.282595703125,-1.0046625137329102,-0.1447996199131012,-0.1124464496970176
1757768754957553000,32.29255297851562,-0.8882632851600647,-0.0647902712225914,-0.1270520389080047
1757768754967509800,32.302509765625,-0.7885918021202087,-0.0190414655953645,-0.1371600478887558
1757768754977465900,32.3124658203125,-0.7073121070861816,0.006191985681653,-0.1341322958469391
1757768754987423000,32.32242309570312,-0.6472699642181396,0.0280907861888408,-0.1198582798242569
1757768754997379800,32.3323798828125,-0.6117982864379883,0.0274742655456066,-0.0965052843093872
1757768755007337000,32.3423369140625,-0.5949283242225647,0.0227160323411226,-0.0642041340470314
1757768755017293800,32.3522939453125,-0.5770949721336365,0.0304613020271062,-0.0240007881075143
1757768755027250700,32.36225073242188,-0.5158389210700989,0.0609072856605052,0.0193747095763683
1757768755037206800,32.37220678710938,-0.3858705163002014,0.141736090183258,0.0624662525951862
1757768755047163600,32.38216357421875,-0.1963655799627304,0.2782609164714813,0.0952353850007057
1757768755057120800,32.39212084960938,0.0330444499850273,0.4614640176296234,0.1182512193918228
1757768755067078000,32.40207788085937,0.2799509167671203,0.6609882712364197,0.1215694993734359
1757768755077034800,32.41203466796875,0.5225156545639038,0.8632920980453491,0.0999262556433677
1757768755086992000,32.42199194335937,0.7274125814437866,1.064198017120361,0.0707052275538444
1757768755096948000,32.43194799804687,0.8782627582550049,1.2594215869903564,0.042913544923067
1757768755106904800,32.44190478515625,0.99106627702713,1.4348459243774414,-0.0005111392238177
1757768755116861700,32.45186181640625,1.1171789169311523,1.5725257396697998,-0.0742910802364349
1757768755126818800,32.46181884765625,1.2684688568115234,1.6945573091506958,-0.1494438797235489
1757768755136775700,32.47177563476563,1.4036455154418943,1.841970682144165,-0.1755037009716034
1757768755146732800,32.48173291015625,1.5011590719223022,2.00825572013855,-0.1520852148532867
1757768755156689000,32.49168896484375,1.6215890645980835,2.167649507522583,-0.1313258707523346
1757768755166645800,32.50164575195313,1.8224129676818848,2.2630202770233154,-0.1405430734157562
1757768755176603000,32.511602783203124,2.045431613922119,2.2410309314727783,-0.1410253793001175
1757768755186560000,32.52156005859375,2.196159601211548,2.0884108543396,-0.1127910539507865
1757768755196516900,32.53151684570312,2.2249598503112797,1.8415900468826292,-0.0626970008015632
1757768755206473700,32.5414736328125,2.135801076889038,1.5297001600265503,-0.0083357580006122
1757768755216429800,32.55142993164063,1.962032675743103,1.2192964553833008,0.0342487208545208
1757768755226386700,32.56138671875,1.7708003520965576,0.9387087225914,0.0327829159796237
1757768755236343800,32.57134375,1.5947190523147583,0.7302729487419128,-0.0208579413592815
1757768755246301000,32.58130102539062,1.4504289627075195,0.5353308320045471,-0.1140851154923439
1757768755256257800,32.5912578125,1.336103916168213,0.423247754573822,-0.2101578563451767
1757768755266215000,32.60121484375,1.2718981504440308,0.4040925502777099,-0.2739328145980835
1757768755276170800,32.61117065429688,1.2670294046401978,0.49606454372406,-0.2987191081047058
1757768755286127900,32.6211279296875,1.2957886457443235,0.6654032468795776,-0.2971387803554535
1757768755296085000,32.6310849609375,1.3245960474014282,0.8640777468681335,-0.2867330312728882
1757768755306041600,32.64104150390625,1.335127592086792,1.0794702768325806,-0.2754550874233246
1757768755315998700,32.65099877929688,1.335666298866272,1.2965210676193235,-0.2764548659324646
1757768755325955800,32.660955810546874,1.328712821006775,1.486080527305603,-0.2945693731307983
1757768755335911700,32.67091162109375,1.3076016902923584,1.61461341381073,-0.3227421641349792
1757768755345868800,32.68086889648438,1.265437126159668,1.6708762645721436,-0.3624738752841949
1757768755355826000,32.69082592773437,1.2075743675231934,1.6532765626907349,-0.4022993445396423
1757768755365782800,32.70078271484375,1.1376497745513916,1.592600703239441,-0.4403233826160431
1757768755375740000,32.71073999023437,1.0553991794586182,1.5007461309432983,-0.465991735458374
1757768755385696800,32.72069677734375,0.9673355221748352,1.3835170269012451,-0.4799677729606628
1757768755395652900,32.73065283203125,0.8809447288513184,1.2632628679275513,-0.4816205203533172
1757768755405609700,32.74060961914063,0.8037289977073669,1.1279563903808594,-0.4767579138278961
1757768755415566800,32.75056689453125,0.734390139579773,0.978329300880432,-0.4642008543014526
1757768755425523700,32.76052368164063,0.6719978451728821,0.841526985168457,-0.439858615398407
1757768755435480800,32.770480712890624,0.6275600790977478,0.7323741316795349,-0.4095427691936493
1757768755445438000,32.78043798828125,0.5942392945289612,0.6246559619903564,-0.3835218846797943
1757768755455393800,32.79039379882813,0.5591973662376404,0.5184783935546875,-0.3613696992397308
1757768755465351000,32.80035083007812,0.5129307508468628,0.4228861629962921,-0.341896653175354
1757768755475308000,32.81030810546875,0.4614965915679931,0.3296568691730499,-0.324786365032196
1757768755485265000,32.82026489257812,0.4062809944152832,0.2472944259643554,-0.3109562993049621
1757768755495221800,32.8302216796875,0.3557656109333038,0.1573360413312912,-0.2955203652381897
1757768755505179000,32.84017895507812,0.3076801896095276,0.0921337753534317,-0.2723167836666107
1757768755515134700,32.850134765625,0.2528139948844909,0.0646462216973304,-0.2402315586805343
1757768755525091800,32.860091796875,0.1901235729455948,0.0635046884417533,-0.2035145312547683
1757768755535048700,32.87004858398438,0.1215303912758827,0.0817526653409004,-0.1665804833173751
1757768755545005800,32.880005859375,0.065911091864109,0.1114864647388458,-0.1349760144948959
1757768755554963000,32.889962890625,0.0269418582320213,0.133100152015686,-0.1092086061835289
1757768755564919800,32.899919921875,0.0029045948758721,0.1455026865005493,-0.0818645432591438
1757768755574876000,32.9098759765625,-0.0328435488045215,0.1390788704156875,-0.0418353639543056
1757768755584833000,32.9198330078125,-0.0925969555974006,0.1159239709377288,0.0152885634452104
1757768755594789600,32.92978955078125,-0.1783651113510131,0.0735051408410072,0.0880434587597847
1757768755604746800,32.93974682617188,-0.2739145755767822,0.0254761464893817,0.1583597213029861
1757768755614703900,32.94970385742187,-0.3653994798660278,0.0017090332694351,0.2196798026561737
1757768755624660700,32.95966064453125,-0.4316717982292175,0.0142841450870037,0.2867156267166137
1757768755634616800,32.96961694335938,-0.4713603556156158,0.0619914829730987,0.3531758785247803
1757768755644574000,32.97957397460937,-0.4716505110263824,0.1300563961267471,0.4063040614128113
1757768755654530800,32.98953076171875,-0.4426116645336151,0.1819624751806259,0.4437086880207062
1757768755664488000,32.99948803710937,-0.4110086262226105,0.1844686269760131,0.4626075029373169
1757768755674444800,33.00944482421875,-0.398002028465271,0.1323063522577285,0.4539562165737152
1757768755684401700,33.01940161132813,-0.4133456349372864,0.0264532975852489,0.4160341918468475
1757768755694357800,33.02935766601563,-0.4454215466976166,-0.1356445252895355,0.3560110628604889
1757768755704315000,33.03931494140625,-0.4884757697582245,-0.3443833589553833,0.3012842237949371
1757768755714271700,33.04927172851563,-0.5365288257598877,-0.6039174795150757,0.2628984749317169
1757768755724228900,33.059228759765624,-0.586764931678772,-0.8954121470451355,0.2403432875871658
1757768755734186000,33.06918603515625,-0.6380425095558167,-1.1909735202789309,0.2336148172616958
1757768755744142800,33.079142822265624,-0.6987892985343933,-1.467890381813049,0.2442850768566131
1757768755754099000,33.08909887695312,-0.7747719883918762,-1.7086185216903689,0.2666162252426147
1757768755764055800,33.09905590820313,-0.861838698387146,-1.918737769126892,0.2840694785118103
1757768755774013000,33.10901293945312,-0.9360301494598388,-2.084526300430298,0.2879374623298645
1757768755783969800,33.1189697265625,-0.971250295639038,-2.1809186935424805,0.2779703140258789
1757768755793926700,33.1289267578125,-0.9525293707847596,-2.208136558532715,0.2500718235969543
1757768755803883800,33.1388837890625,-0.8797442317008972,-2.185320377349853,0.2159165441989898
1757768755813840000,33.14883984375,-0.7906636595726013,-2.097064733505249,0.1949159204959869
1757768755823796700,33.15879663085938,-0.7117422819137573,-1.9619295597076416,0.1807250082492828
1757768755833753900,33.16875390625,-0.6375218629837036,-1.8110332489013672,0.1679162681102752
1757768755843711000,33.1787109375,-0.5582666993141174,-1.6600443124771118,0.1623230874538421
1757768755853667800,33.188667724609374,-0.4794171452522278,-1.5257503986358645,0.1520286351442337
1757768755863624700,33.19862475585938,-0.4072274565696716,-1.3994977474212646,0.1385761797428131
1757768755873581800,33.208581787109374,-0.3458565175533294,-1.3023459911346436,0.1180440038442611
1757768755883537700,33.21853759765625,-0.2974130809307098,-1.2385578155517578,0.0979499965906143
1757768755893494800,33.22849487304688,-0.2625035941600799,-1.208961009979248,0.0739298835396766
1757768755903452000,33.23845190429687,-0.2442277669906616,-1.2139240503311155,0.052911352366209
1757768755913408800,33.24840869140625,-0.23517806828022,-1.2438193559646606,0.0318854302167892
1757768755923366000,33.25836596679687,-0.2486335784196853,-1.2673975229263306,0.0182633735239505
1757768755933323000,33.26832299804688,-0.2720464766025543,-1.278059720993042,0.0058338679373264
1757768755943278800,33.27827880859375,-0.3064353466033935,-1.262940764427185,-0.0002325725508853
1757768755953236000,33.28823608398437,-0.3518702089786529,-1.2156260013580322,-0.0018357953522354
1757768755963192800,33.29819287109375,-0.4055873155593872,-1.1524137258529663,0.0018040133873
1757768755973149700,33.30814965820313,-0.4550060033798218,-1.0760875940322876,0.0008495365036651
1757768755983106800,33.31810693359375,-0.4908532202243805,-1.0002844333648682,-0.0069274525158107
1757768755993064000,33.32806396484375,-0.5058633089065552,-0.9194450378417968,-0.0125611033290624
1757768756003019800,33.33801977539063,-0.4932157099246979,-0.8359264135360718,-0.0186914075165987
1757768756012977000,33.347976806640624,-0.452591061592102,-0.7636325359344482,-0.0192701127380132
1757768756022933800,33.35793383789063,-0.4085460007190704,-0.6961709260940552,-0.0209981799125671
1757768756032891000,33.36789086914062,-0.3797191381454468,-0.618621289730072,-0.0145101882517337
1757768756042847700,33.37784765625,-0.3744645714759826,-0.5262052416801453,-0.0080685690045356
1757768756052804900,33.38780493164062,-0.3800185918807983,-0.4556155204772949,-0.0044764964841306
1757768756062760700,33.3977607421875,-0.3873300850391388,-0.3902725279331207,0.0011238121660426
1757768756072717800,33.4077177734375,-0.4003646671772003,-0.3133886754512787,0.0116534186527132
1757768756082674700,33.4176748046875,-0.420271098613739,-0.2257994562387466,0.0204917099326849
1757768756092631800,33.4276318359375,-0.4387747347354889,-0.1285988688468933,0.0263373497873544
1757768756102589000,33.4375888671875,-0.4323441684246063,-0.0132324816659092,0.0263637024909257
1757768756112545800,33.4475458984375,-0.3898006975650787,0.1222611665725708,0.0355835668742656
1757768756122502000,33.457501953125,-0.3193655014038086,0.2600772380828857,0.0494780912995338
1757768756132459000,33.467458984375,-0.2468811869621276,0.4012404680252075,0.0619334317743778
1757768756142416000,33.477415771484374,-0.1803483664989471,0.5651581883430481,0.071902722120285
1757768756152372700,33.48737280273438,-0.0879657045006752,0.7567347884178162,0.0804450809955596
1757768756162329900,33.497329833984374,0.03544757142663,0.9522345066070556,0.0821529626846313
1757768756172286700,33.50728662109375,0.1635714471340179,1.111647367477417,0.0747701451182365
1757768756182243800,33.51724389648437,0.2522860467433929,1.225184440612793,0.0864984542131424
1757768756192200000,33.52719995117187,0.2854748964309692,1.298847794532776,0.1150350272655487
1757768756202156800,33.53715673828125,0.2898163199424743,1.3355836868286133,0.1419305503368377
1757768756212114000,33.54711401367187,0.2954329252243042,1.3524630069732666,0.1619093120098114
1757768756222071000,33.55707104492188,0.2941110730171203,1.3637142181396484,0.1899111419916153
1757768756232027600,33.56702758789063,0.289909690618515,1.3757240772247314,0.2220232635736465
1757768756241984800,33.57698486328125,0.3260653614997864,1.3710098266601562,0.2242659032344818
1757768756251940600,33.586940673828124,0.4442985355854034,1.330233097076416,0.1913271248340606
1757768756261897700,33.59689770507813,0.6189154982566833,1.2163965702056885,0.1443284004926681
1757768756271854800,33.606854736328124,0.7692304253578186,1.0405027866363523,0.1011636108160018
1757768756281811700,33.61681176757813,0.8456822633743286,0.8862454891204834,0.0680163577198982
1757768756291768800,33.626768798828124,0.8310428261756897,0.8084353804588318,0.0316737964749336
1757768756301726000,33.63672583007813,0.7262483239173889,0.8082361817359924,-0.0221888683736324
1757768756311681800,33.64668188476563,0.5629925727844238,0.8418865203857422,-0.1080012395977974
1757768756321639000,33.65663891601562,0.4089274406433105,0.9027130603790284,-0.2252817898988723
1757768756331595800,33.666595703125,0.3146619200706482,1.011736273765564,-0.3364402651786804
1757768756341552600,33.676552734375,0.2992215752601623,1.1946755647659302,-0.4056572020053863
1757768756351509800,33.686509765625,0.35101979970932,1.4245904684066772,-0.4211304187774658
1757768756361467000,33.696466796875,0.443593293428421,1.6489076614379885,-0.397132933139801
1757768756371423700,33.706423828125,0.557567298412323,1.8316521644592283,-0.3591991364955902
1757768756381379800,33.7163798828125,0.672925591468811,1.9410741329193115,-0.3291094303131103
1757768756391337000,33.7263369140625,0.7730036973953247,1.9791251420974727,-0.3074653744697571
1757768756401293800,33.7362939453125,0.8506560325622559,1.95970618724823,-0.2996662259101867
1757768756411251000,33.7462509765625,0.9058327674865724,1.8869259357452397,-0.3113830685615539
1757768756421207800,33.756207763671874,0.9303957223892212,1.7719389200210571,-0.3359359204769134
1757768756431164700,33.76616455078125,0.933560073375702,1.6217819452285769,-0.3705202639102936
1757768756441121800,33.776121826171874,0.9212876558303832,1.4521657228469849,-0.4148563146591186
1757768756451078000,33.786077880859374,0.9079779982566832,1.2757960557937622,-0.4579704999923706
1757768756461034800,33.79603466796875,0.8958290219306946,1.103897213935852,-0.4930671751499176
1757768756470992000,33.80599194335937,0.8840349316596985,0.94685298204422,-0.5200982689857483
1757768756480949000,33.81594897460938,0.8701791167259216,0.8063077330589294,-0.5378605127334595
1757768756490905900,33.82590576171875,0.8524813055992126,0.6971330046653748,-0.5456427931785583
1757768756500862700,33.83586279296875,0.8312681913375854,0.6115603446960449,-0.5524237155914307
1757768756510818800,33.84581884765625,0.8031409978866577,0.5422276258468628,-0.5585628747940063
1757768756520775700,33.85577563476563,0.7637706995010376,0.4980055093765259,-0.5583439469337463
1757768756530732800,33.86573291015625,0.7164929509162903,0.4669168293476105,-0.5543175339698792
1757768756540690000,33.87568994140625,0.6686066389083862,0.4648358523845672,-0.5410571098327637
1757768756550646800,33.885646728515624,0.6256711483001709,0.4687901139259338,-0.5198377966880798
1757768756560604000,33.89560400390625,0.5904749035835266,0.4987205266952514,-0.4979543685913086
1757768756570559700,33.90555981445313,0.5642209053039551,0.546728253364563,-0.4697751998901367
1757768756580516900,33.915516845703124,0.5439031720161438,0.5996477007865906,-0.4339295029640198
1757768756590474000,33.92547387695313,0.5383297204971313,0.6510304808616638,-0.4017587900161743
1757768756600430800,33.935430908203124,0.5431445837020874,0.6891911625862122,-0.3701252937316894
1757768756610387700,33.9453876953125,0.5541692972183228,0.7180539965629578,-0.3330777883529663
1757768756620344800,33.9553447265625,0.5592138767242432,0.7289926409721375,-0.2952651679515838
1757768756630301700,33.9653017578125,0.5614171028137207,0.7223544716835022,-0.2668689489364624
1757768756640257800,33.9752578125,0.5621321797370911,0.7076274156570435,-0.2388431876897812
1757768756650215000,33.98521484375,0.5562458038330078,0.6798133850097656,-0.20939901471138
1757768756660171800,33.995171875,0.5354601740837097,0.6402826309204102,-0.1685663312673568
1757768756670129000,34.00512890625,0.4985104203224182,0.5952057242393494,-0.1103280633687973
1757768756680086000,34.0150859375,0.4432885944843292,0.558366060256958,-0.0379023402929306
1757768756690042600,34.02504272460938,0.3713352978229522,0.5213358998298645,0.0364278145134449
1757768756699999700,34.034999755859374,0.2894372344017029,0.4934310913085937,0.1103505566716194
1757768756709955800,34.044955810546874,0.204448327422142,0.4759301245212555,0.1763993501663208
1757768756719912700,34.05491259765625,0.1284540891647339,0.4756896793842315,0.2260438203811645
1757768756729869800,34.064869873046874,0.0681452080607414,0.5085709095001221,0.2628441751003265
1757768756739827000,34.07482690429688,0.0212689600884914,0.5063222050666809,0.2713316679000854
1757768756749783800,34.08478369140625,-0.022477189078927,0.4947116374969482,0.2623426914215088
1757768756759741000,34.09474096679688,-0.068730816245079,0.4697899520397186,0.2500330507755279
1757768756769696800,34.10469677734375,-0.1210576668381691,0.4147799611091614,0.2436196357011795
1757768756779654000,34.11465380859375,-0.176417663693428,0.3238701522350311,0.2465539276599884
1757768756789610800,34.12461083984375,-0.228366881608963,0.1850712299346923,0.2597839534282684
1757768756799568000,34.13456787109375,-0.2809230089187622,0.0038087056018412,0.2737519741058349
1757768756809524700,34.144524658203125,-0.332977145910263,-0.2029745578765869,0.2795509994029999
1757768756819481900,34.15448193359375,-0.3755123913288116,-0.4323011040687561,0.2786703407764435
1757768756829439000,34.16443896484375,-0.4231664538383484,-0.6744466423988342,0.2725493311882019
1757768756839394800,34.174394775390624,-0.4815055131912231,-0.915887713432312,0.2694160938262939
1757768756849352000,34.18435205078125,-0.5480000972747803,-1.1530121564865112,0.2682823836803436
1757768756859308800,34.194308837890624,-0.6118198037147522,-1.3544580936431885,0.2551804482936859
1757768756869266000,34.20426586914063,-0.6553366780281067,-1.506615161895752,0.2245106995105743
1757768756879222800,34.214222900390624,-0.677150547504425,-1.5858025550842283,0.1852039843797683
1757768756889180000,34.22417993164063,-0.6748951077461243,-1.6036279201507568,0.1508737057447433
1757768756899135700,34.2341357421875,-0.6621804237365723,-1.5713205337524414,0.1240541338920593
1757768756909092900,34.2440927734375,-0.6514276266098022,-1.5186740159988403,0.1107902601361274
1757768756919049500,34.254049560546875,-0.6466258764266968,-1.4635059833526611,0.1067840233445167
1757768756929006600,34.26400659179688,-0.6330780982971191,-1.405936598777771,0.1020366698503494
1757768756938963700,34.273963623046875,-0.6179689764976501,-1.350117564201355,0.0967556461691856
1757768756948920600,34.28392065429688,-0.6060073971748352,-1.3096964359283447,0.0874098166823387
1757768756958877400,34.29387744140625,-0.603104829788208,-1.3005497455596924,0.0812997221946716
1757768756968833800,34.303833740234374,-0.6133374571800232,-1.322554111480713,0.0729552432894706
1757768756978790400,34.313790283203126,-0.6373389959335327,-1.3707666397094729,0.0608314871788024
1757768756988747500,34.32374755859375,-0.6773101091384888,-1.4326974153518677,0.0405121035873889
1757768756998704600,34.33370458984375,-0.727637529373169,-1.509091854095459,0.0137214884161949
1757768757008661500,34.34366162109375,-0.7867259383201599,-1.5815269947052002,-0.0163831487298011
1757768757018618600,34.35361865234375,-0.8509352207183838,-1.6343539953231812,-0.0531547404825687
1757768757028575700,34.36357568359375,-0.9183459281921388,-1.6643341779708862,-0.0888072773814201
1757768757038531600,34.37353149414062,-0.9820356965065002,-1.6599009037017822,-0.1207993030548095
1757768757048488700,34.38348876953125,-1.0485678911209106,-1.6276936531066897,-0.1438758820295334
1757768757058445600,34.39344555664063,-1.1071711778640747,-1.581348180770874,-0.1645300239324569
1757768757068402400,34.40340234375,-1.1560231447219849,-1.5230145454406738,-0.1802898049354553
1757768757078359600,34.41335961914063,-1.1933159828186035,-1.441511631011963,-0.1929675638675689
1757768757088316700,34.423316650390625,-1.2299517393112185,-1.3257421255111694,-0.1960791945457458
1757768757098273500,34.4332734375,-1.2587329149246216,-1.196293830871582,-0.1865629404783249
1757768757108229600,34.44322973632813,-1.275286078453064,-1.0661683082580566,-0.1759252101182937
1757768757118186500,34.4531865234375,-1.275702953338623,-0.917945921421051,-0.1686243563890457
1757768757128143600,34.4631435546875,-1.2699975967407229,-0.7863346338272095,-0.1595847904682159
1757768757138100700,34.473100830078124,-1.2637572288513184,-0.6685599088668823,-0.1426076591014862
1757768757148057300,34.48305737304688,-1.2692571878433228,-0.5439695119857788,-0.1145573854446411
1757768757158014500,34.49301440429687,-1.2925902605056765,-0.4198832809925079,-0.0794846788048744
1757768757167970600,34.50297045898437,-1.347690463066101,-0.3080060184001922,-0.0397692210972309
1757768757177927400,34.512927490234375,-1.4225882291793823,-0.2006131112575531,-0.0040303827263414
1757768757187884500,34.52288452148437,-1.4906833171844482,-0.1029954701662063,0.0243115108460187
1757768757197841700,34.532841552734375,-1.4968165159225464,-0.0077439495362341,0.0423560105264186
1757768757207798500,34.54279858398438,-1.3971258401870728,0.0993710532784462,0.0574497431516647
1757768757217755600,34.552755615234375,-1.2061594724655151,0.19607774913311,0.0686547458171844
1757768757227712500,34.56271240234375,-0.9989618062973022,0.2645944654941559,0.082846999168396
1757768757237668600,34.57266870117188,-0.8009708523750305,0.3220081031322479,0.1108903363347053
1757768757247625500,34.58262548828125,-0.5832605957984924,0.3629014492034912,0.1536931991577148
1757768757257582600,34.59258251953125,-0.3398476243019104,0.3764746487140655,0.1902266591787338
1757768757267539500,34.60253955078125,-0.1094248071312904,0.3769454956054687,0.2183123677968979
1757768757277496600,34.61249658203125,0.0603906139731407,0.4216657280921936,0.2427144795656204
1757768757287453700,34.62245361328125,0.1664832234382629,0.5087606906890869,0.2625744640827179
1757768757297410600,34.63241064453125,0.2565265893936157,0.5917219519615173,0.2497645914554596
1757768757307366700,34.64236669921875,0.3703391849994659,0.6593793034553528,0.208135649561882
1757768757317323800,34.65232373046875,0.4921905994415283,0.7168367505073547,0.1649440377950668
1757768757327280600,34.66228076171875,0.5829823017120361,0.7991191148757935,0.1429255455732345
1757768757337237500,34.67223754882812,0.674796462059021,0.8820931911468506,0.1311133205890655
1757768757347194600,34.682194580078125,0.8147226572036743,0.9268311262130736,0.112350545823574
1757768757357151500,34.6921513671875,0.9809410572052002,0.9234248995780944,0.0963971614837646
1757768757367107600,34.70210766601563,1.1240286827087402,0.8562847375869751,0.1070175841450691
1757768757377064400,34.712064453125,1.2007406949996948,0.7400804162025452,0.1431524008512497
1757768757387021600,34.722021484375,1.18923020362854,0.6228033304214478,0.1944986879825592
1757768757396978700,34.731978759765624,1.0817017555236816,0.5490949749946594,0.2388627231121063
1757768757406935800,34.74193579101563,0.914000928401947,0.5620959997177124,0.2639236152172088
1757768757416892400,34.75189233398437,0.7528242468833923,0.6423987746238708,0.2455030083656311
1757768757426849500,34.761849609375,0.6481180787086487,0.7548313140869141,0.1907015442848205
1757768757436805400,34.77180541992188,0.615330696105957,0.9020537734031676,0.1143591776490211
1757768757446762500,34.78176245117187,0.6537775993347168,1.086542725563049,0.0373000763356685
1757768757456719600,34.7917197265625,0.7461036443710327,1.2917051315307615,-0.0190343428403139
1757768757466676500,34.80167651367187,0.8568629622459412,1.496335506439209,-0.0453599542379379
1757768757476633600,34.811633544921875,0.9633079171180724,1.6599372625350952,-0.053234439343214
1757768757486590700,34.8215908203125,1.048667550086975,1.7785059213638306,-0.0567881613969802
1757768757496547600,34.831547607421875,1.1079281568527222,1.8477548360824585,-0.0571297854185104
1757768757506503700,34.841503662109375,1.1381752490997314,1.8766469955444336,-0.0628063082695007
1757768757516460500,34.85146044921875,1.1471184492111206,1.870802640914917,-0.0759127438068389
1757768757526417400,34.86141748046875,1.1491740942001345,1.8309926986694336,-0.1051049828529357
1757768757536374500,34.87137451171875,1.1430584192276,1.7657756805419922,-0.1459672302007675
1757768757546331600,34.88133154296875,1.1325095891952517,1.6829068660736084,-0.2007122337818145
1757768757556288500,34.89128857421875,1.11601722240448,1.6048009395599363,-0.2647397220134735
1757768757566244600,34.90124462890625,1.0998220443725586,1.5366029739379885,-0.3377979397773742
1757768757576201700,34.91120166015625,1.0763343572616575,1.4672216176986694,-0.4144437611103058
1757768757586158600,34.92115869140625,1.0505378246307373,1.4061888456344604,-0.4888069331645965
1757768757596115700,34.93111572265625,1.0183779001235962,1.3472115993499756,-0.5495278239250183
1757768757606072600,34.941072509765625,0.9848832488059998,1.3071906566619873,-0.5990327596664429
1757768757616029400,34.95102954101562,0.9519485235214232,1.274871826171875,-0.6411312222480774
1757768757625986600,34.960986572265625,0.9144256711006165,1.2451589107513428,-0.6713818311691284
1757768757635942400,34.9709423828125,0.8676704168319702,1.2096372842788696,-0.6914191246032715
1757768757645899500,34.9808994140625,0.8139405846595764,1.153804063796997,-0.7127925753593445
1757768757655856600,34.990856689453125,0.7682893872261047,1.083891987800598,-0.7320001125335693
1757768757665813800,35.00081372070313,0.7267706990242004,0.993865430355072,-0.7413504719734192
1757768757675770600,35.0107705078125,0.6855863332748413,0.9096626043319702,-0.7487316131591797
1757768757685727500,35.0207275390625,0.6547940373420715,0.8561192154884338,-0.7565887570381165
1757768757695684600,35.0306845703125,0.629436731338501,0.8161343932151794,-0.7566647529602051
1757768757705640400,35.04064038085937,0.6099133491516113,0.7918314337730408,-0.7491897940635681
1757768757715597600,35.05059765625,0.5958132743835449,0.7844113111495972,-0.7336097359657288
1757768757725554400,35.06055444335937,0.5913841724395752,0.7675771713256836,-0.7085350155830383
