time,seconds_elapsed,z,y,x
1759157690395647000,0.04864697265625,4.2509050476074215,7.040149981689453,-5.485265641021728
1759157690405602800,0.058602783203125,4.220827889251709,7.063643085479736,-5.4601265235900875
1759157690415560000,0.068559814453125,4.087500784301757,7.089530390930175,-5.453093556213378
1759157690425515800,0.078515869140625,3.9709330909729004,7.133074933624267,-5.49065259475708
1759157690435472100,0.08847216796875,4.009988505554199,7.133074933624267,-5.552303287506104
1759157690445428000,0.098427978515625,4.057872538757324,7.08668727645874,-5.646874253082275
1759157690455384000,0.108384033203125,4.1094975120544435,7.049726788330077,-5.688024594116211
1759157690465340000,0.11833984375,4.154987343597412,7.050923889160156,-5.628169552612304
1759157690475296000,0.1282958984375,4.119373593902588,7.015459777069092,-5.546617058563232
1759157690485251800,0.138251953125,4.101865994262695,6.925527577209472,-5.414337416839599
1759157690495209000,0.148208984375,4.106355122375488,6.9205895362854,-5.344905568695068
1759157690505164800,0.158164794921875,4.075230500793457,6.951115607452392,-5.364358457183838
1759157690515121000,0.168120849609375,4.085106582641601,6.914604032135009,-5.453542469024658
1759157690525077000,0.178076904296875,4.04141240234375,6.890662015533447,-5.529109458923339
1759157690535033000,0.188033203125,3.956867156219482,6.865373260498046,-5.52207649154663
1759157690544989000,0.197989013671875,3.8893805969238278,6.874950067138672,-5.505765992736816
1759157690554945000,0.207945068359375,3.8634932914733886,6.922235549926757,-5.406855536651611
1759157690564902100,0.217902099609375,3.9755718566894527,7.0190510795593255,-5.385158084106445
1759157690574858000,0.22785791015625,4.045003704833984,7.088931840515136,-5.4518964553833005
1759157690584814000,0.23781396484375,4.0547301490783685,7.1023992248535155,-5.499181938171386
1759157690594770000,0.24777001953125,3.949385276031494,7.068431488800049,-5.530456197357178
1759157690604726000,0.25772607421875,3.9356186164855953,7.048978600311279,-5.531054747772217
1759157690614681900,0.267681884765625,3.9311294883728025,7.078157933044433,-5.5912090644836425
1759157690624638200,0.27763818359375,3.915567177581787,6.9436337272644035,-5.59943913269043
1759157690634594000,0.287593994140625,3.953874404144287,6.912509105682372,-5.572354726409912
1759157690644551000,0.297551025390625,3.9508816520690915,6.904129399871826,-5.56038371810913
1759157690654507000,0.307507080078125,3.958812445068359,6.918644247436523,-5.544222856903076
1759157690664463000,0.317463134765625,3.9463925239562987,6.980893490600586,-5.5832782714843745
1759157690674419000,0.3274189453125,3.8599019889831543,7.019200717163086,-5.611410140991211
1759157690684375000,0.337375,3.8456864166259765,6.963535528564453,-5.645976427459717
1759157690694331000,0.347330810546875,3.9106291366577146,6.915501857757568,-5.585373197937011
1759157690704287000,0.357286865234375,3.91362188873291,6.848164936065674,-5.446359864044189
1759157690714242800,0.367242919921875,3.9981671348571775,6.782174752807617,-5.385756634521484
1759157690724200000,0.377199951171875,4.032583783721924,6.808211695861816,-5.371840337371826
1759157690734155800,0.38715576171875,4.004601551818848,6.881234846496581,-5.355380200958252
1759157690744112000,0.397112060546875,3.9127240631103515,6.853102976989746,-5.419425095367432
1759157690754068000,0.40706787109375,3.9393595565795896,6.8572928298950195,-5.501127227020263
1759157690764024000,0.417024169921875,4.042609503173828,6.990171022033691,-5.569810887145996
1759157690773980000,0.42697998046875,4.014776908874511,7.11811117324829,-5.639093097686767
1759157690783936000,0.43693603515625,3.9565678810119627,7.13726478652954,-5.729923123168945
1759157690793891800,0.446891845703125,3.816507083892822,7.06065033340454,-5.736956090545654
1759157690803849000,0.456848876953125,3.725976333618164,7.053018815612792,-5.639093097686767
1759157690813804800,0.4668046875,3.8148610702514647,7.001842755126953,-5.636698896026611
1759157690823761000,0.476760986328125,3.912275150299072,6.912209830474853,-5.693112272644043
1759157690833717000,0.486717041015625,4.008043216705322,6.88871672668457,-5.8369140098571775
1759157690843673000,0.496673095703125,4.000860611724853,6.949469593811035,-5.888987895965576
1759157690853629000,0.50662890625,3.7199908294677733,7.1866451957702635,-5.957521918487548
1759157690863586300,0.51658642578125,-0.11596914291381835,7.455543969726562,-7.123647764587402
1759157690873542400,0.52654248046875,0.637156916809082,6.800879453277587,-8.585008602905273
1759157690883499300,0.536499267578125,4.6526820137023925,5.773168390655517,-7.0549641044616695
1759157690893455400,0.546455322265625,5.703137992095947,6.376956121826171,-5.423465310668945
1759157690903411200,0.5564111328125,5.626074626159667,6.536020894622802,-5.105934315490722
1759157690913367300,0.5663671875,4.1192239562988275,6.886322525024414,-4.96722025680542
1759157690923323100,0.5763232421875,3.3915362892150878,7.178415127563476,-4.8698061767578125
1759157690933279200,0.586279296875,3.978564608764648,7.374590026092529,-4.722562774658203
1759157690943235000,0.596235107421875,4.53940634765625,7.550863123321533,-4.525490050506591
1759157690953191200,0.606191162109375,4.5702316940307615,7.669675380706787,-4.321234721374512
1759157690963148300,0.616148193359375,4.406228880310058,7.603385922241211,-4.266317720794677
1759157690973104000,0.626104248046875,4.299237993621826,7.101501399230957,-4.958391638183594
1759157690983060500,0.636060546875,4.152892417144775,6.992714861297607,-5.240308883666992
1759157690993016300,0.646016357421875,4.048295732116699,7.102099949645996,-5.24135634689331
1759157691002972400,0.655972412109375,3.8531682968139647,7.134122396850586,-5.41403814163208
1759157691012928300,0.66592822265625,3.845985691833496,7.139060437774658,-5.488108755493164
1759157691022884400,0.67588427734375,3.865588217926025,7.1692872337341305,-5.417779081726074
1759157691032840200,0.685840087890625,3.921851956939697,7.171531797790527,-5.347748683166504
1759157691042796300,0.69579638671875,4.126556198883057,7.237372343444823,-5.279513935852051
1759157691052753200,0.705753173828125,4.177133708953857,7.294384270477295,-5.327996519470214
1759157691062709200,0.715709228515625,4.414907861328125,7.114519870758056,-5.383362432861328
1759157691072665000,0.7256650390625,4.5048400611877435,7.019799267578125,-5.300912113189697
1759157691082621400,0.735621337890625,4.192845657348633,7.059602870178222,-5.269787491607666
1759157691092577300,0.745577392578125,4.068646446228027,7.051672077178955,-5.306598342132568
1759157691102533400,0.755533447265625,4.140622133636475,7.050175701141357,-5.196465065765381
1759157691112489200,0.7654892578125,4.261379679870605,7.078756483459472,-4.996399589538574
1759157691122445300,0.7754453125,4.391863670349121,7.227795536804199,-4.7566801483154295
1759157691132402200,0.785402099609375,4.310311176300049,7.43788673248291,-4.568585680389404
1759157691142358300,0.795358154296875,4.355651370239258,7.4494088279724116,-4.387524179840088
1759157691152314000,0.805314208984375,4.410418733215332,7.331195121002197,-4.109048599243164
1759157691162270200,0.815270263671875,4.51351904220581,7.3371806251525875,-4.169651828765869
1759157691172226300,0.825226318359375,4.67991605758667,7.272836455535888,-4.576366835784912
1759157691182182400,0.835182373046875,4.6987703956604,7.228843000030517,-4.736030158996582
1759157691192138200,0.84513818359375,4.620509928894043,7.2152259780883785,-4.7572786987304685
1759157691202094300,0.85509423828125,4.573673358917236,7.21432815246582,-4.67976641998291
1759157691212051200,0.86505126953125,4.505887524414062,7.256825231933593,-4.4668321098327635
1759157691222007300,0.87500732421875,4.4297219841003415,7.3277534561157225,-4.367921653747558
1759157691231963100,0.884963134765625,4.396502436065673,7.4028715332031245,-4.350114778900147
1759157691241919200,0.894919189453125,4.4306198097229,7.458985634613037,-4.48134695739746
1759157691251875000,0.904875,4.364180713653564,7.454795781707763,-4.55197590637207
1759157691261831200,0.9148310546875,4.345625650787353,7.4393831085205075,-4.5678374923706055
1759157691271787300,0.924787353515625,4.299237993621826,7.400178056335449,-4.555567208862304
1759157691281743400,0.934743408203125,4.304624947357177,7.379228791809082,-4.5787610374450685
1759157691291699200,0.94469921875,4.4391491531372065,7.3563342384338375,-4.6082396453857415
1759157691301656300,0.95465625,4.40548069229126,7.334636785888671,-4.717026183319091
1759157691311612400,0.9646123046875,4.423736479949951,7.292139706420898,-4.733935232543945
1759157691321568300,0.974568359375,4.487482099151611,7.232733577728271,-4.590582408142089
1759157691331524400,0.9845244140625,4.381239400482177,7.165695931243896,-4.565443290710449
1759157691341480200,0.994480224609375,4.313752841186523,7.1309800071716305,-4.658667517852783
1759157691351436300,1.004436279296875,4.379144474029541,7.109581829833984,-4.760271450805663
1759157691361392400,1.014392333984375,4.289511549377441,7.144746666717529,-4.7746366607666015
1759157691371348500,1.024348388671875,4.130297138977051,7.208193010711669,-4.935646722412109
1759157691381304300,1.03430419921875,4.121618157958984,7.322366502380371,-5.1425955284118645
1759157691391261400,1.044261474609375,4.231003246307373,7.332541859436034,-5.144391179656982
1759157691401217300,1.05421728515625,4.151695316314697,7.267898414611816,-4.968118082427978
1759157691411173400,1.06417333984375,4.049941745758057,7.242460021972656,-4.837783729553222
1759157691421129200,1.074129150390625,4.085405857849121,7.192181787109375,-4.774337385559082
1759157691431085300,1.084085205078125,4.2682630096435545,7.1221513885498045,-4.759223987579346
1759157691441041200,1.094041259765625,3.3687913734436035,6.923432650756835,-4.621557392120361
1759157691450997200,1.103997314453125,3.380463106536865,7.200411855316162,-5.046528186798096
1759157691460953300,1.113953369140625,3.9592613578796385,7.016058327484131,-5.025578922271729
1759157691470909400,1.123909423828125,3.608959727478027,6.8405334182739255,-4.47521181564331
1759157691480866300,1.1338662109375,3.6987422897338864,7.089530390930175,-4.3908162071228025
1759157691490822400,1.143822509765625,3.5767876426696774,7.341520115661621,-4.53940634765625
1759157691500778200,1.1537783203125,3.309684519958496,7.369651985168456,-4.654627302551269
1759157691510734300,1.163734375,3.44106633605957,7.266701313781738,-4.815487726593017
1759157691520690200,1.173690185546875,3.6209307357788085,7.212382863616943,-4.8427217704772945
1759157691530646300,1.183646240234375,3.6644752784729,7.199364392089843,-4.792293898010254
1759157691540602000,1.19360205078125,3.6028245857238765,7.289745504760742,-4.740220011901855
1759157691550558200,1.20355810546875,3.582174596405029,7.294982820892334,-4.8123453369140625
1759157691560514300,1.213514404296875,3.4892496444702146,7.3549875,-4.951209033203125
1759157691570471200,1.22347119140625,3.310133432769775,7.65486125793457,-5.179556016540527
1759157691580427300,1.23342724609375,3.2631472251892086,7.813477117919922,-5.468955142211914
1759157691590383400,1.24338330078125,3.321056977844238,7.781305033111572,-5.650914468383789
1759157691600339200,1.253339111328125,3.2715269309997557,7.800009733581542,-5.658545986175537
1759157691610295300,1.26329541015625,3.1815947311401365,7.889941933441162,-5.680093801116943
1759157691620251100,1.273251220703125,2.9978397537231443,7.838616235351562,-5.562179369354248
1759157691630207200,1.283207275390625,2.864811923980713,7.802403935241699,-5.5090580200195305
1759157691640163000,1.2931630859375,2.750937707519531,7.960271607208251,-5.538985540771484
1759157691650119400,1.303119384765625,2.5481787544250487,8.07624075012207,-5.441122547912597
1759157691660075300,1.3130751953125,2.445676995849609,8.0950950881958,-5.332635285186767
1759157691670032400,1.323032470703125,2.4760534294128416,8.21675046005249,-5.272331330871582
1759157691679988500,1.332988525390625,2.466177347564697,8.13370158996582,-5.091718743133544
1759157691689944300,1.3429443359375,2.3485621910095213,8.068309957122802,-4.988169521331787
1759157691699900200,1.352900146484375,2.1951836471557615,7.9943889808654784,-4.854842416381835
1759157691709856300,1.362856201171875,2.1992238624572753,8.060528801727294,-4.851400751495361
1759157691719812000,1.37281201171875,2.2946926536560057,8.074594736480712,-4.798578677368163
1759157691729768200,1.382768310546875,2.2755390403747557,8.171559903717041,-4.630236373138428
1759157691739724000,1.39272412109375,2.0515315475463867,8.34454097366333,-4.493317965698242
1759157691749680400,1.402680419921875,1.7546505416870115,8.49717132949829,-4.463240807342529
1759157691759636200,1.41263623046875,1.5406687683105469,8.683021233367919,-4.479850581359863
1759157691769593300,1.42259326171875,1.4411597618103027,8.884583085632324,-4.529530265808106
1759157691779549400,1.432549560546875,1.4155717315673828,8.998606939697265,-4.643105207061767
1759157691789505300,1.44250537109375,1.4133271675109862,9.176825325775146,-4.70535445022583
1759157691799461400,1.45246142578125,1.4010568840026854,9.16754779434204,-4.6541783897399895
1759157691809417200,1.462417236328125,1.3453916954040526,9.057115242767333,-4.34757093963623
1759157691819373300,1.472373291015625,1.425597451019287,9.018957653808593,-3.948038537597656
1759157691829329200,1.4823291015625,1.534832901763916,9.050082275390624,-3.680636139678955
1759157691839285200,1.49228515625,1.5176245773315429,9.164405404663086,-3.5248633941650387
1759157691849241300,1.502241455078125,1.4106336906433106,9.12924056777954,-3.628711891174316
1759157691859197400,1.512197509765625,1.5873557006835937,9.217975666809082,-3.6979941017150875
1759157691869153500,1.522153564453125,1.7453730102539062,9.32706147994995,-3.72178648071289
1759157691879109600,1.532109619140625,1.549497386932373,9.237428555297852,-3.681234690093994
1759157691889065500,1.5420654296875,1.4776713371276855,9.119065210723877,-3.8322190322875973
1759157691899021600,1.552021484375,1.5240589942932128,9.093626818084717,-4.022408426666259
1759157691908977400,1.561977294921875,1.384746385192871,9.0021982421875,-3.893869725036621
1759157691918933500,1.57193359375,1.5683517250061034,8.9248356010437,-3.6906618591308593
1759157691928889600,1.5818896484375,1.707813971710205,8.783876978302002,-3.6405332618713375
1759157691938845700,1.591845703125,1.6358382843017578,8.678083192443847,-3.566911560821533
1759157691948801500,1.601801513671875,1.6455647285461426,8.698583544158936,-3.426551488494873
1759157691958757600,1.611757568359375,1.8052280517578123,8.825176956939696,-3.334524362182617
1759157691968714800,1.62171484375,1.9972130973815916,8.820388553619384,-3.334673999786377
1759157691978670600,1.631670654296875,2.101061594390869,8.867075485992432,-3.3080385063171387
1759157691988626700,1.641626708984375,2.0126257705688477,8.756642934417725,-3.349787397766113
1759157691998582500,1.65158251953125,1.7950526947021483,8.693795140838622,-3.371784125518799
1759157692008538400,1.661538330078125,1.7196353424072264,8.846425496673584,-3.293822933959961
1759157692018494700,1.67149462890625,1.236605157470703,8.277353689575195,-3.2116718894958494
1759157692028450600,1.681450439453125,0.9377788627624511,8.539369133758544,-2.818124991607666
1759157692038406700,1.69140673828125,1.061080248260498,9.021202217864989,-2.858227869415283
1759157692048362500,1.701362548828125,1.1411363662719727,9.169493083190918,-3.214365366363525
1759157692058318600,1.711318603515625,1.2262801628112792,9.37823754043579,-3.652504270172119
1759157692068274400,1.7212744140625,1.3976152191162108,9.42986251373291,-4.001908074951172
1759157692078231600,1.7312314453125,1.4911387214660643,9.350404946136473,-4.08615404586792
1759157692088187600,1.741187744140625,1.502960092163086,9.196577489471435,-4.039766388702392
1759157692098143500,1.7511435546875,1.4106336906433106,9.04050546875,-3.8139632446289062
1759157692108099600,1.761099609375,1.4170681076049805,8.98873085784912,-3.6420296379089354
1759157692118055700,1.7710556640625,1.4784195251464842,9.019556204223631,-3.5953427055358884
1759157692128011800,1.78101171875,1.4616601135253906,9.093626818084717,-3.5357869392395016
1759157692137967600,1.790967529296875,1.4860510429382323,9.109488404083251,-3.5893572013854977
1759157692147923700,1.800923828125,1.4609119255065917,8.940397911834717,-3.788973764801025
1759157692157879600,1.810879638671875,1.488145969390869,8.718634983062744,-3.8616976402282712
1759157692167835600,1.820835693359375,1.4776713371276855,8.546551738739014,-3.879205239868164
1759157692177792500,1.83079248046875,1.3254898941040039,8.418162674713134,-3.692607147979736
1759157692187748600,1.84074853515625,1.0519523544311522,8.371326104736328,-3.399167807006836
1759157692197704400,1.850704345703125,0.9015665626525878,8.596979611206054,-3.1946132026672363
1759157692207660800,1.860660888671875,0.7679401824951172,8.85510447769165,-3.035099517059326
1759157692217616600,1.87061669921875,0.5840355674743652,9.189694159698485,-2.9507039085388183
1759157692227572700,1.88057275390625,0.30316578521728516,9.400383905792236,-3.067720514678955
1759157692237528600,1.890528564453125,-0.018854338073730468,9.465925176239013,-3.133411422729492
1759157692247484700,1.900484619140625,-0.2539350135803223,9.393500576019287,-3.022230683135986
1759157692257440500,1.9104404296875,-0.4065653694152832,9.304615839385987,-2.836680054473877
1759157692267396600,1.920396728515625,-0.4191349281311035,9.255385067749023,-2.6418518943786617
1759157692277352400,1.9303525390625,-0.38621465530395505,9.39125601196289,-2.4006360771179196
1759157692287309600,1.9403095703125,-0.4569932418823242,9.50587841644287,-2.2713491874694824
1759157692297265400,1.950265380859375,-0.5042787246704101,9.62723451309204,-2.3038205474853513
1759157692307221800,1.9602216796875,-0.5714660087585449,9.73063409729004,-2.372504207611084
1759157692317177600,1.970177490234375,-0.5588964500427246,9.747243871307372,-2.5698762069702146
1759157692327133700,1.9801337890625,-0.5119102424621582,9.751732999420165,-2.7454011161804197
1759157692337089500,1.990089599609375,-0.4670189613342285,9.733926124572754,-2.8158804275512694
1759157692347045600,2.000045654296875,-0.37978023834228514,9.673322895050049,-2.8009166671752928
1759157692357001500,2.01000146484375,-0.2688987739562988,9.667038115692138,-2.7225065628051754
1759157692366957600,2.01995751953125,-0.16564882736206055,9.69846201248169,-2.745700391387939
1759157692376913700,2.02991357421875,-0.12015899581909179,9.747543146514891,-2.775927187347412
1759157692386869800,2.039869873046875,-0.0652419952392578,9.80665,-2.9052140769958497
1759157692396826600,2.04982666015625,-0.006584054565429687,9.83134020462036,-3.1194951255798338
1759157692406782700,2.05978271484375,0.04608838195800781,9.835230782318115,-3.3583167411804196
1759157692416738600,2.069738525390625,0.10998363876342773,9.816825357055663,-3.4491467666625977
1759157692426694700,2.079694580078125,0.18315642700195311,9.75502502670288,-3.5326445495605467
1759157692436650500,2.089650390625,0.143652099609375,9.700556938934326,-3.4871547180175777
1759157692446606600,2.099606689453125,0.01750759963989258,9.57665700302124,-3.3475428337097166
1759157692456562400,2.1095625,-0.11177929000854492,9.469965391540526,-3.16004691619873
1759157692466518500,2.1195185546875,-0.2075473564147949,9.326014016723633,-3.086275577545166
1759157692476474600,2.129474609375,-0.24390929412841794,9.259574920654297,-3.100341512298584
1759157692486430700,2.1394306640625,-0.26650457229614255,9.27648396987915,-3.1563059761047363
1759157692496386600,2.149386474609375,-0.27787703018188475,9.351003496551513,-3.2007483444213864
1759157692506343700,2.15934375,-0.2371756019592285,9.483432775878907,-3.253869693756103
1759157692516299500,2.169299560546875,-0.17507599639892577,9.615712417602538,-3.3261446563720702
1759157692526255600,2.179255615234375,-0.033818098449707026,9.740360541534423,-3.4365772079467773
1759157692536211500,2.18921142578125,0.18555062866210936,9.868001417541503,-3.573944528198242
1759157692546167600,2.19916748046875,0.4469675224304199,9.909750308990478,-3.745878134918213
1759157692556123400,2.209123291015625,0.619948592376709,9.904213717651366,-3.9188592048645017
1759157692566079700,2.219079833984375,0.8149263900756836,9.842563024902343,-3.981258085632324
1759157692576035600,2.22903564453125,0.9925462257385254,9.738564890289306,-3.9764696823120116
1759157692585991700,2.23899169921875,1.1768997535705565,9.573215338134766,-3.8886324089050293
1759157692595947500,2.248947509765625,1.4006079711914061,9.316736485290527,-3.751863639068603
1759157692605903600,2.258903564453125,1.3563152404785155,9.254337604522705,-3.6487633300781246
1759157692615859500,2.268859375,1.280000062561035,9.306561128234863,-3.7192426414489743
1759157692625816600,2.278816650390625,1.3160627250671386,9.33379517211914,-3.8380548988342285
1759157692635772700,2.288772705078125,1.4003086959838866,9.337386474609374,-3.95806425704956
1759157692645728500,2.298728515625,1.5994763465881348,9.271097016143798,-3.9573160690307616
1759157692655684600,2.3086845703125,1.808071166229248,9.050830463409424,-3.9324762268066404
1759157692665640700,2.318640625,1.8059762397766113,8.951920007324219,-3.8700773460388183
1759157692675596800,2.3285966796875,1.7839795120239257,8.888473663330078,-3.790320503234863
1759157692685552600,2.338552734375,1.8905214859008788,8.802880953979491,-3.8242882392883297
1759157692695508700,2.3485087890625,2.0061913536071776,8.7470661277771,-3.896563201904297
1759157692705464600,2.358464599609375,2.1698948921203614,8.79150849609375,-3.984250837707519
1759157692715420400,2.36842041015625,2.0835539947509765,8.87994431991577,-4.0164229225158685
1759157692725376500,2.37837646484375,1.7679682884216308,8.860042518615723,-4.088248972320557
1759157692735333600,2.388333740234375,1.4962263999938965,8.747215765380858,-4.094533751678466
1759157692745289500,2.39828955078125,1.2639888389587401,8.627655319976807,-4.009838867950439
1759157692755245600,2.40824560546875,1.2737152832031249,8.576329621887206,-3.837456348419189
1759157692765201700,2.41820166015625,1.2678794166564942,8.611045545959472,-3.6085108146667477
1759157692775157800,2.42815771484375,1.2484265281677245,8.68287159576416,-3.447650390625
1759157692785113600,2.438113525390625,1.1180921752929687,8.738536784362793,-3.453336619567871
1759157692795069700,2.448069580078125,1.045069024658203,8.698882819366455,-3.553444176483154
1759157692805025500,2.458025634765625,1.0308534523010253,8.680477394104003,-3.602525310516357
1759157692814981600,2.467981689453125,1.0678139404296874,8.71474440536499,-3.5787329315185543
1759157692824937500,2.4779375,1.0730512565612793,8.72716432647705,-3.5175311515808105
1759157692834893800,2.487893798828125,1.1962030044555663,8.840290354919434,-3.5015199279785154
1759157692844849700,2.497849609375,1.4041992736816404,8.98364317932129,-3.5443162826538086
1759157692854806800,2.507806884765625,1.4989198768615721,9.192088361358643,-3.596240531158447
1759157692864762400,2.517762451171875,1.4609119255065917,9.39125601196289,-3.697096276092529
1759157692874718200,2.52771826171875,1.2587515228271484,9.637110594940186,-3.882796542358398
1759157692884674300,2.53767431640625,1.1852794593811034,9.866654679107665,-4.129399313354492
1759157692894630100,2.547630126953125,1.1347019493103028,10.15680199279785,-4.255543813323975
1759157692904586200,2.557586181640625,1.101931314086914,10.38754317779541,-4.287715898132324
1759157692914542000,2.5675419921875,1.0550947441101073,10.509048912048339,-4.352359342956543
1759157692924498400,2.57749853515625,1.120486376953125,10.493037688446044,-4.4458828453063965
1759157692934454300,2.587454345703125,1.1613374427795409,10.475679726409911,-4.479252030944824
1759157692944410400,2.597410400390625,1.168968960571289,10.569951416778563,-4.440196616363525
1759157692954366200,2.6073662109375,1.0954968971252441,10.82852519607544,-4.306121323394775
1759157692964322300,2.617322265625,0.987009634399414,11.251550701904296,-4.121318882751464
1759157692974279200,2.627279052734375,1.0634744499206543,11.817929032135009,-3.9659950500488277
1759157692984235300,2.6372353515625,1.6757915245056152,12.475436663055419,-3.9176621040344237
1759157692994191000,2.647191162109375,2.5918729347229004,13.177985212707519,-4.197783698272705
1759157693004147200,2.657147216796875,3.098994773864746,13.753940349578857,-4.780921440124511
1759157693014103300,2.667103271484375,2.7902923973083493,14.071920257568358,-5.333533110809326
1759157693024059400,2.677059326171875,2.057816326904297,14.141501743316649,-5.6947582862854
1759157693034015200,2.68701513671875,1.3658920471191405,13.936049313354491,-5.870432833099365
1759157693043971300,2.696971435546875,0.748936206817627,13.466785787963866,-5.753565864562988
1759157693053927200,2.70692724609375,0.14814122772216795,12.759149559783936,-5.352686724090576
1759157693063883300,2.71688330078125,-0.45804070510864253,12.224045488739012,-3.946691799163818
1759157693073839000,2.726839111328125,-0.9169792358398436,11.6576671585083,-2.4358009140014647
1759157693083795200,2.736795166015625,-1.2814964385986327,10.973224758911131,-1.5255553703308105
1759157693093751300,2.746751220703125,-1.5242086318969725,10.33546929168701,-0.7704840217590332
1759157693103708200,2.756708251953125,-1.6192285102844237,9.798868844604492,-0.27099370040893556
1759157693113664300,2.766664306640625,-1.6903063720703124,9.418938968658447,-0.018854338073730468
1759157693123620400,2.776620361328125,-1.6674118186950682,9.118167385101318,0.06599018325805664
1759157693133576200,2.786576171875,-1.4496891052246093,8.919448647308348,-0.027832594299316404
1759157693143532300,2.7965322265625,-1.1188403633117676,8.787318643188476,-0.3010708587646484
1759157693153488100,2.806488037109375,-0.7350199096679687,8.788066831207274,-0.6051344696044921
1759157693163444200,2.8164443359375,-0.4034229797363281,8.815600150299073,-0.8792705596923828
1759157693173400000,2.826400146484375,-0.30151977157592774,8.839242891693115,-1.157446865081787
1759157693183356200,2.836356201171875,-0.14499883804321287,8.810213196563721,-1.4918869094848632
1759157693193312300,2.846312255859375,0.052073886108398436,8.73958424758911,-1.8787001152038574
1759157693203268400,2.856268310546875,0.20739771881103514,8.505401397705077,-2.2671593345642087
1759157693213224200,2.86622412109375,0.24331074371337888,8.256703700256347,-2.5321675308227536
1759157693223180300,2.87618017578125,0.3227683113098144,8.001721223449707,-2.687341725921631
1759157693233136000,2.88613623046875,0.47539866714477536,7.6756608848571775,-2.824559408569336
1759157693243093200,2.89609326171875,0.610371785736084,7.370250535583495,-2.893392706298828
1759157693253049000,2.906049072265625,0.587926145172119,7.0950669822692864,-2.8411691825866696
1759157693263005200,2.916005126953125,0.5057751007080078,6.810905172729492,-2.773981898498535
1759157693272961000,2.9259609375,0.5232827003479004,6.623558892822265,-2.6822540473937986
1759157693282917400,2.93591748046875,0.4997895965576172,6.518214019775391,-2.5406968742370606
1759157693292873200,2.945873291015625,0.4643254844665527,6.48589229736328,-2.3919570960998535
1759157693302829300,2.955829345703125,0.49530046844482417,6.5671455162048336,-2.3409306732177733
1759157693312785200,2.96578515625,0.5363011718749999,6.694187841796874,-2.313546991729736
1759157693322741200,2.9757412109375,0.6239888076782226,6.754042883300781,-2.27927998046875
1759157693332697000,2.985697021484375,0.6594529197692871,6.842029794311523,-2.2608745552062985
1759157693342653200,2.995653076171875,0.6881833396911621,6.963834803771972,-2.356642621612549
1759157693352609300,3.005609375,0.7478887435913085,7.108235091400146,-2.535908470916748
1759157693362565400,3.0155654296875,0.9075520668029785,7.342717216491699,-2.736273222351074
1759157693372522200,3.025522216796875,1.1546037506103515,7.56567724609375,-2.903119150543213
1759157693382478300,3.035478271484375,1.34060329208374,7.748833673095703,-3.0442274108886718
1759157693392434200,3.04543408203125,1.4908394462585448,7.939920893096923,-3.1311668586730956
1759157693402390300,3.055390380859375,1.6838719551086425,8.072948722839355,-3.1414918533325196
1759157693412346000,3.06534619140625,1.872564973449707,8.183979824829102,-3.141641490936279
1759157693422302200,3.07530224609375,1.927332336425781,8.311471063232421,-3.1434371421813965
1759157693432258000,3.085258056640625,2.0431518417358396,8.502707920837402,-3.2179566688537595
1759157693442214100,3.095214111328125,2.2349872497558594,8.763675901794434,-3.3131261848449705
1759157693452170200,3.105170166015625,2.3822306518554686,8.994117811584472,-3.4585739356994627
1759157693462126300,3.115126220703125,2.5483283920288082,9.217676391601563,-3.6739024475097652
1759157693472082200,3.125082275390625,2.6249428451538086,9.462932424163817,-3.877259951019287
1759157693482038300,3.135038330078125,2.6048914062499997,9.713276135253906,-3.987093952178955
1759157693491994000,3.144994140625,2.526331664276123,9.920524216461182,-3.957615344238281
1759157693501950200,3.1549501953125,2.412756723022461,9.99160207824707,-3.8070799148559566
1759157693511907300,3.1649072265625,2.3367408203125,10.050858569335936,-3.6061166130065914
1759157693521863200,3.17486328125,2.3561937088012694,10.215609571075438,-3.402160559082031
1759157693531819300,3.1848193359375,2.43250888671875,10.416423235321044,-3.278410260772705
1759157693541775000,3.194775146484375,2.524386375427246,10.595539447021483,-3.2983120620727537
1759157693551731200,3.204731201171875,2.642300807189941,10.781389350891112,-3.45378553237915
1759157693561687300,3.214687255859375,2.6372131286621094,10.960505562591552,-3.656245210266113
1759157693571643100,3.22464306640625,2.3994389762878416,11.347468405914306,-4.005349739837646
1759157693581599200,3.23459912109375,2.062604730224609,11.842319961547851,-4.542099824523926
1759157693591555000,3.24455517578125,2.0034978767395017,12.465111668395995,-5.154267261505127
1759157693601511200,3.25451123046875,2.13862063293457,13.035380576324462,-5.755211878204346
1759157693611467000,3.264467041015625,2.0301333702087403,13.322385500335692,-6.281636968231201
1759157693621423400,3.27442333984375,1.5182231277465819,13.35036773223877,-6.5224038726806635
1759157693631379200,3.284379150390625,1.0556932945251465,13.201179041290283,-6.248567057800293
1759157693641335300,3.294335205078125,0.7249941902160644,12.580631898498535,-5.297171173095703
1759157693651291100,3.304291015625,0.4242226066589355,11.181370665740966,-4.197035510253906
1759157693661248300,3.314248291015625,0.2316390106201172,10.084975942993163,-3.6336499320983884
1759157693671204400,3.324204345703125,0.22774843292236327,9.341426689910888,-3.2686838165283203
1759157693681160200,3.33416015625,-0.06838438491821289,8.776844010925293,-3.003077069854736
1759157693691116300,3.3441162109375,-0.5850830307006836,8.386888415527343,-2.946214780426025
1759157693701072100,3.354072021484375,-0.8084919731140137,8.175600119018554,-3.0885201416015624
1759157693711028200,3.3640283203125,-0.8421604339599609,8.23575443572998,-3.3807623817443844
1759157693720984300,3.373984375,-0.8123825508117676,8.335113804626465,-3.6164416076660153
1759157693730940400,3.3839404296875,-0.709880792236328,8.366986614227294,-3.6463691284179687
1759157693740896300,3.393896240234375,-0.558597174835205,8.378508709716796,-3.488950369262695
1759157693750852000,3.40385205078125,-0.349852717590332,8.251466384124756,-3.2863410537719724
1759157693760808200,3.41380810546875,-0.15906477279663084,8.162731285095214,-3.0635306617736813
1759157693770764000,3.423763916015625,-0.03336918563842773,8.061576264953613,-2.9523499221801757
1759157693780720000,3.43372021484375,0.08155249404907226,7.914183225250244,-2.8809727851867675
1759157693790676200,3.44367626953125,0.21188684692382811,7.788038725280761,-2.7617116149902343
1759157693800632300,3.45363232421875,0.356885684967041,7.608922513580322,-2.745850028991699
1759157693810589400,3.46358935546875,0.5416881256103515,7.421576233673095,-2.919579286956787
1759157693820545300,3.473545166015625,0.6347627151489258,7.282562899780273,-3.201646170043945
1759157693830501400,3.48350146484375,0.7454945419311523,7.15686731262207,-3.5076550697326656
1759157693840457200,3.493457275390625,0.939724151611328,7.072770979309082,-3.6715082458496093
1759157693850413300,3.503413330078125,1.0875661041259765,6.97146632156372,-3.6797383140563964
1759157693860369200,3.513369140625,1.0940005210876464,6.874950067138672,-3.6982933769226074
1759157693870326000,3.523325927734375,1.0326491035461425,6.77993018875122,-3.730914374542236
1759157693880281900,3.53328173828125,1.0244190353393554,6.775889973449707,-3.744980309295654
1759157693890238000,3.543238037109375,1.1516109985351561,6.83739102859497,-3.7638346473693844
1759157693900194000,3.553194091796875,1.2897265068054198,6.925826852416992,-3.711760761260986
1759157693910150100,3.563150146484375,1.2167033561706542,7.059602870178222,-3.615543782043457
1759157693920106000,3.57310595703125,1.176001927947998,7.269694065856934,-3.5727474273681636
1759157693930062000,3.58306201171875,1.2445359504699707,7.473500482177734,-3.5899557518005367
1759157693940018000,3.593017822265625,1.1873743858337402,7.60398447265625,-3.708768009185791
1759157693949974000,3.60297412109375,1.0911574066162109,7.690175732421874,-3.791068691253662
1759157693959929900,3.612929931640625,1.0721534309387206,7.810334728240966,-3.828029179382324
1759157693969887000,3.622886962890625,1.059134959411621,7.983914348602294,-3.8694787956237793
1759157693979842800,3.6328427734375,1.2134113288879393,8.06352155380249,-3.9821559112548828
1759157693989799000,3.642798828125,1.3760674041748047,8.135197966003417,-3.9906852546691893
1759157693999755000,3.652755126953125,1.4621090263366698,8.220790675354003,-4.019714949798583
1759157694009711000,3.662711181640625,1.5634136840820312,8.304587733459472,-4.15004930267334
1759157694019667000,3.6726669921875,1.5688006378173827,8.549694128417968,-4.298489805603027
1759157694029623000,3.682623046875,1.5304934112548827,8.846126221466063,-4.55841032333374
1759157694039579000,3.692578857421875,1.5081974082946776,9.210793061828612,-4.856338792419433
1759157694049535000,3.702534912109375,1.3401543792724608,9.655516020202636,-5.1128176452636716
1759157694059490800,3.71249072265625,1.2125135032653809,10.07450131072998,-5.301211388397216
1759157694069447200,3.722447265625,1.116595799255371,10.416872148132324,-5.295225884246826
1759157694079403000,3.732403076171875,0.866401725769043,10.64881043395996,-4.983979668426513
1759157694089359000,3.742359130859375,0.4373907157897949,10.65554412612915,-4.444386469268799
1759157694099315000,3.75231494140625,0.08753799819946288,10.565013375854491,-3.9567175186157226
1759157694109271000,3.76227099609375,0.011073182678222656,10.522965209197997,-3.451241693115234
1759157694119227000,3.772226806640625,0.31962592163085934,10.690858600616455,-3.092560356903076
1759157694129183000,3.782182861328125,1.0491092399597168,11.01242981109619,-3.2308255027770993
1759157694139139800,3.792139892578125,2.1520880172729493,11.336844136047363,-3.9133226135253905
1759157694149096000,3.802095947265625,2.926612254333496,11.49216796875,-4.906168114471435
1759157694159051800,3.8120517578125,2.8866590141296387,11.284620612335205,-5.700743790435791
1759157694169008000,3.822008056640625,2.0458453186035155,11.109843891143798,-5.760000281524658
1759157694178964000,3.8319638671875,1.3895347885131835,11.152191333007812,-5.2247465728759765
1759157694188920000,3.841920166015625,1.2581529724121092,11.167304730987548,-4.6624084579467775
1759157694198876000,3.8518759765625,1.1815385192871093,11.183016679382323,-4.147355825805664
1759157694208832000,3.86183203125,0.8966285217285156,11.073332315826415,-3.7407904563903807
1759157694218787800,3.871787841796875,0.46896425018310545,10.801740065002441,-3.47308878326416
1759157694228744000,3.881743896484375,-0.01062426986694336,10.512939489746094,-3.304596841430664
1759157694238700000,3.891699951171875,-0.2171241630554199,10.250924045562744,-3.1159038230895995
1759157694248656100,3.90165625,-0.22056582794189453,9.990404977416992,-2.932897033691406
1759157694258612000,3.911612060546875,-0.09217676391601562,9.814131880187988,-2.723105113220215
1759157694268568000,3.921568115234375,0.12988544006347655,9.703100778198241,-2.6089316215515135
1759157694278524000,3.93152392578125,0.3480570663452148,9.56977367324829,-2.5513211441040036
1759157694288480000,3.94147998046875,0.5312134933471679,9.380332466888428,-2.49640414352417
1759157694298435800,3.951435791015625,0.661398208618164,9.147047442626953,-2.3708581939697266
1759157694308392000,3.961391845703125,0.7472901931762694,8.850316074371337,-2.198176399230957
1759157694318348800,3.971348876953125,0.8743325187683105,8.51632494277954,-1.9803040481567382
1759157694328305000,3.981304931640625,0.9952397026062011,8.292317449951172,-1.8471265808105468
1759157694338261000,3.991260986328125,1.1843816337585449,8.155548680114746,-1.8929156875610351
1759157694348217000,4.001217041015625,1.2544120323181152,8.035539321899414,-2.134879692840576
1759157694358173000,4.0111728515625,1.200841770172119,7.92286220626831,-2.4253262817382812
1759157694368129000,4.02112890625,1.2797007873535156,7.827393415069579,-2.618358790588379
1759157694378084900,4.0310849609375,1.4252981758117675,7.715464487457275,-2.6958710693359373
1759157694388041000,4.041041015625,1.4691419937133787,7.50791713104248,-2.734028658294678
1759157694397996800,4.050996826171875,1.4185644836425781,7.216572716522216,-2.8203695556640622
1759157694407953000,4.060952880859375,1.3498808235168456,7.040149981689453,-2.811690574645996
1759157694417909000,4.070908935546875,1.3358148887634276,6.914604032135009,-2.8143840515136715
1759157694427865000,4.080864990234375,1.2665326782226562,6.861781958007812,-2.851943090057373
1759157694437821000,4.090821044921875,1.2401964599609374,6.864924347686767,-2.9085061042785645
1759157694447777000,4.100777099609375,1.1507131729125977,6.899490634155273,-2.9290064559936524
1759157694457732900,4.11073291015625,1.0516530792236327,7.023540207672118,-2.8687025016784666
1759157694467689000,4.12068896484375,1.0066121604919434,7.137115148925781,-2.7959786262512205
1759157694477644800,4.130644775390625,1.0350433052062988,7.183353168487549,-2.7467478546142576
1759157694487601200,4.14060107421875,1.0375871444702147,7.149983982849121,-2.684797886657715
1759157694497557000,4.150556884765625,1.1611878051757811,7.3672577835083,-2.5221418113708496
1759157694507513000,4.16051318359375,1.310077220916748,7.502979090118408,-2.6316765373229978
1759157694517470000,4.170469970703125,1.405845287322998,7.508814956665039,-2.9083564666748045
1759157694527426000,4.180426025390625,1.627308940887451,7.626280475616455,-3.1233857032775876
1759157694537382000,4.1903818359375,2.0694880599975587,7.907150257873535,-3.324498642730713
1759157694547338000,4.200337890625,2.4564509033203126,8.047659967803954,-3.693355335998535
1759157694557293800,4.2102939453125,2.7168203338623047,8.374917407226562,-3.856909236907959
1759157694567250000,4.22025,2.8260557846069334,8.495375678253174,-4.088099334716796
1759157694577206000,4.2302060546875,2.694973243713379,8.915857344818114,-4.033780884552002
1759157694587162000,4.240162109375,2.595164962005615,9.285611863708496,-3.948038537597656
1759157694597118000,4.250117919921875,2.485330960845947,9.596858079528808,-3.883395092773437
1759157694607074000,4.260073974609375,2.7425580017089843,9.901520240783691,-3.886687120056152
1759157694617030000,4.27002978515625,2.93050283203125,10.150816488647461,-4.061613478851318
1759157694626986000,4.279986083984375,3.082983550262451,10.216507396697997,-4.384830702972412
1759157694636941800,4.28994189453125,3.3111808959960936,10.102782817840575,-4.678270043945313
1759157694646898000,4.29989794921875,3.7364509658813474,10.204237113189697,-4.662258820343017
1759157694656854000,4.30985400390625,4.038120375061035,10.016441920471191,-4.743362401580811
1759157694666810000,4.31981005859375,4.023755165100098,9.879074600219726,-4.817283377838135
1759157694676766000,4.329765869140625,3.958962082672119,9.828946002960205,-4.751293194580078
1759157694686722000,4.33972216796875,3.77311217880249,9.861866275787353,-4.586691830444336
1759157694696678000,4.349677978515625,3.367594272613525,10.084227754974364,-4.495263254547119
1759157694706634000,4.359634033203125,2.9141923332214352,10.5091985496521,-4.661211357116699
1759157694716590800,4.3695908203125,2.593369310760498,11.220426080322264,-5.073911868286133
1759157694726547000,4.379546875,2.6509797882080077,11.972055764007568,-5.659443811798095
1759157694736502800,4.389502685546875,2.5854385177612302,12.351686364746094,-6.348225701904297
1759157694746459000,4.399458984375,1.933916390991211,12.346149773406982,-6.674136402893066
1759157694756415000,4.4094150390625,1.2853870162963867,12.123937931823729,-6.0437131782531734
1759157694766371000,4.41937109375,0.9677063835144042,11.708543943786621,-4.930409406280518
1759157694776327000,4.429326904296875,0.6941688438415526,11.10296056137085,-3.8729204605102536
1759157694786283000,4.439282958984375,0.3101987525939941,10.283096130371094,-3.0482676261901855
1759157694796238800,4.44923876953125,-0.030526071166992186,9.413252739715576,-2.6322750877380368
1759157694806195000,4.45919482421875,-0.2741360900878906,8.655338276672362,-2.562843239593506
1759157694816150800,4.46915087890625,-0.41195232315063474,8.138789268493651,-2.63032979888916
1759157694826107100,4.479107177734375,-0.4765957679748535,7.931840462493896,-2.7762264625549316
1759157694836063000,4.48906298828125,-0.4296095603942871,7.887697369384765,-3.0858266647338866
1759157694846019000,4.49901904296875,-0.36706104202270506,7.959673056793212,-3.364900795745849
1759157694855975000,4.508974853515625,-0.36481647796630856,8.03239693222046,-3.47323842086792
1759157694865930500,4.518930419921875,-0.32172084808349605,8.036886060333252,-3.4100913520812988
1759157694875886600,4.528886474609375,-0.17268179473876952,8.072799085235594,-3.2474352767944334
1759157694885842700,4.5388427734375,0.033518823242187495,8.087912483215332,-3.091363256072998
1759157694895798800,4.548798828125,0.22176292877197265,8.106317908477783,-3.0015806938171385
1759157694905754600,4.558754638671875,0.40506899337768554,8.10137986755371,-3.00053323059082
1759157694915710700,4.568710693359375,0.5406406623840332,8.03194801940918,-3.1476269950866698
1759157694925667600,4.57866748046875,0.6827963859558105,7.965658560943603,-3.3197102394104
1759157694935623700,4.588623779296875,0.8556278182983398,7.907150257873535,-3.451840243530273
1759157694945579500,4.59857958984375,0.9558850128173828,7.874080347442627,-3.4665047286987303
1759157694955535600,4.60853564453125,1.0703577796936035,7.766640547943115,-3.390788101196289
1759157694965491500,4.618491455078125,1.1634323692321777,7.639298947143554,-3.2912790946960446
1759157694975447600,4.628447509765625,1.2300211029052734,7.507617855834961,-3.259256647491455
1759157694985403600,4.638403564453125,1.2919710708618164,7.426065361785888,-3.3391631278991696
1759157694995359700,4.64835986328125,1.3260884445190428,7.394192552185058,-3.491494208526611
1759157695005315600,4.658315673828125,1.4217068733215332,7.445069337463378,-3.601477847290039
1759157695015271700,4.668271728515625,1.5288473976135253,7.525574368286132,-3.732261112976074
1759157695025227500,4.6782275390625,1.5716437522888183,7.579593543243408,-3.8212954872131344
1759157695035183600,4.68818359375,1.4583680862426758,7.637802571105957,-3.8419454765319823
1759157695045139500,4.698139404296875,1.3569137908935547,7.691672108459472,-3.822492588043213
1759157695055095600,4.708095458984375,1.350329736328125,7.707832969665527,-3.7976527458190916
1759157695065051600,4.7180517578125,1.4175170204162597,7.711124996948242,-3.7620389961242675
1759157695075007700,4.7280078125,1.5234604438781738,7.655609445953369,-3.791667241668701
1759157695084963600,4.737963623046875,1.5605705696105956,7.664438064575195,-3.880851253509521
1759157695094919700,4.747919677734375,1.493383285522461,7.665784803009033,-4.008043216705322
1759157695104875500,4.75787548828125,1.4526818572998046,7.739256866455078,-4.152293866729736
1759157695114831600,4.76783154296875,1.5996259841918945,7.895328887176513,-4.170100741577148
1759157695124787500,4.777787353515625,1.7143980262756346,8.106467546081543,-4.20092608795166
1759157695134743800,4.787743896484375,1.631199518585205,8.347384088134765,-4.308814800262451
1759157695144700400,4.797700439453125,1.5270517463684081,8.639626328277588,-4.43705422668457
1759157695154656800,4.80765673828125,1.5538368774414062,8.949076892852784,-4.524891500091552
1759157695164612600,4.817612548828125,1.7462708358764647,9.209745598602295,-4.5968671875
1759157695174568700,4.827568603515625,2.025045691680908,9.33424408493042,-4.725256251525878
1759157695184524500,4.837524658203125,2.054973212432861,9.423877009582519,-4.841075756835937
1759157695194480600,4.847480712890625,1.9381062438964842,9.43569838027954,-4.946570267486572
1759157695204436500,4.8574365234375,1.877652651977539,9.50602805404663,-4.9540521476745605
1759157695214392600,4.867392578125,1.7854758880615234,9.651176529693602,-4.910956517791748
1759157695224348700,4.8773486328125,1.60875387802124,9.78719711151123,-4.891204354095459
1759157695234304800,4.8873046875,1.3724761016845701,9.921422042083739,-4.891054716491699
1759157695244260600,4.897260498046875,1.077540384674072,10.103531005859374,-4.8780362449645995
1759157695254216700,4.907216796875,0.7923311119079589,10.245088179016113,-4.815487726593017
1759157695264172500,4.917172607421875,0.6012438919067382,10.398765998077392,-4.6082396453857415
1759157695274128600,4.927128662109375,0.723348176574707,10.585663365173339,-4.342932173919677
1759157695284084500,4.93708447265625,1.3853449356079102,10.768969429779052,-4.297591979980469
1759157695294040600,4.94704052734375,2.378190436553955,11.027094296264648,-4.678419681549072
1759157695303996700,4.95699658203125,2.995595189666748,11.163563790893553,-5.396979454803467
1759157695313952800,4.966952880859375,2.869151414489746,10.937311734008789,-6.153247904205322
1759157695323908600,4.97690869140625,2.096123553466797,10.797400574493407,-6.342539472961425
1759157695333864700,4.98686474609375,1.4592659118652342,11.060313844299316,-5.717802477264404
1759157695343820500,4.996820556640625,1.1387421646118163,11.367968757629393,-4.93474889678955
1759157695353776600,5.006776611328125,0.8034042945861816,11.424232496643066,-4.160374297332764
1759157695363732500,5.016732421875,0.28086978225708004,11.116876858520508,-3.3590649291992185
1759157695373688600,5.0266884765625,-0.27518355331420896,10.798298400115966,-2.648884861755371
1759157695383645400,5.0366455078125,-0.4074631950378418,10.454580824279784,-2.2047604537963865
1759157695393601500,5.0466015625,-0.24944588546752927,10.085125580596923,-2.0259435173034666
1759157695403557600,5.0565576171875,-0.06479308242797852,9.810989490509032,-2.0705355232238767
1759157695413513700,5.066513671875,-0.010324994659423827,9.635015668487549,-2.2623709312438964
1759157695423469600,5.076469482421875,-0.08394669570922851,9.522188915252684,-2.5062802253723144
1759157695433425700,5.08642578125,-0.0757166275024414,9.436895481109618,-2.5623943267822265
1759157695443381500,5.096381591796875,0.04384381790161133,9.195978939056396,-2.531419342803955
1759157695453337600,5.106337646484375,0.2512415367126465,8.828618621826172,-2.4678233612060545
1759157695463293400,5.11629345703125,0.5784989761352539,8.47128402404785,-2.4779987182617185
1759157695473249800,5.126249755859375,0.9042600395202636,8.150760276794433,-2.5718214958190915
1759157695483205600,5.13620556640625,1.1927613395690917,7.873631434631347,-2.7160721458435058
1759157695493161700,5.14616162109375,1.3739724777221678,7.6747630592346185,-2.9411271018981933
1759157695503117600,5.15611767578125,1.403899998474121,7.503577640533447,-3.2058360229492187
1759157695513073700,5.16607373046875,1.4273931022644042,7.397035666656493,-3.443011624908447
1759157695523029500,5.176029541015625,1.5141829124450683,7.334936061096191,-3.531297811126709
1759157695532985600,5.185985595703125,1.478569162750244,7.280467973327636,-3.5179800643920895
1759157695542941700,5.195941650390625,1.4034510856628417,7.183053893280029,-3.47937356262207
1759157695552897800,5.205897705078125,1.295412735748291,7.069628589630127,-3.388992449951172
1759157695562853600,5.215853515625,1.236605157470703,6.9804445777893065,-3.2692823669433593
1759157695572809700,5.225809814453125,1.235408056640625,6.988225733184814,-3.1292215698242187
1759157695582765600,5.235765625,1.2051812606811523,7.0847419876098625,-2.999336129760742
1759157695592721700,5.2457216796875,1.0945990715026854,7.285256376647949,-2.9767408515930174
1759157695602677500,5.255677490234375,0.9786299285888671,7.5266218315124505,-3.0265701736450192
1759157695612633600,5.265633544921875,0.8699930282592773,7.715464487457275,-3.133411422729492
1759157695622590500,5.275590576171875,0.9816226806640624,7.91612851409912,-3.182043643951416
1759157695632546600,5.285546630859375,1.1870751106262207,8.064419379425049,-3.1771056030273437
1759157695642502700,5.295502685546875,1.2378022583007813,8.04361975250244,-3.2001497940063475
1759157695652458800,5.305458740234375,1.0877157417297363,7.965209648132324,-3.2166099304199216
1759157695662414600,5.31541455078125,1.0289081634521484,7.898321639251709,-3.2130186279296873
1759157695672370700,5.32537060546875,1.150413897705078,7.819612259674072,-3.1316157714843746
1759157695682326500,5.335326416015625,1.341351480102539,7.762301057434081,-3.131316496276855
1759157695692282600,5.34528271484375,1.454327870941162,7.770381488037109,-3.1944635650634763
1759157695702238500,5.355238525390625,1.5140332748413086,7.8709379577636716,-3.2255881866455076
1759157695712194600,5.365194580078125,1.6157868453979491,8.026860340881347,-3.2492309280395504
1759157695722150700,5.375150634765625,1.7667711875915526,8.273762387084961,-3.31985987701416
1759157695732106800,5.385106689453125,1.9340660285949707,8.608052793884276,-3.4421137992858886
1759157695742062600,5.3950625,2.0427029289245606,8.946832328796386,-3.5811271331787107
1759157695752018700,5.405018798828125,2.1155764419555663,9.268702814483643,-3.7379473419189453
1759157695761974500,5.414974609375,2.0944775398254394,9.605088147735595,-3.892971899414062
1759157695771930600,5.4249306640625,2.199373500061035,9.752331549835205,-3.978115695953369
1759157695781886500,5.434886474609375,2.3542484199523925,9.809942027282714,-3.962254109954834
1759157695791842800,5.4448427734375,2.520944710540771,9.86336265182495,-3.973028017425537
1759157695801798700,5.454798583984375,2.7129297561645505,9.998934320831298,-4.059668190002441
1759157695811754800,5.464754638671875,2.936189060974121,10.207080227661132,-4.242824617004394
1759157695821710600,5.474710693359375,3.0819360870361328,10.449642783355712,-4.416553874969482
1759157695831666700,5.484666748046875,3.173813575744629,10.630704283905029,-4.574421546936035
1759157695841622500,5.49462255859375,3.1905729873657225,10.787075579833983,-4.613327323913574
1759157695851578600,5.50457861328125,3.0698154411315914,11.049839212036131,-4.624550144195556
1759157695861534700,5.51453466796875,2.854337291717529,11.522544402313232,-4.80740729598999
1759157695871491000,5.524490966796875,2.6752210800170895,12.023381462097166,-5.428552989196777
1759157695881447000,5.534447021484375,2.769492770385742,12.390442504119873,-6.242132640838623
1759157695891404000,5.544404052734375,2.70694425201416,12.586018852233886,-7.01007282333374
1759157695901359900,5.55435986328125,2.074426100921631,12.657545626831054,-7.410951963806152
1759157695911316000,5.56431591796875,1.2217910346984862,12.606070291137694,-7.057657581329345
1759157695921271800,5.574271728515625,0.6555623420715332,12.287042919921875,-5.917867953491211
1759157695931228000,5.584227783203125,0.2353799507141113,11.436951692962646,-4.5121723037719725
1759157695941183700,5.594183837890625,-0.16340426330566404,10.228777680206298,-3.5359365768432616
1759157695951139800,5.604139892578125,-0.4804863456726074,9.140014475250243,-3.2161610176086426
1759157695961096000,5.614095947265625,-0.799962629699707,8.396914134979248,-3.07714768371582
1759157695971052000,5.624052001953125,-1.126172605895996,8.010100929260254,-3.0437784980773923
1759157695981008000,5.6340078125,-1.3868413116455078,7.945008571624755,-3.1221886024475096
1759157695990964000,5.6439638671875,-1.3825018211364746,8.084321180725096,-3.3687913734436035
1759157696000919800,5.653919921875,-1.2014403205871582,8.206724740600585,-3.564816634368896
1759157696010876000,5.6638759765625,-1.0224737464904785,8.160037808227539,-3.5429695442199707
1759157696020831700,5.673831787109375,-0.9099462684631348,8.03703569793701,-3.3258453811645508
1759157696030787800,5.683787841796875,-0.8110358123779297,7.817367695617675,-3.0219314079284665
1759157696040744000,5.693743896484375,-0.6193500419616699,7.549965297698974,-2.7225065628051754
1759157696050700000,5.703699951171875,-0.44532150878906246,7.388356685638428,-2.420837153625488
1759157696060655900,5.71365576171875,-0.2825157958984375,7.31682991104126,-2.2424691299438475
1759157696070612000,5.723612060546875,-0.07317278823852538,7.29079296798706,-2.410811434173584
1759157696080567800,5.73356787109375,0.15442600708007811,7.353940036773682,-2.7802666778564453
1759157696090524000,5.74352392578125,0.4376899909973144,7.328202368927002,-3.135955261993408
1759157696100479700,5.753479736328125,0.7371148361206055,7.158513326263427,-3.4706945816040036
1759157696110435800,5.763435791015625,0.9394248764038086,6.989422834014892,-3.743184658050537
1759157696120392000,5.773391845703125,0.9861118087768554,6.82512074508667,-3.954472954559326
1759157696130348000,5.78334814453125,1.0709563301086424,6.746411365509033,-4.070142822265625
1759157696140304000,5.793303955078125,1.280000062561035,6.817189952087402,-4.011784156799316
1759157696150259700,5.803259765625,1.3072341064453123,6.883180135345459,-3.955670055389404
1759157696160215800,5.8132158203125,1.1103110198974608,6.9442322776794425,-3.8495769943237304
1759157696170171600,5.823171630859375,0.8726865051269531,7.033117014312744,-3.7153520637512205
1759157696180127700,5.833127685546875,0.7755717002868652,7.146093405151367,-3.615693419647217
1759157696190084900,5.8430849609375,0.8147767524719238,7.227945174407958,-3.501071015167236
1759157696200040700,5.853040771484375,0.8885480911254883,7.310545131683349,-3.4287960525512693
1759157696209997000,5.8629970703125,0.9452607429504394,7.436539994049072,-3.479972113037109
1759157696219953000,5.872952880859375,1.041328084564209,7.500435250854491,-3.625270226287842
1759157696229909000,5.882908935546875,1.1751041023254394,7.558345003509521,-3.7331589385986326
1759157696239864800,5.89286474609375,1.2333131301879883,7.596652230072021,-3.822492588043213
1759157696249821000,5.902821044921875,1.2675801414489745,7.643488800048828,-3.905391820526123
1759157696259776800,5.91277685546875,1.2808978881835937,7.684040590667724,-3.98365228729248
1759157696269732900,5.92273291015625,1.2933178092956543,7.717409776306152,-4.0532337730407715
1759157696279689000,5.93268896484375,1.3356652511596678,7.881711865234375,-4.142417784881592
1759157696289645000,5.94264501953125,1.3902829765319824,8.004115425109863,-4.346822751617432
1759157696299601000,5.952600830078125,1.4570213478088379,8.24144066467285,-4.537909971618652
1759157696309557000,5.962556884765625,1.4797662635803221,8.60580822982788,-4.701314234924316
1759157696319512800,5.972512939453125,1.3962684806823729,9.066542411804198,-4.9260699157714845
1759157696329469000,5.982468994140625,1.2313678413391111,9.72285294189453,-5.153967986297607
1759157696339424800,5.9924248046875,1.0428244606018067,10.454580824279784,-5.418377632141113
1759157696349380600,6.002380615234375,0.7457938171386719,11.056722541809082,-5.603628985595702
1759157696359337000,6.0123369140625,0.3434183006286621,11.558457427215576,-5.519383014678954
1759157696369292800,6.022292724609375,-0.07631517791748046,11.962478957366942,-5.238064319610595
1759157696379249000,6.032248779296875,-0.33952772293090816,12.24484511566162,-4.937292736053466
1759157696389204700,6.042204833984375,-0.44966099929809566,12.34076281967163,-4.602403778839111
1759157696399160800,6.052160888671875,-0.30047230834960936,12.368745051574706,-4.221276802062988
1759157696409116700,6.06211669921875,0.4896142395019531,12.459724714660643,-4.005948290252685
1759157696419072800,6.07207275390625,1.9916765060424804,12.502221794128417,-4.337694857788086
1759157696429028900,6.08202880859375,3.296965323638916,12.13695640335083,-5.040393045043945
1759157696438985000,6.09198486328125,3.3918355644226073,11.30676697769165,-5.831078143310546
1759157696448940800,6.10194091796875,2.163460475158691,10.833014324188232,-6.078578739929199
1759157696458897000,6.11189697265625,1.2144587921142578,10.829871934509276,-5.745485433959961
1759157696468852700,6.121852783203125,1.024718310546875,10.997914963531494,-5.195118327331543
1759157696478808800,6.131808837890625,0.745045629119873,11.010634159851074,-4.46219334411621
1759157696488764700,6.1417646484375,0.17342998275756835,10.975618960571289,-3.6201825477600096
1759157696498720800,6.151720703125,-0.4493617240905761,10.84693062133789,-2.8872575645446776
1759157696508676900,6.1616767578125,-1.0631751747131346,10.573841994476318,-2.3454198013305665
1759157696518633700,6.1716337890625,-1.2792518745422363,10.261249040222168,-1.9671359390258787
1759157696528590000,6.181590087890625,-1.0564414825439452,9.945214421081543,-1.7081132469177245
1759157696538546000,6.1915458984375,-0.6121674369812011,9.785102185058593,-1.542464419555664
1759157696548502000,6.201501953125,-0.17193360671997068,9.509918631744384,-1.6476596549987792
1759157696558457900,6.211457763671875,0.14335282440185546,9.094674281311034,-2.1054010848999023
1759157696568413700,6.22141357421875,0.3987842140197754,8.879794682312012,-2.4148516494750973
1759157696578369800,6.231369873046875,0.5520131202697753,8.592041570281982,-2.512714642333984
1759157696588325600,6.24132568359375,0.6907271789550781,8.375366320037841,-2.6026468421936033
1759157696598282000,6.251281982421875,0.8089408859252929,8.212859882354735,-2.7730840728759762
1759157696608237800,6.26123779296875,0.9630676177978515,8.043470114898682,-3.038092269134521
1759157696618194000,6.27119384765625,1.0639233627319336,7.884854254913329,-3.2996588005065917
1759157696628149800,6.281149658203125,1.037437506866455,7.7389575912475586,-3.4771289985656737
1759157696638105900,6.29110595703125,0.9334393722534179,7.568370722961426,-3.5945945175170895
1759157696648061700,6.301061767578125,0.9892541984558105,7.451354116821289,-3.6076129890441893
1759157696658017800,6.311017822265625,1.1742062767028807,7.341520115661621,-3.567061198425293
1759157696667973600,6.3209736328125,1.2623428253173827,7.221211482238769,-3.5326445495605467
1759157696677930000,6.330929931640625,1.2161048057556152,7.069329314422607,-3.4995746391296385
1759157696687885800,6.3408857421875,1.0598831474304198,6.7739446846008295,-3.4036569351196286
1759157696697842000,6.350842041015625,0.9765350021362305,6.761674401092529,-3.053205667114258
1759157696707797800,6.3607978515625,1.1020809516906738,6.680720457458496,-2.817526441192627
1759157696717753900,6.37075390625,1.0205284576416016,6.6246063560485835,-2.6376620414733885
1759157696727709700,6.380709716796875,1.0289081634521484,6.76122548828125,-2.553266432952881
1759157696737665800,6.390665771484375,0.9575310264587402,6.710498340606689,-2.8574796813964842
1759157696747622000,6.400621826171875,0.9587281272888183,6.779331638336181,-3.099742961883545
1759157696757578000,6.410577880859375,1.0568903953552244,6.746860278320312,-3.264793238830566
1759157696767533800,6.420533935546875,1.094898346710205,6.893056217193603,-3.231723328399658
1759157696777490000,6.430489990234375,1.0871171913146973,6.8439750831604,-3.277811710357666
1759157696787445800,6.44044580078125,1.016338604736328,6.862530146026611,-3.3385645774841306
1759157696797401900,6.45040185546875,1.203984159851074,6.962936978149414,-3.348440659332275
1759157696807357700,6.460357666015625,1.4872481437683105,7.113173132324218,-3.3315316101074215
1759157696817313800,6.470313720703125,1.6431705268859862,7.2158245285034175,-3.412335916137695
1759157696827270000,6.480269775390625,1.7169418655395507,7.359925540924072,-3.574692716217041
1759157696837226000,6.49022607421875,1.8462287551879881,7.615057655334472,-3.6647745536804197
1759157696847181800,6.500181884765625,2.025644242095947,7.959224143981933,-3.671657883453369
1759157696857138000,6.510137939453125,2.01756381149292,8.37057791671753,-3.6337995697021483
1759157696867094000,6.520093994140625,1.918503717803955,8.749011416625976,-3.6541502838134763
1759157696877049900,6.5300498046875,1.8580501258850097,9.12968948059082,-3.7023335922241207
1759157696887006000,6.540005859375,1.900696842956543,9.447370113372802,-3.865737855529785
1759157696896962000,6.549962158203125,2.0465935066223144,9.724947868347167,-4.074781587982177
1759157696906919000,6.5599189453125,2.346916177368164,9.911396322631836,-4.297891255187988
1759157696916875000,6.569875,2.7268460533142087,10.160094020080566,-4.520252734375
1759157696926831000,6.5798310546875,3.079092972564697,10.391733030700683,-4.735281970977783
1759157696936787000,6.589786865234375,3.243694336700439,10.442909091186523,-4.961234752655029
1759157696946743000,6.599742919921875,3.225887461853027,10.522815571594238,-5.045929636383057
1759157696956699000,6.609698974609375,3.1199440383911132,10.631751747131347,-4.9640778671264645
1759157696966655000,6.619655029296875,2.9577368759155274,10.774506021118164,-4.780023614501953
1759157696976610800,6.62961083984375,2.6135703872680662,11.144410177612304,-4.576516473388671
1759157696986567000,6.63956689453125,2.016665985870361,11.66380230026245,-4.600757765197754
1759157696996523000,6.64952294921875,1.4112322410583495,12.30290450592041,-4.8980876838684075
1759157697006479000,6.65947900390625,1.2455834136962889,12.916269043731688,-5.317671524810791
1759157697016435000,6.66943505859375,1.1034276901245117,13.239935180664062,-5.787084687805176
1759157697026391000,6.67939111328125,0.4798877952575683,13.11887835922241,-5.982511398315429
1759157697036347000,6.689346923828125,-0.21817162628173828,12.631059770965576,-5.479130499267578
1759157697046303000,6.699302978515625,-0.6753145057678223,11.813888816833495,-4.661061719512939
1759157697056258800,6.7092587890625,-0.8873509902954101,11.014524737548827,-3.895066825866699
1759157697066215000,6.71921484375,-1.0003273811340332,10.243741440582275,-3.2704794677734372
1759157697076171000,6.7291708984375,-1.1863269226074218,9.587730185699462,-2.797026089477539
1759157697086127000,6.739127197265625,-1.361103643798828,9.126247815704344,-2.4459762710571287
1759157697096083000,6.7490830078125,-1.3046902671813965,8.859892881011962,-2.296937217712402
1759157697106039000,6.7590390625,-1.0637737251281738,8.755894746398925,-2.5704747573852536
1759157697115995000,6.768994873046875,-0.7155670211791991,8.81619870071411,-3.1048306404113766
1759157697125951000,6.778950927734375,-0.4333505004882812,8.750956705474852,-3.589207563781738
1759157697135906800,6.78890673828125,-0.24525603256225584,8.65758284072876,-3.7844846366882323
1759157697145863200,6.79886328125,-0.1614589744567871,8.509890525817871,-3.745878134918213
1759157697155819000,6.808819091796875,-0.06913257293701172,8.328978662872315,-3.6258687767028808
1759157697165775000,6.818775146484375,0.17702128524780272,8.288277234649657,-3.343502618408203
1759157697175731000,6.82873095703125,0.43140521163940426,8.317306929779052,-3.070413991546631
1759157697185687000,6.83868701171875,0.513256980895996,8.35082575302124,-2.9881133094787597
1759157697195643000,6.848642822265625,0.45819034271240233,8.330325401306151,-3.0228292335510254
1759157697205599000,6.858598876953125,0.40970775909423823,8.308927223968505,-3.1317654090881346
1759157697215555000,6.86855517578125,0.5029319862365722,8.252813122558594,-3.2495302032470703
1759157697225511200,6.87851123046875,0.7480383811950683,8.14612151107788,-3.3247979179382323
1759157697235467000,6.888467041015625,0.8883984535217284,8.05633894882202,-3.3358711006164548
1759157697245423000,6.898423095703125,0.9175777862548827,7.9396216178894035,-3.3833062210083007
1759157697255379000,6.90837890625,0.9302969825744628,7.821707186126709,-3.5140894866943357
1759157697265335000,6.9183349609375,0.9639654434204101,7.676259435272216,-3.6523546325683593
1759157697275291000,6.928290771484375,1.055394019317627,7.547870371246337,-3.755903854370117
1759157697285247000,6.9382470703125,1.1282675323486326,7.4500073783874505,-3.7773020317077632
1759157697295203000,6.948203125,1.1595417915344237,7.317727736663818,-3.7352538650512694
1759157697305159200,6.9581591796875,1.1062708045959473,7.218667642974853,-3.628861528778076
1759157697315115000,6.968114990234375,1.0794856735229492,7.157465863037109,-3.5137902114868163
1759157697325070800,6.97807080078125,1.075146183013916,7.0744169929504395,-3.417573232269287
1759157697335027000,6.98802685546875,1.0260650489807128,7.012915937805175,-3.345896820068359
1759157697344982800,6.997982666015625,0.9663596450805664,7.0184525291442865,-3.285293590545654
1759157697354939000,7.00793896484375,0.8910919303894043,7.038503968048095,-3.2612019363403317
1759157697364895000,7.01789501953125,0.8237550086975097,7.115268058776855,-3.2887352554321287
1759157697374851000,7.02785107421875,0.7914332862854003,7.189937223052978,-3.312976547241211
1759157697384807000,7.037806884765625,0.7778162643432617,7.343016491699219,-3.3328783485412594
1759157697394764000,7.047763916015625,0.7477391059875488,7.542333779907226,-3.329885596466064
1759157697404720000,7.05772021484375,0.6982090591430664,7.620594246673583,-3.3750761528015136
1759157697414676000,7.067676025390625,0.6123170745849609,7.69960290145874,-3.386747885894775
1759157697424632000,7.077632080078125,0.6157587394714356,7.792677490997314,-3.4296938781738278
1759157697434588000,7.087587890625,0.6162076522827148,7.85253253250122,-3.536086214447021
1759157697444544000,7.0975439453125,0.6040870063781738,7.957727767944336,-3.6831799789428707
1759157697454499800,7.107499755859375,0.6162076522827148,8.13400086517334,-3.905242182922363
1759157697464456200,7.117456298828125,0.6401496688842773,8.347833000946045,-4.153939880371094
1759157697474412000,7.127412109375,0.6839934867858887,8.668656023406982,-4.321384358978271
1759157697484368100,7.1373681640625,0.6607996582031249,9.080458708953858,-4.435258575439453
1759157697494324000,7.147323974609375,0.51071314163208,9.673622170257568,-4.4668321098327635
1759157697504280000,7.157280029296875,0.2641103706359863,10.423905115509033,-4.556165759277343
1759157697514236000,7.16723583984375,0.05581482620239257,11.333402471160888,-4.7631145652771
1759157697524191700,7.177191650390625,-0.16460136413574217,12.222549112701415,-5.026626385498046
1759157697534148000,7.187148193359375,-0.10983400115966796,12.858508928680418,-5.281309587097168
1759157697544104000,7.19710400390625,0.1288379768371582,13.191302959442138,-5.03740029296875
1759157697554060000,7.20706005859375,0.6118681617736816,13.366678231048583,-4.555866484069824
1759157697564015900,7.217015869140625,1.6252140144348144,13.442544496154785,-4.340986885070801
1759157697573972000,7.226971923828125,2.987365121459961,13.35590432357788,-4.674229828643798
1759157697583927800,7.236927734375,3.8416462013244628,12.770372380065917,-5.416881256103515
1759157697593884000,7.2468837890625,3.5793314819335937,11.948263385009765,-6.12930588760376
1759157697603840000,7.256840087890625,2.854486929321289,11.538854901123047,-6.3524155548095695
1759157697613796000,7.266796142578125,2.5149592063903805,11.40881982345581,-6.036680210876464
1759157697623752000,7.276751953125,2.271498825073242,11.303624588012694,-5.501725777435302
1759157697633708000,7.2867080078125,1.8415899894714354,11.068543912506103,-4.9342999839782715
1759157697643664000,7.296663818359375,1.2120645904541014,10.810419046020508,-4.30282929611206
1759157697653620000,7.306619873046875,0.5819406410217285,10.424054753112792,-3.6541502838134763
1759157697663575800,7.316575927734375,0.1596633232116699,9.90196915359497,-3.0002339553833006
1759157697673532000,7.326531982421875,0.010025719451904296,9.430012151336669,-2.3307553161621093
1759157697683488000,7.336488037109375,0.047584757995605464,9.025092795562744,-1.7450737350463865
1759157697693444000,7.346444091796875,0.06703764648437499,8.774449809265136,-1.310077220916748
1759157697703400000,7.35639990234375,-0.06239888076782226,8.680776669311523,-1.0848726272583007
1759157697713356000,7.36635595703125,-0.22221184158325194,8.58620570373535,-0.987009634399414
1759157697723311900,7.376311767578125,-0.3012204963684082,8.689156375122069,-1.096843635559082
1759157697733268000,7.38626806640625,0.06853402252197265,8.632294085693358,-1.2921207084655761
1759157697743223800,7.396223876953125,0.5108627792358398,8.54894594039917,-1.3717279136657714
1759157697753180000,7.406179931640625,0.7104793426513671,8.591143744659423,-1.406443837738037
1759157697763136000,7.416135986328125,0.9406219772338866,8.495974228668212,-1.6578350120544432
1759157697773092000,7.426092041015625,1.2235866859436035,8.398260873413085,-2.043451116943359
1759157697783048000,7.4360478515625,1.465251416015625,8.271218547821045,-2.45794727935791
1759157697793004000,7.446004150390625,1.6425719764709472,8.17859287109375,-2.861370259094238
1759157697802960000,7.4559599609375,1.660528488922119,8.078485314178467,-3.1706711860656736
1759157697812916000,7.465916015625,1.6035165618896483,7.949198424530029,-3.30714068069458
1759157697822872800,7.475872802734375,1.6041151123046875,7.84594847793579,-3.2493805656433103
1759157697832829000,7.485828857421875,1.6350900962829589,7.746589109039306,-3.1190462127685543
1759157697842784800,7.49578466796875,1.712901650238037,7.6282257644653315,-3.0084640235900877
1759157697852741000,7.5057412109375,1.6814777534484862,7.517194662475585,-3.0092122116088866
1759157697862697000,7.515697021484375,1.544409708404541,7.40601392288208,-3.0258219856262207
1759157697872652000,7.525652099609375,1.4137760803222656,7.3654621322631835,-3.0309096641540525
1759157697882608000,7.535608154296875,1.309478670501709,7.329998020172119,-2.949057894897461
1759157697892564000,7.54556396484375,1.2771569480895995,7.295581371307373,-2.778471026611328
1759157697902520000,7.55552001953125,1.2363058822631836,7.288099491119384,-2.577806999969482
1759157697912476200,7.56547607421875,1.1145008728027344,7.25263537902832,-2.461987494659424
1759157697922432300,7.575432373046875,1.02142628326416,7.243058572387695,-2.4438813446044922
1759157697932388000,7.58538818359375,0.9464578437805176,7.246500237274169,-2.479644731903076
1759157697942344200,7.59534423828125,0.9594763153076171,7.2714897171020505,-2.5403975990295407
1759157697952300000,7.605300048828125,1.0510545288085937,7.336881349945068,-2.607884158325195
1759157697962256100,7.615256103515625,1.1655272956848144,7.452251942443847,-2.6761189056396484
1759157697972212000,7.6252119140625,1.300500414276123,7.630320690917968,-2.791788773345947
1759157697982168300,7.635168212890625,1.5040075553894041,7.842506813049316,-2.938882537841797
1759157697992124200,7.645124267578125,1.7755998062133789,8.077587488555908,-3.118148387145996
1759157698002080300,7.655080322265625,1.9991583862304687,8.271966735839843,-3.2824504760742186
1759157698012036000,7.6650361328125,2.235885075378418,8.49747060470581,-3.4488474914550777
1759157698021992200,7.6749921875,2.3728034828186035,8.737489321136474,-3.662081076812744
1759157698031948000,7.684947998046875,2.5392004981994627,9.032873950958251,-3.8616976402282712
1759157698041904000,7.694904052734375,2.652027251434326,9.361029216003418,-4.057423625946044
1759157698051860000,7.70485986328125,2.7383681488037106,9.615562779998779,-4.177582621765136
1759157698061816300,7.71481640625,2.722207287597656,9.784054721832275,-4.206313041687012
1759157698071772200,7.724772216796875,2.7163714210510252,9.871592720031737,-4.2211271644592285
1759157698081728300,7.734728271484375,2.77727392578125,9.925462257385254,-4.206462679290771
1759157698091684000,7.74468408203125,2.8241104957580565,9.860519537353515,-4.153042054748535
1759157698101640200,7.75464013671875,2.7442040153503418,9.841964474487304,-4.0997710678100585
1759157698111596000,7.764595947265625,2.66863702545166,9.885658654785155,-4.010736693572998
1759157698121552100,7.77455224609375,2.6412533439636228,9.93339305038452,-3.923348332977295
1759157698131508200,7.78450830078125,2.580500476837158,10.017938296508788,-3.912275150299072
1759157698141464300,7.79446435546875,2.311900978088379,10.236109922790527,-4.050689933776855
1759157698151420200,7.804420166015625,1.8414403518676756,10.786177754211424,-4.327968413543701
1759157698161376300,7.814376220703125,1.4309844047546385,11.455207480621338,-4.836287353515624
1759157698171333000,7.8243330078125,1.4239514373779296,12.040140873718261,-5.529558371734619
1759157698181289200,7.834289306640625,1.7362451164245605,12.459874352264404,-6.16117869720459
1759157698191245000,7.8442451171875,1.7099088981628416,12.376077294158934,-6.519111845397949
1759157698201201200,7.854201171875,1.092953057861328,12.057648473358153,-6.131849726867675
1759157698211157000,7.864156982421875,0.42721535873413086,11.544092217254638,-5.155314724731445
1759157698221113000,7.874113037109375,-0.06075286712646484,11.106402226257323,-4.099022879791259
1759157698231069200,7.884069091796875,-0.35778351058959956,10.81475853652954,-3.0992940490722654
1759157698241025300,7.894025390625,-0.5807435401916503,10.471639511108398,-2.3505074798583983
1759157698250981000,7.903981201171875,-0.8740332435607909,10.017489383697509,-1.9891326667785643
1759157698260937200,7.913937255859375,-0.9328408218383788,9.764152920532226,-2.1474492515563965
1759157698270893000,7.92389306640625,-0.6669347999572753,9.680056587219237,-2.6981156333923337
1759157698280849200,7.93384912109375,-0.3016694091796875,9.59551134109497,-3.27526787109375
1759157698290805000,7.943804931640625,-0.044891281127929686,9.39843861694336,-3.6563948478698727
1759157698300761300,7.95376123046875,0.02977788314819336,9.038709817504882,-3.824737152099609
1759157698310717200,7.96371728515625,0.20051438903808594,8.700528833007812,-3.7400422683715817
1759157698320673300,7.97367333984375,0.5491700057983399,8.404844927978516,-3.4907460205078125
1759157698330629000,7.983629150390625,0.821061531829834,8.104971170043944,-3.2267852874755856
1759157698340585200,7.993585205078125,0.8460510116577148,7.8824600532531734,-3.0365958930969237
1759157698350541000,8.003541015625,0.7860463325500487,7.812429654693603,-2.963423104858398
1759157698360497200,8.0134970703125,0.7395090377807617,7.732972087097168,-3.048566901397705
1759157698370453000,8.023452880859375,0.7302315063476562,7.630769603729248,-3.08343246307373
1759157698380409300,8.033409423828125,0.7977180656433105,7.535001537322998,-3.003825257873535
1759157698390365200,8.043365234375,0.8487444885253905,7.41873311920166,-2.9727006362915036
1759157698400321300,8.0533212890625,0.8978256225585937,7.286752752685547,-2.9990368545532227
1759157698410277000,8.063277099609374,0.927004955291748,7.13786333694458,-3.046322337341308
1759157698420233200,8.073233154296876,0.9992799179077148,6.916549320983886,-3.1081226676940914
1759157698430189000,8.08318896484375,1.0506056159973145,6.745812815093994,-3.1563059761047363
1759157698440145200,8.093145263671875,1.0996867500305174,6.684910310363769,-3.1763574150085447
1759157698450101200,8.103101318359375,1.103876602935791,6.7377323844909665,-3.1554081504821774
1759157698460057300,8.113057373046875,1.0161889671325683,6.837091753387451,-3.123684978485107
1759157698470014200,8.12301416015625,0.9425672660827636,6.992864498901366,-3.0494647270202635
1759157698479970300,8.13297021484375,0.8735843307495117,7.183951718902588,-2.8980314720153806
1759157698489926100,8.142926025390626,0.8693944778442382,7.296778472137451,-2.7588685005187985
1759157698499882200,8.15288232421875,0.8375216682434081,7.318924837493896,-2.691681216430664
1759157698509838000,8.162838134765625,0.8755296195983886,7.39987878112793,-2.696768894958496
1759157698519794200,8.172794189453125,0.9522937103271484,7.472453018951415,-2.816179702758789
1759157698529750000,8.18275,0.9992799179077148,7.49489865951538,-2.9397803634643553
1759157698539706000,8.1927060546875,1.0037690460205078,7.505373291778564,-3.01968684387207
1759157698549662200,8.202662109375,1.0363900436401368,7.566126158905029,-3.085976302337646
1759157698559618300,8.212618408203125,1.2173019065856934,7.585878322601318,-3.1926679138183593
1759157698569574100,8.22257421875,1.4006079711914061,7.585728684997558,-3.2977135116577148
1759157698579530200,8.2325302734375,1.6657658050537107,7.550563848114013,-3.414281204986572
1759157698589486000,8.242486083984375,1.8556559242248534,7.401225519561767,-3.5769372802734374
1759157698599442200,8.252442138671874,1.8397943382263182,7.326257080078125,-3.713556412506103
1759157698609398000,8.26239794921875,1.8300678939819335,7.407510298919678,-3.8126165061950683
1759157698619354400,8.272354248046875,1.6980875274658203,7.877970925140381,-3.965695774841308
1759157698629310200,8.282310302734375,1.460762287902832,8.585158240509033,-4.2122985458374025
1759157698639266300,8.292266357421875,1.1260229682922362,9.50064110031128,-4.473116889190673
1759157698649222100,8.30222216796875,0.8113350875854491,10.561422073364257,-4.661660269927978
1759157698659178200,8.31217822265625,0.5603928260803223,11.476456020355224,-4.8503532882690426
1759157698669134000,8.322134033203126,0.5140051689147949,12.209829916381835,-4.925471365356445
1759157698679090000,8.33208984375,0.6768108818054199,12.645275343322753,-4.725256251525878
1759157698689046300,8.34204638671875,0.704194563293457,12.549208001708983,-4.249408671569824
1759157698699002000,8.352002197265625,0.3699041564941406,12.11720423965454,-3.699789752960205
1759157698708958200,8.361958251953125,0.043245267486572266,11.766304058837889,-3.299209887695312
1759157698718914000,8.3719140625,0.35883097381591794,11.725153717803954,-3.2002994316101074
1759157698728871200,8.38187109375,1.401954709625244,11.92611701965332,-3.634697395324707
1759157698738827300,8.3918271484375,2.5474305664062498,11.937489477539062,-4.3740567955017085
1759157698748783000,8.401783203125,3.1337106979370115,11.808651500701904,-5.055207167816162
1759157698758739200,8.4117392578125,2.8604724334716796,11.39520280151367,-5.681141264343261
1759157698768695000,8.421695068359375,2.295740116882324,11.368268032836914,-5.981463935089111
1759157698778651100,8.431651123046874,1.8487725944519042,11.56788459625244,-6.123170745849609
1759157698788607200,8.441607177734374,1.4451999771118162,11.776180140686034,-6.030694706726074
1759157698798563300,8.451563232421876,1.0143933158874512,11.883919215393066,-5.381716419219971
1759157698808519200,8.461519287109375,0.46252983322143554,11.871798569488524,-4.361337599182129
1759157698818475300,8.471475341796875,-0.16295535049438475,11.58210016860962,-3.4421137992858886
1759157698828431000,8.48143115234375,-0.680551821899414,10.995820037078857,-2.6964696197509763
1759157698838387200,8.49138720703125,-0.9853636207580566,10.541071359252928,-2.120065570068359
1759157698848343000,8.501343017578124,-1.0018237571716309,10.26648635635376,-1.488894157409668
1759157698858299100,8.511299072265626,-0.6522703147888184,9.990255339813231,-0.9045593147277832
1759157698868255200,8.521255126953125,-0.3136404174804687,9.951948113250731,-0.4396352798461914
1759157698878211300,8.53121142578125,-0.1958756233215332,10.085574493408203,0.0004489128112792969
1759157698888167200,8.541167236328125,-0.044891281127929686,9.980678533172608,0.02558803024291992
1759157698898123000,8.551123046875,0.127042325592041,9.297882147216797,-1.139639990234375
1759157698908079000,8.5610791015625,0.3781342247009277,9.107992028045654,-1.955464205932617
1759157698918035000,8.571034912109376,0.8855553390502929,8.763825539398193,-2.421734979248047
1759157698927991000,8.580990966796875,1.1595417915344237,8.526500299835204,-2.7082909904479977
1759157698937947100,8.590947021484375,1.191264963531494,8.402600363922119,-3.0353987922668457
1759157698947903200,8.6009033203125,1.1876736610412597,8.265233043670653,-3.4458547393798824
1759157698957860400,8.6108603515625,1.0823287879943848,8.193855906677246,-3.617937983703613
1759157698967816200,8.620816162109374,0.8939350448608397,8.12636934738159,-3.4581250228881832
1759157698977772300,8.630772216796874,0.7453449043273925,8.078186038970946,-3.210774063873291
1759157698987728100,8.64072802734375,0.706738402557373,7.942315094757079,-3.088819416809082
1759157698997684200,8.650684326171875,0.6964134078979491,7.8724343338012694,-3.120542588806152
1759157699007640000,8.66064013671875,0.7128735443115234,7.7967177062988275,-3.162141842651367
1759157699017596200,8.67059619140625,0.6880337020874023,7.518541400909424,-3.1905729873657225
1759157699027552000,8.680552001953124,0.8035539321899413,7.533056248474121,-2.959831802368164
1759157699037508400,8.69050830078125,1.1124059463500975,7.411700151824951,-2.814084776306152
1759157699047464200,8.700464111328126,1.2050316230773925,7.222558220672607,-2.6892870147705077
1759157699057420300,8.710420166015625,1.180341418457031,7.034463752746581,-2.6382605918884274
1759157699067376000,8.720376220703125,1.1022305892944335,6.8773442687988275,-2.5553613594055173
1759157699077332200,8.730332275390625,1.1884218490600584,6.875249342346191,-2.5124153671264646
1759157699087288000,8.7402880859375,1.1613374427795409,6.9427359016418455,-2.4302643226623535
1759157699097244000,8.750243896484376,1.0491092399597168,6.924929026794433,-2.4033295539855954
1759157699107200300,8.7602001953125,0.9379285003662109,6.942586264038085,-2.402431728363037
1759157699117156000,8.770156005859375,1.0130465774536133,7.052569902801514,-2.480542557525635
1759157699127112200,8.7801123046875,1.0621277114868164,7.217919454956054,-2.551021868896484
1759157699137068000,8.790068115234375,1.1376947013854979,7.371447636413574,-2.7138275817871094
1759157699147024100,8.800024169921874,1.4184148460388182,7.418882756805419,-2.9038673385620117
1759157699156980000,8.80997998046875,1.6723498596191406,7.596203317260742,-3.0207343070983885
1759157699166936000,8.81993603515625,1.8894740226745603,7.841160074615478,-2.9810803421020506
1759157699176893200,8.82989306640625,2.018012724304199,7.881412590026855,-3.0940567329406736
1759157699186849000,8.83984912109375,2.0566192260742184,8.105868995666503,-3.1830911071777344
1759157699196805000,8.84980517578125,2.1315876655578614,8.530989427947997,-3.308936331939697
1759157699206761200,8.85976123046875,2.0880431228637693,8.844031295013426,-3.5468601219177245
1759157699216717300,8.86971728515625,1.979705497741699,9.158120625305175,-3.684975630187988
1759157699226673200,8.879673095703126,1.8740613494873046,9.353397698211669,-3.621080373382568
1759157699236629200,8.889629150390626,1.9060837966918944,9.423877009582519,-3.437325395965576
1759157699246585000,8.899585205078125,2.0533271987915036,9.44228243484497,-3.4014123710632322
1759157699256541200,8.909541259765625,2.2129905220031736,9.507973342895507,-3.591601765441894
1759157699266497000,8.9194970703125,2.2376807266235352,9.62693523788452,-3.871274446868896
1759157699276453400,8.929453369140624,2.1933879959106446,9.819219558715819,-4.132541703033447
1759157699286409200,8.9394091796875,2.1519383796691893,10.09993970336914,-4.357297383880615
1759157699296365000,8.949364990234375,2.1396680961608885,10.402656575775145,-4.500201295471191
1759157699306321200,8.959321044921875,1.9578584075927734,10.851569387054443,-4.591779508972167
1759157699316277000,8.969277099609375,1.5310919616699217,11.445929949188232,-4.8403275688171385
1759157699326233000,8.979233154296875,1.2370540702819823,12.137255678558349,-5.282955600738525
1759157699336189000,8.98918896484375,1.277605860900879,12.707973499298095,-5.75865354309082
1759157699346145300,8.999145263671876,1.2901754196166992,12.960711412048338,-6.074688162231445
1759157699356101000,9.00910107421875,0.8770259956359863,12.88963355026245,-5.9756280685424805
1759157699366057200,9.01905712890625,0.309001651763916,12.796409323120116,-5.494393534851074
1759157699376013000,9.029012939453125,-0.052073886108398436,12.715904292297363,-4.761468551635742
1759157699385970200,9.03897021484375,-0.3989338516235351,12.431443207550048,-3.8616976402282712
1759157699395926300,9.04892626953125,-0.7191583236694336,11.869853280639648,-2.983923456573486
1759157699405882000,9.058882080078124,-0.9944915145874023,11.12750112838745,-2.43879366607666
1759157699415838200,9.068838134765626,-1.0455179374694823,10.362404060363769,-2.3315035041809082
1759157699425794000,9.0787939453125,-0.9786299285888671,9.817124632263184,-2.3919570960998535
1759157699435750100,9.088750244140625,-1.0435726486206054,9.426420848846435,-2.530671154785156
1759157699445706200,9.098706298828125,-1.0550947441101073,9.268553176879882,-2.794182975006103
1759157699455662300,9.108662353515625,-0.8946832328796386,9.213486538696289,-3.1447838806152344
1759157699465618200,9.1186181640625,-0.682497110748291,9.157522074890137,-3.4192192459106443
1759157699475574300,9.12857421875,-0.5307645805358886,8.943689939117432,-3.4659061782836913
1759157699485530000,9.138530029296875,-0.436043977355957,8.738536784362793,-3.2927754707336425
1759157699495486200,9.148486328125,-0.29358897857666016,8.503306471252442,-3.1157541854858395
1759157699505442000,9.158442138671875,-0.1466448516845703,8.398260873413085,-2.944269491577148
1759157699515398100,9.168398193359375,-0.062249243164062495,8.358906183624267,-2.918831098937988
1759157699525354200,9.178354248046874,-0.02289455337524414,8.314463815307617,-3.0636802993774412
1759157699535310000,9.18831005859375,0.018555062866210937,8.27391202468872,-3.2173581184387205
1759157699545266200,9.19826611328125,0.18809446792602538,8.24144066467285,-3.302501914978027
1759157699555222000,9.208221923828125,0.39145197143554683,8.157942881774902,-3.338115664672851
1759157699565178000,9.21817822265625,0.5734112976074218,7.989301302337646,-3.374627239990234
1759157699575134000,9.228134033203125,0.6980594215393066,7.778013005828857,-3.407846788024902
1759157699585091000,9.238091064453124,0.8349778289794921,7.55235949935913,-3.3714848503112793
1759157699595047200,9.248047119140624,0.8996212738037109,7.378031690979004,-3.3625065940856933
1759157699605626000,9.258626220703125,1.0262146865844726,7.197119828033447,-3.3924341148376462
1759157699615582200,9.268582275390624,1.1188403633117676,7.102249587249755,-3.4275989517211913
1759157699625538000,9.2785380859375,1.107617543029785,7.155071661376953,-3.500622102355957
1759157699635494100,9.288494140625,1.063624087524414,7.238719081878662,-3.5562872909545895
1759157699645450200,9.2984501953125,0.955136824798584,7.314136434173584,-3.5865140869140624
1759157699655406300,9.30840625,0.8924386688232422,7.352742935943603,-3.585466623687744
1759157699665362200,9.318362060546875,0.8384194938659667,7.41903239440918,-3.556586566162109
1759157699675318300,9.328318359375,0.7728782234191894,7.395988203430175,-3.4706945816040036
1759157699685275100,9.338275146484374,0.8339303657531738,7.363067930603027,-3.3788170928955075
1759157699695231200,9.348231201171876,0.9868599967956543,7.443273686218261,-3.3253964683532713
1759157699705187000,9.35818701171875,1.1182418128967284,7.5716627502441405,-3.327940307617187
1759157699715143200,9.36814306640625,1.0625766242980956,7.68059892578125,-3.4062007743835445
1759157699725099000,9.37809912109375,0.8640075241088867,7.808838352203368,-3.491643846130371
1759157699735055000,9.38805517578125,0.7445967163085937,8.040028450012207,-3.500472464752197
1759157699745011200,9.39801123046875,0.7586626510620117,8.244283779144286,-3.481468489074707
1759157699754967300,9.40796728515625,0.8179191421508789,8.33227069015503,-3.527856146240234
1759157699764923100,9.417923095703125,0.8239046463012695,8.352920679473877,-3.61988327255249
1759157699774879200,9.427879150390625,0.9708487731933593,8.368034077453613,-3.7389948051452633
1759157699784835000,9.4378349609375,1.1622352684020996,8.353668867492676,-3.8048353507995603
1759157699794791200,9.447791259765625,1.3385083656311034,8.322095333099364,-3.9227497825622555
1759157699804747000,9.4577470703125,1.4229039741516112,8.360103284454345,-4.151994591522216
1759157699814703000,9.467703125,1.4911387214660643,8.458265552520752,-4.436306038665771
1759157699824659200,9.4776591796875,1.44280577545166,8.666261821746826,-4.755183772277832
1759157699834615300,9.487615234375,1.2412439231872558,8.972569996643067,-4.99864415359497
1759157699844571100,9.497571044921875,1.0238204849243164,9.384522319793701,-4.96707061920166
1759157699854527200,9.50752734375,0.799962629699707,9.717615625762939,-4.729446104431152
1759157699864484000,9.517484130859375,0.5888239707946777,10.008960040283203,-4.444236831665039
1759157699874441000,9.52744091796875,0.3534440200805664,10.260051939392088,-4.221276802062988
1759157699884397000,9.53739697265625,0.14514847564697264,10.448744957733153,-4.104709108734131
1759157699894353000,9.547352783203126,0.043544542694091797,10.611550670623778,-3.9463925239562987
1759157699904309000,9.55730908203125,0.16998831787109375,10.907234575653076,-3.7587469688415527
1759157699914264800,9.567264892578125,0.6323685134887695,11.324124939727783,-3.771166889953613
1759157699924221000,9.577220947265625,1.4864999557495115,11.737573638916015,-4.145410536956787
1759157699934177000,9.587177001953124,2.3548469703674315,11.829002214813231,-4.751742107391357
1759157699944133000,9.597133056640626,2.671180864715576,11.468225952148437,-5.38874938659668
1759157699954089000,9.6070888671875,2.4616882194519043,11.23568911590576,-5.7511716629028315
1759157699964045000,9.617045166015625,2.124255422973633,11.241524982452392,-5.8934770240783685
1759157699974001000,9.6270009765625,1.7106570861816406,11.305420239257812,-5.7608981071472165
1759157699983957000,9.63695703125,1.264737026977539,11.350910070800781,-5.29896682434082
1759157699993912800,9.646912841796874,0.785896694946289,11.372158610534667,-4.4945150665283204
1759157700003869200,9.656869140625,0.1862988166809082,11.31903726119995,-3.6831799789428707
1759157700013825000,9.666824951171876,-0.26261399459838863,11.087098975372314,-3.0992940490722654
1759157700023781000,9.676781005859375,-0.6016928047180176,10.75116255493164,-2.6050410438537597
1759157700033738000,9.686738037109375,-0.8254010223388671,10.45817212677002,-2.0965724662780763
1759157700043694000,9.696694091796875,-0.9394248764038086,10.275913525390624,-1.5596727439880371
1759157700053650000,9.70664990234375,-0.9943418769836425,10.212766456604003,-1.1002853004455566
1759157700063606000,9.71660595703125,-0.9005190994262695,10.153809240722655,-0.7655459808349608
1759157700073561900,9.726561767578126,-0.6486790122985839,9.942072031402587,-0.7306804191589356
1759157700083518000,9.73651806640625,-0.2184709014892578,9.655815295410155,-1.1435305679321288
1759157700093473800,9.746473876953125,0.18869301834106444,9.420435344696044,-1.7042226692199707
1759157700103430100,9.75643017578125,0.43888709182739255,9.166201055908203,-2.179172423553467
1759157700113386000,9.766385986328125,0.55545478515625,8.916306257629394,-2.5863363433837887
1759157700123342000,9.776342041015624,0.6974608711242676,8.636035025787352,-2.8522423652648925
1759157700133298000,9.7862978515625,0.8595183959960937,8.468590547180176,-3.0048727210998534
1759157700143254000,9.79625390625,0.974290438079834,8.301146068572997,-3.1084219429016113
1759157700153209900,9.8062099609375,1.1302128211975098,8.1969982963562,-3.189675161743164
1759157700163166000,9.816166015625,1.2361562446594239,8.040477362823486,-3.211971164703369
1759157700173122000,9.8261220703125,1.2870330299377442,7.813926030731201,-3.197755592346191
1759157700183079000,9.836078857421874,1.4191630340576171,7.559691741943359,-3.1147067222595215
1759157700193035000,9.846034912109374,1.6121955429077148,7.409305950164795,-3.073855656433105
1759157700202991000,9.8559912109375,1.6888099960327148,7.227346623992919,-3.0538042175292968
1759157700212947000,9.865947021484375,1.389834063720703,7.119158636474609,-3.071611092376709
1759157700222903000,9.875903076171875,0.9623194297790527,7.130680731964111,-3.050512190246582
1759157700232859000,9.88585888671875,0.6813000099182128,7.268796240234375,-2.9439702163696286
1759157700242815000,9.89581494140625,0.5707178207397461,7.407061386108398,-2.888155390167236
1759157700252770800,9.905770751953124,0.5288192916870117,7.503278365325928,-2.862716997528076
1759157700262727000,9.915726806640626,0.4951508308410644,7.570166374206543,-2.8384757057189938
1759157700272683000,9.92568310546875,0.43155484924316406,7.574356227111816,-2.8119898498535156
1759157700282639000,9.93563916015625,0.4568436042785644,7.539191390228271,-2.835482953643799
1759157700292595000,9.945594970703125,0.46731823654174803,7.534402986907959,-2.863914098358154
1759157700302551000,9.955551025390625,0.4661211357116699,7.62268917312622,-2.881272060394287
1759157700312508000,9.9655078125,0.4599859939575195,7.685387329101562,-2.966864769744873
1759157700322464000,9.975464111328124,0.546476528930664,7.791031477355957,-3.0392893699645995
1759157700332419800,9.985419921875,0.5871779571533203,7.900266928100585,-3.036296617889404
1759157700342376000,9.9953759765625,0.7080851409912109,8.01294404373169,-3.019088293457031
1759157700352331800,10.005331787109375,0.956333925628662,8.117391091156005,-2.9574376007080074
1759157700362287900,10.015287841796875,1.2551602203369139,8.19684865875244,-2.938882537841797
1759157700372244000,10.025243896484374,1.4665981544494628,8.24144066467285,-2.9937995384216305
1759157700382200000,10.035199951171874,1.6632219657897949,8.258648989105223,-3.1296704826354977
1759157700392156000,10.045156005859376,1.850268970489502,8.324040621948242,-3.3206080650329586
1759157700402112000,10.055112060546875,1.947832688140869,8.422502165222168,-3.4995746391296385
1759157700412067800,10.06506787109375,1.9270330612182616,8.59353794631958,-3.6170401580810543
1759157700422024000,10.07502392578125,1.798494359588623,8.759635686492919,-3.7069723579406735
1759157700431981000,10.08498095703125,1.6813281158447264,8.911068941497803,-3.72193611831665
1759157700441937000,10.09493701171875,1.7066168708801268,9.027786272430419,-3.733607851409912
1759157700451893000,10.10489306640625,1.8504186080932616,9.042001844787597,-3.8070799148559566
1759157700461849000,10.11484912109375,2.1161749923706052,9.037213441467285,-3.871424084472656
1759157700471805000,10.124804931640625,2.3349451690673826,9.055768504333496,-3.9170635536193847
1759157700481761000,10.134760986328125,2.447023734283447,9.077166681671143,-4.042609503173828
1759157700491716900,10.144716796875,2.4058733932495118,9.294590119934082,-4.112041351318359
1759157700501673000,10.1546728515625,2.357690084838867,9.600150106811522,-4.048744644927979
1759157700511628800,10.16462890625,2.11946701965332,9.98546693649292,-3.9496845512390135
1759157700521585000,10.1745849609375,1.6416741508483885,10.427346780395506,-3.9662943252563476
1759157700531541000,10.184541015625,1.0136451278686522,11.15293952102661,-4.107402585601807
1759157700541497000,10.1944970703125,0.5846341178894042,11.93210252380371,-4.338592683410644
1759157700551454000,10.204453857421875,0.4756979423522949,12.403460975646972,-4.717026183319091
1759157700561410000,10.21441015625,0.34102409896850583,12.617891661834715,-5.026776023101807
1759157700571366100,10.2243662109375,-0.05686228942871093,12.687323509979247,-5.180154566955566
1759157700581322000,10.234322021484376,-0.40761283264160153,12.761244486236572,-5.03111551361084
1759157700591278000,10.244278076171875,-0.7330746208190918,12.804489753723145,-4.543596200561523
1759157700601234000,10.25423388671875,-0.9388263259887695,12.670564098358154,-3.7585973312377927
1759157700611190000,10.26418994140625,-1.0838251640319823,12.375778018951415,-2.879775684356689
1759157700621145900,10.274145751953125,-1.2261305252075194,11.67682077178955,-2.0329764846801757
1759157700631102200,10.284102294921874,-1.2802993377685545,10.636689788055419,-1.4894927078247069
1759157700641058000,10.29405810546875,-1.1831845329284667,9.752780462646484,-2.0412065528869627
1759157700651014100,10.30401416015625,-0.8978256225585937,9.356390450286865,-2.839672806549072
1759157700660971000,10.313970947265625,-0.6438906089782714,9.177872789001464,-3.395875779724121
1759157700670927000,10.323927001953125,-0.6938695686340332,9.087042763519287,-3.8275802665710446
1759157700680883000,10.333883056640625,-0.7529764221191406,9.12370397644043,-4.063409130096435
1759157700690839000,10.343839111328125,-0.6833949363708496,9.27019919052124,-4.070741372680664
1759157700700795000,10.353794921875,-0.5684732566833496,9.252392315673827,-3.891924436187744
1759157700710751000,10.3637509765625,-0.5973533142089843,9.05217720184326,-3.639635436248779
1759157700720706800,10.373706787109375,-0.6197989547729492,8.824578406524658,-3.3233015419006344
1759157700730663200,10.3836630859375,-0.5563526107788086,8.603414028167725,-3.038092269134521
1759157700740619000,10.393618896484375,-0.4586392555236816,8.400505437469482,-2.8664579376220702
1759157700750575000,10.4035751953125,-0.36750995483398435,8.258499351501465,-2.8760347442626952
1759157700760532000,10.413531982421874,-0.31379005508422847,8.26747760772705,-2.937535799407959
1759157700770488000,10.423488037109376,-0.24735095901489257,8.327332649230957,-2.9761423011779784
1759157700780444000,10.43344384765625,-0.14589666366577148,8.31940185623169,-2.958036151123047
1759157700790400000,10.44339990234375,-0.058957215881347655,8.275707675933837,-2.912695957183838
1759157700800355800,10.45335595703125,0.0618003303527832,8.157793244171142,-2.9296050064086914
1759157700810312000,10.46331201171875,0.30256723480224607,8.027159616088866,-2.902520600128174
1759157700820268000,10.47326806640625,0.4707599014282226,7.874978173065185,-2.893542343902588
1759157700830224100,10.48322412109375,0.5524620330810547,7.702894928741455,-2.916287259674072
1759157700840180000,10.493179931640626,0.6274304725646972,7.592612014770507,-2.976291938781738
1759157700850137000,10.50313720703125,0.6916250045776366,7.561038480377197,-3.026719811248779
1759157700860093000,10.513093017578125,0.739957950592041,7.693767034912109,-3.1579519897460937
1759157700870049000,10.523049072265625,0.7791630027770996,7.818564796447753,-3.4011130958557128
1759157700880003800,10.53300390625,0.7767688011169434,7.94859987411499,-3.6079122642517087
1759157700889960000,10.5429599609375,0.7278373046875,8.020874836730956,-3.7243303199768065
1759157700899916000,10.552916015625,0.7270891166687011,8.054992210388184,-3.6668694801330566
1759157700909871900,10.562871826171875,0.7594108390808105,8.0184806350708,-3.4675521919250487
1759157700919828000,10.572827880859375,0.7649474304199219,7.943661833190918,-3.2363620941162106
1759157700929783800,10.58278369140625,0.7484872940063476,7.868094843292236,-3.0750527572631836
1759157700939740000,10.592739990234374,0.6872855140686035,7.813626755523681,-3.0074165603637693
1759157700949696800,10.60269677734375,0.5618892021179199,7.88455497970581,-2.959831802368164
1759157700959652900,10.61265283203125,0.5416881256103515,8.058284237670899,-3.0086136611938477
1759157700969608700,10.622608642578125,0.5083189399719238,8.108861747741699,-3.113509621429443
1759157700979564800,10.632564697265625,0.378583137512207,8.169614614868163,-3.1293712074279783
1759157700989521000,10.64252099609375,0.356885684967041,8.264335218048096,-3.099144411468506
1759157700999477000,10.65247705078125,0.4273649963378906,8.35681125717163,-3.0735563812255857
1759157701009432800,10.662432861328124,0.49425300521850585,8.448539108276366,-3.1467291694641113
1759157701019389000,10.672388916015626,0.5527613082885742,8.5294930519104,-3.3686417358398435
1759157701029344800,10.6823447265625,0.6832452987670898,8.642469442749023,-3.653851008605957
1759157701039302000,10.692302001953125,0.8729857803344726,8.660126679992675,-3.9987656852722164
1759157701049257700,10.7022578125,0.9379285003662109,8.659528129577636,-4.224119916534423
1759157701059213800,10.7122138671875,0.7796119155883788,8.657433203124999,-4.087650421905518
1759157701069169700,10.722169677734374,0.5678747062683105,8.696338980102539,-3.6351463081359863
1759157701079125800,10.732125732421874,0.270694425201416,8.731054904174805,-3.1830911071777344
1759157701089081900,10.742081787109376,-0.02079962692260742,8.865130197143554,-2.8559833053588863
1759157701099038000,10.752037841796875,-0.2813186950683594,9.074473204803466,-2.6900352027893066
1759157701108993800,10.761993896484375,-0.5038298118591308,9.320627062988281,-2.6753707176208494
1759157701118950000,10.771949951171875,-0.7040449256896972,9.713126497650146,-2.704550050354004
1759157701128907000,10.781906982421875,-0.7308300567626953,10.278158089447022,-2.8297967247009277
1759157701138862800,10.79186279296875,-0.28311434631347654,11.077522168731688,-2.927958992767334
1759157701148818700,10.801818603515626,0.7857470573425293,11.990610826873779,-3.1579519897460937
1759157701158774800,10.81177490234375,1.8960580772399902,12.689268798828124,-3.6815339653015133
1759157701168730600,10.821730712890625,2.3579893600463864,12.423362776947021,-4.6173675392150875
1759157701178687000,10.83168701171875,1.8402432510375974,12.189179927062987,-5.369745410919189
1759157701188642800,10.841642822265625,1.2164040809631347,12.260407426452636,-5.708824221038818
1759157701198599000,10.851598876953124,0.8928875816345214,12.284648718261717,-5.8732759475708
1759157701208554800,10.8615546875,0.6189011291503906,12.276119374847411,-5.799055696105957
1759157701218512000,10.871511962890626,0.1913864952087402,12.274174085998535,-5.191975937652588
1759157701228468000,10.881468017578126,-0.35942952423095703,12.120346629333495,-4.244171355438232
1759157701238423800,10.891423828125,-0.8137292892456054,11.890203994750976,-3.40275910949707
1759157701248380000,10.9013798828125,-0.985064345550537,11.538705263519287,-2.7883471084594724
1759157701258335700,10.911335693359375,-0.9452607429504394,11.094730493164063,-2.370259643554687
1759157701268291800,10.921291748046874,-0.8583212951660156,10.768370879364014,-2.0444985801696776
1759157701278248000,10.931248046875,-0.7212532501220703,10.429142431640624,-1.8671780197143553
1759157701288204000,10.9412041015625,-0.6010942543029785,10.11984150466919,-1.8915689491271972
1759157701298161000,10.951160888671875,-0.5578489868164063,9.840617736053467,-2.083254719543457
1759157701308117000,10.961116943359375,-0.45115737533569333,9.514407759857177,-2.361431024932861
1759157701318072800,10.97107275390625,-0.20784663162231445,9.318382498931884,-2.561496501159668
1759157701328029000,10.98102880859375,-0.01705868682861328,9.151087657928466,-2.7174188842773437
1759157701337984800,10.99098486328125,0.13198036651611328,8.965088116455078,-2.9070097282409666
1759157701347940900,11.00094091796875,0.3098994773864746,8.845078758239746,-3.140294752502441
1759157701357896700,11.010896728515625,0.4761468551635742,8.761880250549316,-3.4006641830444333
1759157701367852800,11.020852783203125,0.5662286926269531,8.656535377502442,-3.577236555480957
1759157701377809700,11.0308095703125,0.5680243438720702,8.490437637329102,-3.7235821319580076
1759157701387765800,11.040765869140625,0.5840355674743652,8.392425006866455,-3.708618371582031
1759157701397721900,11.050721923828124,0.6609492958068848,8.31955149383545,-3.6246716758728024
1759157701407678000,11.060677978515624,0.7787140899658203,8.202684525299071,-3.5538930892944336
1759157701417633800,11.0706337890625,0.7966706024169922,8.0950950881958,-3.5079543449401855
1759157701427590000,11.08058984375,0.814627114868164,8.022670487976074,-3.4114380905151367
1759157701437545700,11.090545654296875,0.8571241943359375,7.96131907043457,-3.3322797981262204
1759157701447501800,11.100501708984375,0.8728361427307129,7.845499565124511,-3.3168671249389647
1759157701457458700,11.110458740234375,0.8936357696533203,7.719803977966309,-3.252672592926025
1759157701467414800,11.120414794921874,0.8690952026367187,7.577199341583252,-3.2172084808349606
1759157701477370600,11.13037060546875,0.8378209434509277,7.439233470916748,-3.212569715118408
1759157701487327000,11.140326904296876,0.8007108177185058,7.273883918762206,-3.1898247993469235
1759157701497282800,11.15028271484375,0.7490858444213867,7.197718378448486,-3.120542588806152
1759157701507239000,11.160239013671875,0.6763619689941406,7.147440143585205,-2.9788357780456542
1759157701517194800,11.17019482421875,0.5991489654541016,7.119308274078369,-2.8407202697753906
1759157701527150800,11.18015087890625,0.5175964714050293,7.068281851196288,-2.7138275817871094
1759157701537108000,11.19010791015625,0.503081623840332,7.018602166748046,-2.6219500930786133
1759157701547063800,11.200063720703126,0.5192424850463867,7.012018112182616,-2.543539988708496
1759157701557020000,11.21002001953125,0.5690718070983887,7.068730764007568,-2.5267805770874023
1759157701566975700,11.219975830078125,0.5958569381713866,7.2046017082214355,-2.601749016571045
1759157701576931800,11.229931884765625,0.7254431030273437,7.416189279937743,-2.7819126914978027
1759157701586888000,11.239887939453125,0.865054987335205,7.698256163024902,-2.8962358207702636
1759157701596844000,11.249843994140624,1.061678798675537,7.898920189666748,-2.9982886665344237
1759157701606800000,11.2597998046875,1.244386312866211,8.013841869354248,-3.107374479675293
1759157701616757000,11.269757080078126,1.5474024604797363,8.147917162322997,-3.106775929260254
1759157701626712800,11.279712890625,1.7782932830810545,8.297704403686524,-3.086275577545166
1759157701636669000,11.2896689453125,1.9138649520874023,8.392574644470214,-3.1762077774047848
1759157701646624800,11.299624755859375,2.034472860717773,8.595782510375976,-3.2187048568725585
1759157701656580900,11.309580810546874,1.9725228927612304,8.967183042907715,-3.3801638313293454
1759157701666536700,11.31953662109375,1.8192939865112303,9.276184694671631,-3.694552436828613
1759157701676493000,11.3294931640625,1.660528488922119,9.554959550476074,-4.008492129516601
1759157701686449700,11.33944970703125,1.7426795333862304,9.886107567596435,-4.177881896972656
1759157701696405800,11.34940576171875,1.925536685180664,10.190021540832518,-4.19449167098999
1759157701706361900,11.35936181640625,1.9788076721191405,10.465055456542968,-4.275744889831543
1759157701716318000,11.36931787109375,1.978508396911621,10.6616792678833,-4.458153128814697
1759157701726273800,11.379273681640624,2.035370686340332,10.93626427078247,-4.683956272888183
1759157701736230000,11.38922998046875,2.227505369567871,11.216535502624511,-4.841823944854736
1759157701746185700,11.399185791015626,2.450315761566162,11.429469812774657,-4.8880619644165035
1759157701756141800,11.409141845703125,2.4027310035705565,11.771840650177001,-4.835539165496826
1759157701766098700,11.4190986328125,2.1830630012512207,12.0414876121521,-5.154267261505127
1759157701776054800,11.4290546875,2.1848586524963376,12.3219084815979,-5.6480713539123535
1759157701786010600,11.4390107421875,2.3294085777282714,12.330737100219725,-6.245873580932617
1759157701795967000,11.448967041015624,2.2641665824890134,12.115857501220702,-6.598419775390624
1759157701805922800,11.4589228515625,1.7130512878417967,11.969811199951172,-6.310367388153076
1759157701815879000,11.46887890625,1.1776479415893555,11.741613854217528,-5.721842692565918
1759157701825834800,11.478834716796875,0.7544727981567383,11.430666913604735,-5.016600666046142
1759157701835790800,11.488790771484375,0.22206220397949217,11.052981601715087,-4.225765930175781
1759157701845748000,11.498748046875,-0.24690204620361328,10.635642324829101,-3.535637301635742
1759157701855703800,11.508703857421875,-0.6331167015075683,10.197353783416748,-3.0494647270202635
1759157701865660000,11.518659912109374,-0.7975684280395507,9.718663088989258,-2.7666496559143066
1759157701875616300,11.5286162109375,-0.7517793212890624,9.186252494812011,-2.712181568145752
1759157701885572400,11.538572265625,-0.5930138236999511,8.771008144378662,-2.7992706535339353
1759157701895528200,11.548528076171875,-0.34536358947753903,8.54191297302246,-2.9804817916870117
1759157701905484500,11.558484619140625,-0.17986439971923826,8.354117780303955,-3.2046389221191403
1759157701915441200,11.568441162109375,-0.1096843635559082,8.214206620788573,-3.4070986000061034
1759157701925397500,11.5783974609375,-0.10025719451904297,7.998129920959472,-3.5118449226379393
1759157701935353300,11.588353271484374,-0.09202712631225586,7.7973162567138665,-3.384353684234619
1759157701945309400,11.598309326171876,-0.028880057525634766,7.669525743103027,-3.21750775604248
1759157701955265300,11.608265380859375,0.1183633445739746,7.589020712280273,-2.977040126800537
1759157701965221400,11.618221435546875,0.17238251953125,7.607276499938965,-2.8761843818664548
1759157701975177200,11.62817724609375,0.21891981430053709,7.604882298278808,-2.941875289916992
1759157701985133300,11.63813330078125,0.32082302246093747,7.593210565185546,-3.048566901397705
1759157701995090200,11.648090087890624,0.5006874221801757,7.55909319152832,-3.1639374938964844
1759157702005046300,11.65804638671875,0.6394014808654784,7.550563848114013,-3.229778039550781
1759157702015002400,11.66800244140625,0.7422025146484375,7.551611311340332,-3.3054946670532224
1759157702024958500,11.67795849609375,0.8655039001464844,7.4685624412536615,-3.4395699600219722
1759157702034914300,11.687914306640625,1.0296563514709471,7.38671067199707,-3.5721488769531247
1759157702044870400,11.697870361328125,1.2246341491699217,7.2620625480651855,-3.722534668731689
1759157702054826200,11.707826171875,1.39177935256958,7.173477086639404,-3.884292918395996
1759157702064783400,11.717783447265624,1.4700398193359374,7.19532417678833,-3.9549218673706052
1759157702074739500,11.727739501953126,1.5164274765014647,7.281365798950195,-4.008342491912842
1759157702084695300,11.7376953125,1.4507365684509277,7.409754862976074,-4.001758437347412
1759157702094651400,11.7476513671875,1.3778630554199218,7.515548648834228,-3.909581673431396
1759157702104607200,11.757607177734375,1.2644377517700194,7.660547486877441,-3.721187930297851
1759157702114563600,11.7675634765625,1.158045415496826,7.7319246238708494,-3.5728970649719236
1759157702124519400,11.77751953125,1.1194389137268066,7.819163346862792,-3.548506135559082
1759157702134475300,11.787475341796876,1.0984896492004395,7.886799543762207,-3.552247075653076
1759157702144432400,11.797432373046876,1.0194809944152832,7.9661074737548825,-3.666420567321777
1759157702154388500,11.807388427734375,0.9317933586120605,8.009951291656494,-3.7873277511596677
1759157702164344300,11.81734423828125,0.7817068420410156,8.099584216308592,-3.9003041419982907
1759157702174300400,11.827300537109375,0.795473501586914,8.196549383544921,-3.9571664314270016
1759157702184256300,11.83725634765625,0.9590274024963379,8.320898232269286,-3.876062850189209
1759157702194212400,11.84721240234375,0.9407716148376464,8.42025760116577,-3.8346132339477537
1759157702204168200,11.857168212890626,0.7561188117980957,8.483105394744873,-3.844489315795898
1759157702214125300,11.867125244140626,0.5835866546630859,8.545653913116455,-3.976768957519531
1759157702224081200,11.8770810546875,0.6316203254699707,8.734795844268799,-4.091092086791992
1759157702234037500,11.88703759765625,0.7704840217590332,8.94428848953247,-4.246266281890869
1759157702243993300,11.896993408203125,0.9252093040466308,9.166949243927002,-4.519354908752441
1759157702253949400,11.906949462890625,1.0019733947753906,9.35294878540039,-4.73722725982666
1759157702263905300,11.9169052734375,1.0516530792236327,9.560645779418945,-4.922927526092529
1759157702273861400,11.926861328125,1.020827732849121,9.794529354095458,-4.999541979217529
1759157702283818200,11.936818359375,0.8999205490112304,10.02287633743286,-4.994005387878418
1759157702293774300,11.9467744140625,0.5995978782653808,10.286537795257567,-4.865765961456298
1759157702303730200,11.956730224609375,0.15532383270263672,10.630554646301269,-4.534468306732178
1759157702313686300,11.966686279296875,-0.3274070770263672,10.971878020477295,-4.069544271850586
1759157702323642400,11.976642333984374,-0.5364508094787598,11.432462564849853,-3.5787329315185543
1759157702333598500,11.986598388671876,-0.3585316986083984,12.025925301361083,-3.2398037590026854
1759157702343554300,11.99655419921875,0.4513070129394531,12.272528072357177,-3.24982947845459
1759157702353510400,12.006510498046875,1.8173486976623534,13.015778050231933,-3.7002386657714843
1759157702363467500,12.016467529296875,2.6765678184509274,12.095207511901855,-3.9950247451782226
1759157702373423400,12.02642333984375,2.0603601661682127,11.058817468261719,-4.110844250488281
1759157702383379500,12.03637939453125,1.222539222717285,10.806977381134033,-4.130297138977051
1759157702393335300,12.046335205078124,1.1436802055358886,10.487650734710693,-4.301332920074462
1759157702403291400,12.05629150390625,1.2594997108459471,10.362852973175048,-4.20092608795166
1759157702413247200,12.066247314453125,0.9935936889648437,10.363002610778809,-3.799149121856689
1759157702423203600,12.07620361328125,0.5229834251403809,10.258106650543212,-3.360710942840576
1759157702433160200,12.08616015625,0.008678981018066407,10.239401950073242,-2.8603227958679196
1759157702443116500,12.096116455078125,-0.3580827857971191,10.154707066345214,-2.384475215911865
1759157702453693400,12.106693359375,-0.5539584091186524,9.966462960815429,-2.022950765228271
1759157702463649300,12.116649169921875,-0.5972036766052246,9.772382988739013,-1.7892168281555174
1759157702473606400,12.1266064453125,-0.44143093109130854,9.526079492950439,-1.737292579650879
1759157702483562200,12.136562255859374,-0.08828618621826172,9.195380388641357,-1.8598457771301269
1759157702493518300,12.146518310546876,0.37499183502197264,8.935908783721922,-2.0778677658081053
1759157702503474200,12.15647412109375,0.7754220626831054,8.734496569061278,-2.2495020973205566
1759157702513430300,12.16643017578125,1.0178349807739258,8.544905725097657,-2.3491607414245603
1759157702523386400,12.176386474609375,1.1538555625915528,8.424896366882324,-2.4404396797180175
1759157702533342500,12.186342529296875,1.2080243751525879,8.450035484313965,-2.52184253616333
1759157702543299300,12.19629931640625,1.2211924842834472,8.56750100326538,-2.6619033332824706
1759157702553255400,12.20625537109375,1.2482768905639647,8.636184663391113,-2.7629087158203123
1759157702563211500,12.21621142578125,1.2297218276977537,8.648903859710693,-2.8214170188903807
1759157702573167400,12.22616748046875,1.148468608856201,8.564508251190185,-2.8878561149597166
1759157702583123500,12.23612353515625,1.1420341918945311,8.418761225128174,-2.8477532371520993
1759157702593079300,12.246079345703125,1.138891802215576,8.251765659332275,-2.7673978439331055
1759157702603035400,12.256035400390624,1.1375450637817381,8.027159616088866,-2.6984149085998532
1759157702612991200,12.2659912109375,1.1273697067260742,7.759158667755126,-2.6550200035095215
1759157702622948400,12.2759482421875,1.084722989654541,7.567622534942626,-2.608781983947754
1759157702632904200,12.285904296875,1.0447697494506836,7.466916427612304,-2.6096798095703124
1759157702642860300,12.2958603515625,0.9721955116271972,7.436839269256591,-2.6071359703063965
1759157702652816400,12.30581640625,0.7803601036071777,7.435342893218993,-2.5966613380432126
1759157702662772500,12.3157724609375,0.582239916229248,7.443423323822021,-2.6153660385131836
1759157702672728300,12.325728271484374,0.5813420906066894,7.46347476272583,-2.611774736022949
1759157702682684400,12.335684326171876,0.6579565437316894,7.473500482177734,-2.6542718154907226
1759157702692641300,12.345641357421876,0.6672340751647949,7.551162398529052,-2.729838805389404
1759157702702597400,12.355597412109375,0.5995978782653808,7.631368154144287,-2.843713021850586
1759157702712553200,12.36555322265625,0.5578489868164063,7.779808657073974,-2.9686604209899903
1759157702722509300,12.37550927734375,0.6581061813354492,7.963563634490966,-3.104082452392578
1759157702732465200,12.385465087890625,0.9117419197082519,8.150012088775634,-3.328538858032226
1759157702742421500,12.39542138671875,1.2925696212768554,8.340650395965575,-3.5420717185974118
1759157702752377300,12.40537744140625,1.6410756004333495,8.514828566741944,-3.7304654617309567
1759157702762333400,12.41533349609375,1.9405004455566406,8.662371244049071,-3.816955996704101
1759157702772290600,12.42529052734375,2.2007202384948727,8.979303688812255,-3.858106337738037
1759157702782246400,12.435246337890625,2.4836849472045897,9.205555745697021,-3.99652112121582
1759157702792202200,12.4452021484375,2.661005507659912,9.389460360717774,-4.189852905273438
1759157702802158300,12.455158447265624,2.7666496559143066,9.562142155456542,-4.30297893371582
1759157702812114200,12.4651142578125,2.8200702804565427,9.68514426574707,-4.425083218383789
1759157702822070300,12.4750703125,2.7576713996887205,9.675417821502686,-4.572775533294678
1759157702832026400,12.4850263671875,2.4958055931091305,9.70414824142456,-4.636221877288818
1759157702841982500,12.494982421875,2.287510048675537,9.770886612701416,-4.560954162597656
1759157702851939300,12.504939208984375,2.0932804389953614,9.81278514175415,-4.37959338684082
1759157702861895400,12.5148955078125,2.006640266418457,9.865307940673828,-4.196885872650146
1759157702871851500,12.5248515625,2.0364181495666505,9.879822788238524,-3.9688381645202635
1759157702881807600,12.5348076171875,2.085050370788574,9.914239437103271,-3.756652042388916
1759157702891763700,12.544763671875,2.1327847663879393,9.923666606140136,-3.591601765441894
1759157702901719600,12.554719482421875,2.1052514472961423,10.041581037902832,-3.5091514457702635
1759157702911675600,12.564675537109375,1.9291279876708982,10.382605136871337,-3.6189854469299316
1759157702921631500,12.574631591796875,1.6250643768310546,10.743680674743652,-3.9585131698608396
1759157702931588600,12.584588623046875,1.422455061340332,11.156231548309325,-4.4011412017822265
1759157702941544400,12.59454443359375,1.4101847778320311,11.292252130126952,-5.059247383117675
1759157702951500500,12.60450048828125,1.294814185333252,11.265466999053954,-5.571606538391113
1759157702961456600,12.61445654296875,0.6994061599731445,11.09637650680542,-5.701940891265869
1759157702971412700,12.624412841796875,0.21173720932006834,10.871770463562012,-5.004480020141601
1759157702981368600,12.63436865234375,0.08858546142578125,10.448445682525634,-4.09228918762207
1759157702991324700,12.64432470703125,-0.13213000411987305,9.907655382537842,-3.5131916610717773
1759157703001280500,12.654280517578124,-0.3839700912475586,9.48747299118042,-3.106775929260254
1759157703011236600,12.664236572265626,-0.7314286071777343,9.14809490585327,-2.9468133308410644
1759157703021193500,12.674193359375,-0.994042601776123,8.9508725440979,-2.927210804748535
1759157703031149600,12.684149658203125,-1.0740987197875975,9.022548956298827,-2.9511528213500973
1759157703041105400,12.69410546875,-0.9876081848144531,9.21857421722412,-3.035698067474365
1759157703051061500,12.7040615234375,-0.9112930068969726,9.196427851867675,-3.146130619049072
1759157703061017600,12.714017578125,-0.8081926979064941,9.106794927215576,-3.177853791046142
1759157703070973700,12.7239736328125,-0.6236895324707031,8.927828353118896,-3.1254806297302244
1759157703080929500,12.733929443359376,-0.39234979705810547,8.74093098602295,-3.0838813758850097
1759157703090885600,12.7438857421875,-0.15337854385375976,8.53592746887207,-3.093158907318115
1759157703100842800,12.7538427734375,0.11776479415893554,8.356063069152832,-3.158700177764892
1759157703110798600,12.763798583984375,0.4155436256408691,8.17859287109375,-3.1649849571228024
1759157703120754700,12.773754638671875,0.7275380294799805,8.08866067123413,-3.1783027038574216
1759157703130710500,12.78371044921875,0.9709984107971191,8.058433875274657,-3.1982045051574706
