time,seconds_elapsed,z,y,x
1757954210740950300,32.5469501953125,0.5235172510147095,-0.4019307196140289,0.0896239131689071
1757954210750906000,32.556906005859375,0.5901565551757812,-0.1012434959411621,0.0385185815393924
1757954210760862500,32.56686254882813,0.6259419918060303,0.2874395549297333,-0.0048832227475941
1757954210770818300,32.576818359375,0.5865657329559326,0.7062053084373474,-0.0347639545798301
1757954210780774400,32.5867744140625,0.4018629789352417,1.072441577911377,-0.0258767157793045
1757954210790730200,32.596730224609374,0.0505519360303878,1.3510884046554563,0.0221337676048278
1757954210800687400,32.60668725585938,-0.3502117395401001,1.5504717826843262,0.044448398053646
1757954210810643500,32.6166435546875,-0.6313360929489136,1.6671240329742432,0.0044876639731228
1757954210820599300,32.62659936523438,-0.734562873840332,1.6900869607925415,-0.0581312403082847
1757954210830555100,32.63655517578125,-0.6947717666625977,1.623716950416565,-0.0951174944639206
1757954210840511200,32.64651123046875,-0.5677086114883423,1.4894437789916992,-0.1050649285316467
1757954210850467300,32.65646728515625,-0.4177554547786712,1.3066831827163696,-0.1052068546414375
1757954210860423400,32.66642333984375,-0.2926814258098602,1.1041343212127686,-0.1068308502435684
1757954210870379300,32.67637915039062,-0.2279466539621353,0.9378345012664796,-0.1055941358208656
1757954210880336100,32.68633618164063,-0.2386352568864822,0.8664383292198181,-0.0893629714846611
1757954210890292000,32.6962919921875,-0.3317740261554718,0.8837042450904846,-0.0513364262878894
1757954210900248000,32.706248046875,-0.4882131814956665,0.9630925059318542,-0.0060839937068521
1757954210910204000,32.716203857421874,-0.6693397760391235,1.0738260746002195,0.0408810973167419
1757954210920160000,32.726159912109374,-0.8359159827232361,1.191235065460205,0.091232419013977
1757954210930116900,32.73611694335938,-0.9655126333236694,1.2851171493530271,0.1530451625585556
1757954210940073000,32.74607299804688,-1.052150011062622,1.3388326168060305,0.2323847264051437
1757954210950028800,32.75602880859375,-1.096813678741455,1.3570857048034668,0.3259501159191131
1757954210959985000,32.76598486328125,-1.1191120147705078,1.3497062921524048,0.4141614437103271
1757954210969941000,32.77594091796875,-1.1297485828399658,1.3155696392059326,0.4956149756908417
1757954210979897000,32.78589697265625,-1.136981964111328,1.260167360305786,0.5625436902046204
1757954210989853000,32.79585302734375,-1.1459211111068726,1.1927881240844729,0.6161206960678101
1757954210999809000,32.80580908203125,-1.1573028564453125,1.1180773973464966,0.663118839263916
1757954211009764900,32.81576489257812,-1.17041277885437,1.0403865575790403,0.7055310606956482
1757954211019721000,32.82572094726562,-1.17910897731781,0.9689483046531676,0.7434307336807251
1757954211029676800,32.8356767578125,-1.179651141166687,0.9092633724212646,0.7775902152061462
1757954211039633200,32.84563305664062,-1.174863576889038,0.8547082543373108,0.8052939772605896
1757954211049589000,32.85558911132812,-1.1628636121749878,0.8050527572631836,0.8287776112556458
1757954211059545000,32.86554516601562,-1.1452726125717163,0.7458272576332092,0.8507915735244751
1757954211069502000,32.875501953125,-1.1210016012191772,0.6921829581260681,0.8692941069602966
1757954211079458000,32.8854580078125,-1.085373044013977,0.6523367762565613,0.8849009871482849
1757954211089414000,32.89541381835937,-1.0444315671920776,0.6375666260719299,0.8928476572036743
1757954211099370000,32.90536987304687,-0.9908978939056396,0.6475833058357239,0.8901357650756836
1757954211109325800,32.91532592773437,-0.9341415166854858,0.6811721324920654,0.871189296245575
1757954211119282000,32.92528198242187,-0.874960720539093,0.730976402759552,0.8435731530189514
1757954211129238000,32.93523803710937,-0.8194738626480103,0.7977998852729797,0.8125176429748535
1757954211139194000,32.94519409179688,-0.7731833457946777,0.8625807166099548,0.7819746136665344
1757954211149150000,32.95514990234375,-0.7460125684738159,0.9153578281402588,0.7453082799911499
1757954211159106000,32.96510595703125,-0.7343963980674744,0.9350340366363524,0.7068426609039307
1757954211169062000,32.975061767578126,-0.7353587746620178,0.9145386815071106,0.6664319038391113
1757954211179018000,32.98501806640625,-0.7401301264762878,0.8502236008644104,0.6130658984184265
1757954211188973800,32.994973876953125,-0.7274338603019714,0.746630072593689,0.5458461046218872
1757954211198931000,33.00493090820312,-0.6846193075180054,0.6119210124015808,0.462539792060852
1757954211208887000,33.01488696289063,-0.6110408902168274,0.4580886960029602,0.3720345795154571
1757954211218843000,33.0248427734375,-0.5192965865135193,0.2979117929935455,0.2760364115238189
1757954211228799000,33.03479907226563,-0.4232997298240661,0.152769461274147,0.1866258680820465
1757954211238755000,33.04475512695313,-0.3334329724311828,0.0442301928997039,0.0994342416524887
1757954211248711000,33.0547109375,-0.2430648803710937,-0.0087022390216588,0.0018861196003854
1757954211258667000,33.0646669921875,-0.129077598452568,0.0022446846123784,-0.0953245908021926
1757954211268622800,33.074622802734375,0.0193432830274105,0.0506304539740085,-0.1869575381278991
1757954211278579000,33.084578857421874,0.204195961356163,0.1338504999876022,-0.280440092086792
1757954211288534800,33.09453466796875,0.4367979168891907,0.214774027466774,-0.3843351304531097
1757954211298491000,33.104490966796874,0.6985214352607727,0.2295444458723068,-0.4821953773498535
1757954211308447000,33.114447021484374,0.9401163458824158,0.1626743227243423,-0.5535678267478943
1757954211318403800,33.12440380859375,1.1198267936706543,0.0461945794522762,-0.5822298526763916
1757954211328360200,33.13436010742188,1.199581503868103,-0.0695680156350135,-0.5899532437324524
1757954211338316000,33.14431591796875,1.1967554092407229,-0.1597471833229065,-0.6091261506080627
1757954211348272000,33.15427221679688,1.168952465057373,-0.2005172818899154,-0.6419048309326172
1757954211358228000,33.16422802734375,1.1632556915283203,-0.181401640176773,-0.6873511672019958
1757954211368184000,33.17418408203125,1.1944929361343384,-0.157379999756813,-0.7344747185707092
1757954211378140000,33.18413989257812,1.2431135177612305,-0.1707192510366439,-0.7856076955795288
1757954211388096000,33.19409594726562,1.3035626411437988,-0.2457030862569809,-0.8469942808151245
1757954211398052000,33.20405200195312,1.376820087432861,-0.3789208233356476,-0.9116281270980836
1757954211408008200,33.21400830078125,1.458905816078186,-0.5601887702941895,-0.969045341014862
1757954211417964000,33.22396411132812,1.5443823337554932,-0.7660923600196838,-1.0003575086593628
1757954211427921200,33.233921142578126,1.616186499595642,-0.9735801815986632,-0.9953896403312684
1757954211437877000,33.243876953125,1.6678951978683472,-1.1492290496826172,-0.9568942189216614
1757954211447833000,33.2538330078125,1.7051585912704468,-1.2617067098617554,-0.9014002680778505
1757954211457789000,33.26378881835937,1.7360848188400269,-1.2993873357772827,-0.8424466848373413
1757954211467745000,33.2737451171875,1.7573148012161257,-1.2589367628097534,-0.7904277443885803
1757954211477700900,33.28370092773437,1.7667522430419922,-1.1589441299438477,-0.7547709345817566
1757954211487657000,33.29365698242187,1.7615244388580322,-1.0206859111785889,-0.7276256084442139
1757954211497613000,33.30361303710937,1.7416597604751587,-0.8585396409034729,-0.7007542848587036
1757954211507569200,33.31356909179687,1.710004448890686,-0.6998538374900818,-0.6731065511703491
1757954211517525000,33.32352490234375,1.6636343002319336,-0.5684694051742554,-0.6465324759483337
1757954211527481000,33.33348120117188,1.6097627878189087,-0.4742619693279266,-0.6195744276046753
1757954211537437000,33.34343701171875,1.5478568077087402,-0.4230650961399078,-0.5951617360115051
1757954211547394000,33.35339404296875,1.4845874309539795,-0.4070003926753998,-0.5706421136856079
1757954211557350000,33.36334985351562,1.4213842153549194,-0.4232763051986694,-0.5507930517196655
1757954211567306000,33.37330590820312,1.3597187995910645,-0.4658761918544769,-0.5347546339035034
1757954211577261800,33.38326171875,1.2995750904083252,-0.5355338454246521,-0.5217639803886414
1757954211587218000,33.39321801757813,1.2430540323257446,-0.6331841945648193,-0.5126346945762634
1757954211597174000,33.40317407226563,1.1825776100158691,-0.7615408897399902,-0.505416214466095
1757954211607130000,33.41313012695313,1.1256178617477417,-0.8999659419059753,-0.4995196461677551
1757954211617086000,33.4230859375,1.071483492851257,-1.0473144054412842,-0.495559811592102
1757954211627042000,33.4330419921875,1.0264602899551392,-1.192672848701477,-0.497738778591156
1757954211636998000,33.442997802734375,0.9884517192840576,-1.3334174156188965,-0.5007731914520264
1757954211646954000,33.4529541015625,0.9584804773330688,-1.4500409364700315,-0.5066742300987244
1757954211656910800,33.46291088867188,0.9312171936035156,-1.517847180366516,-0.5082969069480896
1757954211666867000,33.47286694335938,0.9023335576057434,-1.538625717163086,-0.5062885880470276
1757954211676822800,33.48282275390625,0.8679095506668091,-1.5120835304260254,-0.4988360106945038
1757954211686779100,33.49277905273438,0.823725163936615,-1.450320601463318,-0.4795337617397308
1757954211696735000,33.50273486328125,0.7725503444671631,-1.367751955986023,-0.4487486779689789
1757954211706691000,33.51269116210938,0.711493730545044,-1.269990086555481,-0.3984532356262207
1757954211716647000,33.52264697265625,0.6457088589668274,-1.1614811420440674,-0.335745632648468
1757954211726603000,33.53260302734375,0.5946328639984131,-1.0556178092956543,-0.2825153768062591
1757954211736558800,33.542558837890624,0.5560569763183594,-0.9299615621566772,-0.2511768937110901
1757954211746515000,33.552514892578124,0.5326935052871704,-0.8121159076690674,-0.2469576895236969
1757954211756471800,33.56247192382813,0.5147877335548401,-0.7145531177520752,-0.2655577361583709
1757954211766428000,33.57242797851563,0.4878974854946136,-0.6412855386734009,-0.2943132221698761
1757954211776384000,33.58238403320313,0.4375344514846802,-0.5846512913703918,-0.3221922516822815
1757954211786340000,33.592340087890626,0.3679184019565582,-0.5218034386634827,-0.3423153758049011
1757954211796296000,33.6022958984375,0.2943648397922516,-0.4715980589389801,-0.3503615856170654
1757954211806252000,33.612251953125,0.2104495167732238,-0.4405757784843445,-0.3497234880924225
1757954211816208000,33.622207763671874,0.1166862770915031,-0.4375525414943695,-0.3323119878768921
1757954211826164000,33.6321640625,0.0124266175553202,-0.4323567450046539,-0.303324818611145
1757954211836119800,33.64211987304687,-0.0997630357742309,-0.4016630351543426,-0.2975098192691803
1757954211846076000,33.65207592773437,-0.2009173184633255,-0.3526617288589477,-0.3138213455677032
1757954211856032000,33.66203198242187,-0.2801919281482696,-0.3053296208381653,-0.340135782957077
1757954211865988900,33.67198876953125,-0.348772257566452,-0.269323319196701,-0.3590033650398254
1757954211875945200,33.6819453125,-0.4243557155132293,-0.2267109006643295,-0.3617717027664184
1757954211885901300,33.6919013671875,-0.5157649517059326,-0.1448563784360885,-0.3332656323909759
1757954211895857400,33.701857421875,-0.6334993243217468,0.0004177209339104,-0.2783544659614563
1757954211905813200,33.711813232421875,-0.7757436037063599,0.2068180739879608,-0.2157017141580581
1757954211915769300,33.721769287109375,-0.918744683265686,0.4193580448627472,-0.149997279047966
1757954211925725200,33.73172509765625,-1.0573792457580566,0.5905542969703674,-0.0895743146538734
1757954211935681300,33.741681396484374,-1.1825648546218872,0.697573184967041,-0.0425649881362915
1757954211945637000,33.75163720703125,-1.2657886743545532,0.7320793867111206,-0.0175726171582937
1757954211955594200,33.76159423828125,-1.299281120300293,0.6932324171066284,-0.0105559853836894
1757954211965550300,33.77155029296875,-1.2738229036331177,0.584566056728363,-0.0226137731224298
1757954211975506400,33.78150634765625,-1.1908379793167114,0.4166254997253418,-0.0407328568398952
1757954211985462500,33.791462646484376,-1.0479627847671509,0.2087922394275665,-0.0509976334869861
1757954211995418400,33.80141845703125,-0.8574165105819702,-0.0326733775436878,-0.0357963107526302
1757954212005374500,33.81137451171875,-0.6553428173065186,-0.2830554842948913,0.0193601157516241
1757954212015330300,33.821330322265624,-0.4707460701465606,-0.4976572394371032,0.0952852368354797
1757954212025286400,33.83128637695312,-0.3288416266441345,-0.6226966977119446,0.1782232522964477
1757954212035242200,33.8412421875,-0.2328900396823883,-0.6463314294815063,0.2553233802318573
1757954212045198000,33.85119799804688,-0.1725040078163147,-0.5898991227149963,0.3152863383293152
1757954212055155200,33.8611552734375,-0.1452399045228958,-0.4720649123191833,0.3672033250331878
1757954212065111300,33.871111328125,-0.1516452878713607,-0.319367915391922,0.4103990793228149
1757954212075067400,33.8810673828125,-0.1878296434879303,-0.1486414521932602,0.4592683613300323
1757954212085023500,33.8910234375,-0.2406641691923141,0.0099780652672052,0.5101180672645569
1757954212094979300,33.90097924804687,-0.2997338771820068,0.1791708171367645,0.5658958554267883
1757954212104935400,33.91093530273437,-0.3514667451381683,0.3509575724601745,0.6131659746170044
1757954212114891300,33.92089135742187,-0.3984145224094391,0.5303036570549011,0.6451380252838135
1757954212124847400,33.93084741210937,-0.4503256678581238,0.7209764122962952,0.6666919589042664
1757954212134803200,33.94080322265625,-0.5113442540168762,0.9220008850097656,0.6840571165084839
1757954212144759300,33.95075927734375,-0.5778449177742004,1.122866988182068,0.6962421536445618
1757954212154716200,33.96071606445312,-0.6487811803817749,1.3107950687408447,0.7038995623588562
1757954212164672300,33.97067236328125,-0.714600682258606,1.4833210706710815,0.7086743116378784
1757954212174628400,33.98062841796875,-0.7786451578140259,1.6102747917175293,0.7027798891067505
1757954212184584400,33.99058447265625,-0.8401205539703369,1.7164043188095093,0.698600172996521
1757954212194540300,34.00054028320312,-0.901165783405304,1.7930386066436768,0.6899113655090332
1757954212204496400,34.01049633789062,-0.9602569937705994,1.8236650228500368,0.6757659316062927
1757954212214452200,34.0204521484375,-1.012540578842163,1.8174982070922847,0.6533961892127991
1757954212224408300,34.030408203125,-1.0603150129318235,1.7910749912261963,0.6286810636520386
1757954212234364200,34.0403642578125,-1.0944870710372925,1.7435615062713623,0.5976637005805969
1757954212244321300,34.0503212890625,-1.1106796264648438,1.677790880203247,0.5643575191497803
1757954212254277000,34.06027709960937,-1.107127070426941,1.6053696870803833,0.525977373123169
1757954212264233500,34.0702333984375,-1.085116624832153,1.5331157445907593,0.4891018271446228
1757954212274189300,34.08018920898437,-1.0487805604934692,1.464845895767212,0.4586949348449707
1757954212284145400,34.0901455078125,-1.0025640726089478,1.4062682390213013,0.4378522336483001
1757954212294101200,34.10010131835938,-0.9514089822769164,1.3584864139556885,0.4177490770816803
1757954212304057300,34.11005737304688,-0.897914469242096,1.3181300163269043,0.4006265997886657
1757954212314013200,34.12001318359375,-0.8479596972465515,1.293529033660889,0.374193400144577
1757954212323969300,34.12996923828125,-0.8039045333862305,1.2756861448287964,0.3458049297332763
1757954212333926100,34.13992602539062,-0.7679393291473389,1.259890913963318,0.3175274729728699
1757954212343882200,34.14988232421875,-0.7404451370239258,1.2418136596679688,0.2824879884719848
1757954212353838000,34.15983813476562,-0.7202916741371155,1.2122200727462769,0.2457704693078994
1757954212363794400,34.16979443359375,-0.708396852016449,1.16517174243927,0.2207346856594085
1757954212373750300,34.17975024414063,-0.6977421045303345,1.103853464126587,0.2090569883584976
1757954212383706400,34.18970629882813,-0.686830461025238,1.0185033082962036,0.2101219594478607
1757954212393662200,34.199662109375,-0.6708871722221375,0.9151158928871156,0.2077187150716781
1757954212403618300,34.20961840820313,-0.6519826650619507,0.7908382415771484,0.2175691872835159
1757954212413574100,34.21957421875,-0.6225690841674805,0.6506816744804382,0.217859998345375
1757954212423531300,34.22953125,-0.5744102597236633,0.4851301908493042,0.1993653625249862
1757954212433487400,34.2394873046875,-0.514885425567627,0.2883753478527069,0.1636020243167877
1757954212443443200,34.24944311523438,-0.4543593823909759,0.0551057420670986,0.1194055750966072
1757954212453399300,34.2593994140625,-0.3914432525634765,-0.1874536424875259,0.0733294263482093
1757954212463355400,34.26935546875,-0.3113864958286285,-0.4099510014057159,0.0344858653843402
1757954212473311500,34.2793115234375,-0.2089621126651764,-0.5869575142860413,0.0015010191127657
1757954212483267300,34.28926733398438,-0.0819018855690956,-0.7049104571342468,-0.0285816807299852
1757954212493223400,34.29922338867188,0.0496478863060474,-0.7538247108459473,-0.0508507676422596
1757954212503179300,34.30917919921875,0.1592835932970047,-0.7243764400482178,-0.0685006231069564
1757954212513135400,34.31913525390625,0.2368657290935516,-0.6062173247337341,-0.0794531404972076
1757954212523092200,34.32909228515625,0.2739551663398742,-0.4362740516662597,-0.0894016847014427
1757954212533048300,34.33904833984375,0.2761378884315491,-0.2341284155845642,-0.0917492657899856
1757954212543004200,34.34900415039063,0.2493483573198318,-0.019070565700531,-0.0827147364616394
1757954212552960500,34.35896044921875,0.2243915945291519,0.193893626332283,-0.0753708034753799
1757954212562916400,34.368916259765626,0.2396503537893295,0.4037071168422699,-0.0730367451906204
1757954212572872400,34.37887255859375,0.2890120446681976,0.5870979428291321,-0.0781153962016105
1757954212582828300,34.388828369140626,0.3496380746364593,0.7160436511039734,-0.0759300217032432
1757954212592784400,34.398784423828126,0.4000053703784942,0.7657933831214905,-0.0717427283525466
1757954212602741200,34.4087412109375,0.4297667145729065,0.7274879813194275,-0.0648622587323188
1757954212612697300,34.418697265625,0.4431056976318359,0.6186930537223816,-0.0645205751061439
1757954212622653200,34.42865307617188,0.4517660439014435,0.4556135535240173,-0.0778810158371925
1757954212632609300,34.438609375,0.4781851470470428,0.2571265697479248,-0.1120589599013328
1757954212642565400,34.4485654296875,0.5380517244338989,0.0211661215871572,-0.1611378937959671
1757954212652521500,34.458521484375,0.6292639374732971,-0.2396452277898788,-0.2223668992519378
1757954212662477300,34.468477294921875,0.7436656355857849,-0.5187250971794128,-0.2912463247776031
1757954212672433400,34.478433349609375,0.8695926666259766,-0.8001165986061096,-0.3632256984710693
1757954212682389200,34.48838916015625,0.9948464632034302,-1.0653765201568604,-0.4263660311698913
1757954212692346400,34.49834643554688,1.0972648859024048,-1.3090499639511108,-0.4721811711788177
1757954212702302200,34.50830224609375,1.1727664470672607,-1.524125099182129,-0.5027806758880615
1757954212712258300,34.51825830078125,1.2237286567687988,-1.6824707984924316,-0.5182557702064514
1757954212722214100,34.528214111328126,1.259913444519043,-1.7669589519500732,-0.526282787322998
1757954212732170200,34.538170166015625,1.278820276260376,-1.7768328189849854,-0.5238636136054993
1757954212742126300,34.548126220703125,1.2712234258651731,-1.7280901670455933,-0.510788083076477
1757954212752082400,34.55808251953125,1.2338051795959473,-1.6312355995178225,-0.4825769066810608
1757954212762038300,34.568038330078124,1.174829125404358,-1.501605987548828,-0.4498467743396759
1757954212771995400,34.57799536132813,1.1117398738861084,-1.3515543937683103,-0.422419399023056
1757954212781951500,34.58795141601563,1.0630284547805786,-1.1928924322128296,-0.4022766649723053
1757954212791907300,34.5979072265625,1.0294556617736816,-1.0387904644012451,-0.3929292261600494
1757954212801863400,34.60786352539063,1.0112204551696775,-0.8972995281219482,-0.3891941905021667
1757954212811819300,34.6178193359375,1.0068172216415403,-0.7794373631477356,-0.3902679681777954
1757954212821775400,34.627775390625,1.010952711105347,-0.6937235593795776,-0.3904359340667724
1757954212831731200,34.637731201171874,1.029624104499817,-0.6381143927574158,-0.3916915953159332
1757954212841687300,34.647687255859374,1.0526431798934937,-0.6034016609191895,-0.3923837840557098
1757954212851643400,34.657643310546874,1.0775346755981443,-0.593883216381073,-0.3933382630348205
1757954212861600500,34.6676005859375,1.0953502655029297,-0.6053193211555481,-0.3889001607894897
1757954212871556400,34.67755639648438,1.0979169607162476,-0.6416480541229248,-0.3821112513542175
1757954212881512200,34.68751220703125,1.0828111171722412,-0.6931853294372559,-0.3722556829452514
1757954212891468000,34.697468017578124,1.059141755104065,-0.7555350065231323,-0.3611692190170288
1757954212901424000,34.707424072265624,1.0300077199935913,-0.8097038269042969,-0.3524978756904602
1757954212911380000,34.7173798828125,1.0030754804611206,-0.8718958497047424,-0.3444319665431976
1757954212921336000,34.727336181640624,0.9723033905029296,-0.9317295551300048,-0.3325101137161255
1757954212931292200,34.73729223632812,0.938590168952942,-0.9772387146949768,-0.3165388703346252
1757954212941249000,34.7472490234375,0.9056402444839478,-1.001495599746704,-0.298190712928772
1757954212951205000,34.757205078125,0.8821676969528198,-0.9820444583892822,-0.2730456888675689
1757954212961161200,34.7671611328125,0.8728142380714417,-0.9185225367546082,-0.2438614517450332
1757954212971117000,34.777116943359374,0.8774494528770447,-0.8221976161003113,-0.2212277799844741
1757954212981073200,34.7870732421875,0.886372983455658,-0.6978559494018555,-0.1999246478080749
1757954212991029000,34.79702905273437,0.8886609077453613,-0.5668390393257141,-0.1619554311037063
1757954213000985000,34.80698510742187,0.8550887703895569,-0.4380676746368408,-0.1188414618372917
1757954213010941000,34.81694091796875,0.7693735957145691,-0.3277648687362671,-0.0883978009223938
1757954213020898000,34.82689794921875,0.6345704793930054,-0.2237058579921722,-0.0731681957840919
1757954213030854100,34.83685424804688,0.4788000583648681,-0.1230895072221756,-0.0654362365603447
1757954213040810000,34.84681005859375,0.3050107061862945,-0.0065214838832616,-0.0607019662857055
1757954213050766000,34.85676611328125,0.1129887998104095,0.1448477953672409,-0.036761213093996
1757954213060722200,34.86672216796875,-0.0818963721394538,0.3481995463371277,-0.0103040421381592
1757954213070678000,34.87667797851562,-0.2497881650924682,0.6137558817863464,0.0046346941962838
1757954213080634000,34.88663403320312,-0.356645405292511,0.9586674571037292,-0.0001442984212189
1757954213090590000,34.89658984375,-0.4161577522754669,1.3254011869430542,-0.0125010991469025
1757954213100547000,34.906547119140626,-0.4700416028499603,1.6283425092697144,-0.0094536896795034
1757954213110503200,34.916503173828126,-0.5558739304542542,1.8080071210861208,0.0221204832196235
1757954213120459000,34.926458984375,-0.6758604049682617,1.87057101726532,0.0689327418804168
1757954213130415000,34.9364150390625,-0.7926389575004578,1.842852234840393,0.1182361096143722
1757954213140371200,34.94637109375,-0.8729475736618042,1.7555545568466189,0.153949037194252
1757954213150327300,34.956327392578125,-0.9105817675590516,1.613475680351257,0.1793324202299118
1757954213160283100,34.966283203125,-0.929917573928833,1.4231295585632324,0.1860372275114059
1757954213170239200,34.9762392578125,-0.930213451385498,1.2089903354644775,0.1707410961389541
1757954213180196000,34.98619604492188,-0.8989591002464294,0.963909387588501,0.1427683383226394
1757954213190152200,34.996152099609375,-0.8430433869361877,0.6986084580421448,0.1049391999840736
1757954213200108000,35.00610791015625,-0.7670114636421204,0.444656491279602,0.0693734511733055
1757954213210064100,35.016064208984375,-0.672217607498169,0.2360412180423736,0.0510517098009586
1757954213220020000,35.02602001953125,-0.5689930319786072,0.0833953320980072,0.0526315160095691
1757954213229976000,35.03597607421875,-0.4779259860515594,-0.0197044238448143,0.0829667821526527
1757954213239932200,35.04593212890625,-0.4249309599399566,-0.0695711895823478,0.1449720710515976
1757954213249888300,35.05588818359375,-0.4063847064971924,-0.0554660186171531,0.2263904958963394
1757954213259845000,35.06584521484375,-0.425071656703949,0.0233988910913467,0.2999574244022369
1757954213269801200,35.07580126953125,-0.4757374823093414,0.1508790850639343,0.364172101020813
1757954213279757000,35.085757080078125,-0.557245135307312,0.3225475251674652,0.410827487707138
1757954213289713200,35.095713134765624,-0.658257782459259,0.5042794942855835,0.4423566460609436
1757954213299669000,35.1056689453125,-0.7633650898933411,0.6970781087875366,0.4629090130329132
1757954213309625000,35.115625,-0.8598191738128662,0.9032544493675232,0.4855368435382843
1757954213319581000,35.12558081054687,-0.9332164525985718,1.1007640361785889,0.5120748281478882
1757954213329538000,35.1355380859375,-0.9843928217887878,1.2926961183547974,0.5354666709899902
1757954213339494100,35.145494140625,-1.0197733640670776,1.4663721323013306,0.5621945858001709
1757954213349450000,35.155449951171875,-1.0526539087295532,1.607839822769165,0.5899841785430908
1757954213359406000,35.165406005859374,-1.0818674564361572,1.7032970190048218,0.6254338026046753
1757954213369362200,35.175362060546874,-1.111858367919922,1.763342261314392,0.657735288143158
1757954213379318000,35.185318115234374,-1.144213318824768,1.7781018018722534,0.6926037073135376
1757954213389274000,35.19527416992187,-1.1780112981796265,1.7708667516708374,0.7241965532302856
1757954213399230000,35.20522998046875,-1.209538221359253,1.7406717538833618,0.7445063591003418
1757954213409187000,35.21518701171875,-1.230605959892273,1.7008936405181885,0.7609159350395203
1757954213419143200,35.22514306640625,-1.235720992088318,1.64924156665802,0.7689030170440674
1757954213429099000,35.23509912109375,-1.2309752702713013,1.585781812667847,0.7606760263442993
1757954213439055000,35.24505517578125,-1.215200662612915,1.5137523412704468,0.7531812787055969
1757954213449011200,35.25501123046875,-1.1936042308807373,1.4302771091461182,0.751229465007782
1757954213458967300,35.26496728515625,-1.1663542985916138,1.3343238830566406,0.7551859617233276
1757954213468923100,35.27492309570312,-1.1396174430847168,1.2372090816497805,0.7580861449241638
1757954213478880300,35.28488037109375,-1.1109005212783811,1.139284372329712,0.7535950541496277
1757954213488836000,35.294836181640626,-1.089050054550171,1.0381255149841309,0.7445155382156372
1757954213498792200,35.304792236328126,-1.065437078475952,0.9361775517463684,0.7259275913238525
1757954213508748000,35.314748046875,-1.037733793258667,0.8321518301963806,0.6985862851142883
1757954213518704000,35.3247041015625,-1.0027360916137695,0.7276438474655151,0.6669410467147827
1757954213528660000,35.33465991210937,-0.9463367462158204,0.590846598148346,0.6297273635864258
1757954213538616000,35.34461596679687,-0.8641799688339233,0.42557492852211,0.588627815246582
1757954213548572200,35.354572265625,-0.7586202621459961,0.2179538011550903,0.5417401790618896
1757954213558529000,35.364529052734376,-0.6316217184066772,-0.0045314347371459,0.4873848557472229
1757954213568485000,35.37448510742188,-0.4709449708461761,-0.2296495139598846,0.4181315004825592
1757954213578441200,35.384441162109376,-0.2701895236968994,-0.4252627491950989,0.3303134441375732
1757954213588397000,35.39439697265625,-0.0518619567155838,-0.5650217533111572,0.235048696398735
1757954213598353200,35.404353271484375,0.1380113214254379,-0.6639726161956787,0.1451310813426971
1757954213608309000,35.41430908203125,0.2473266422748565,-0.6850422024726868,0.0790114626288414
1757954213618265000,35.42426513671875,0.2808768451213836,-0.6123992800712585,0.0317928418517112
1757954213628222200,35.43422216796875,0.2624000906944275,-0.4599942862987518,0.0022346833720803
1757954213638178000,35.444177978515626,0.2213148325681686,-0.2552920281887054,-0.005937713664025
1757954213648134000,35.4541337890625,0.1782371401786804,-0.0222523976117372,0.0001076618791557
1757954213658090200,35.46409033203125,0.1476793885231018,0.2076558768749237,0.0110053122043609
1757954213668046000,35.474046142578125,0.1385253071784973,0.4106441438198089,0.0268772188574075
1757954213678002200,35.484002197265625,0.1512512862682342,0.5636328458786011,0.0353833027184009
1757954213687958000,35.4939580078125,0.1779377460479736,0.6367680430412292,0.0281512252986431
1757954213697914000,35.5039140625,0.2134944200515747,0.5995916724205017,0.0075511415489017
1757954213707871200,35.51387133789063,0.2477724999189376,0.4551988244056701,-0.0207340251654386
1757954213717827000,35.5238271484375,0.2847086489200592,0.2373010665178299,-0.0620307773351669
1757954213727783200,35.533783203125,0.3355193436145782,-0.0223779082298278,-0.1209936961531639
1757954213737739000,35.543739013671875,0.4092941284179687,-0.3097763061523437,-0.2053603231906891
1757954213747695000,35.553695068359374,0.5137653946876526,-0.6106740832328796,-0.3060837388038635
1757954213757651200,35.563651123046874,0.6429349184036255,-0.9175978899002076,-0.4082069098949432
1757954213767607300,35.573607177734374,0.7889123558998108,-1.213952898979187,-0.5073279142379761
1757954213777563100,35.583563232421874,0.9396046996116638,-1.487797498703003,-0.5934258103370667
1757954213787520300,35.59352026367188,1.0868030786514282,-1.7305275201797483,-0.6680129766464233
1757954213797476000,35.60347607421875,1.2242587804794312,-1.9400707483291624,-0.7357890605926514
1757954213807432200,35.61343212890625,1.3542839288711548,-2.10336709022522,-0.7986755967140198
1757954213817388000,35.623387939453124,1.4867782592773438,-2.2160754203796387,-0.8552241325378418
1757954213827344100,35.63334423828125,1.601306676864624,-2.283991575241089,-0.9021852612495422
1757954213837300000,35.643300048828124,1.6896474361419678,-2.325007200241089,-0.9359501004219056
1757954213847256000,35.65325610351562,1.738638401031494,-2.3451898097991943,-0.9460881948471068
1757954213857213000,35.663212890625,1.7550876140594482,-2.351414203643799,-0.934726893901825
1757954213867169000,35.6731689453125,1.751069188117981,-2.336405038833618,-0.9068321585655212
1757954213877125400,35.68312548828125,1.736503005027771,-2.300408124923706,-0.8630180954933167
1757954213887081200,35.693081298828126,1.7181659936904907,-2.239809036254883,-0.8083226084709167
1757954213897037300,35.703037353515626,1.7061618566513062,-2.1541364192962646,-0.75002521276474
1757954213906993200,35.7129931640625,1.703472137451172,-2.0491788387298584,-0.6882873177528381
1757954213916949200,35.72294921875,1.7044850587844849,-1.9212977886199951,-0.6323535442352295
1757954213926905000,35.73290502929687,1.7074129581451416,-1.770755648612976,-0.5812962055206299
1757954213936862200,35.7428623046875,1.7077335119247437,-1.6190179586410522,-0.5364305973052979
1757954213946818000,35.752818115234376,1.6981256008148191,-1.465684413909912,-0.502044677734375
1757954213956774100,35.76277416992188,1.6797281503677368,-1.3225305080413818,-0.4687773287296295
1757954213966730200,35.772730224609376,1.6463563442230225,-1.1793522834777832,-0.4385038614273071
1757954213976686300,35.782686279296875,1.6001816987991333,-1.0431731939315796,-0.4084706008434295
1757954213986642200,35.79264208984375,1.542819619178772,-0.9029554128646852,-0.3787973821163177
1757954213996598300,35.802598388671875,1.4800186157226562,-0.7716704607009888,-0.3507185578346252
1757954214006555100,35.81255517578125,1.4187744855880735,-0.6662500500679016,-0.3249711096286773
1757954214016511200,35.82251123046875,1.3595846891403198,-0.5525738000869751,-0.2941064834594726
1757954214026467000,35.832467041015626,1.3038064241409302,-0.4250467419624328,-0.2684783637523651
1757954214036423200,35.842423095703126,1.2592239379882812,-0.3253015279769897,-0.2544118165969848
1757954214046379000,35.85237890625,1.2092227935791016,-0.2422788292169571,-0.2454244494438171
1757954214056335000,35.862335205078125,1.1497535705566406,-0.1950502246618271,-0.2359526306390762
1757954214066291200,35.872291259765625,1.0837721824645996,-0.1534500569105148,-0.2191763073205948
1757954214076247300,35.882247314453124,1.017680525779724,-0.1172050684690475,-0.2009000778198242
1757954214086204400,35.89220434570313,0.9647778868675232,-0.074043221771717,-0.1877970546483993
1757954214096160300,35.90216015625,0.9326000213623048,-0.0296444613486528,-0.1850186139345169
1757954214106116400,35.91211645507813,0.9053305387496948,-0.011689961887896,-0.1915023326873779
1757954214116072200,35.922072265625,0.8539394736289978,-0.0315500795841217,-0.1966123431921005
1757954214126028300,35.9320283203125,0.7396661639213562,-0.0837525650858879,-0.190771222114563
1757954214135984000,35.941984130859375,0.5570018291473389,-0.1380659639835357,-0.1835392117500305
1757954214145940200,35.951940185546874,0.3312571346759796,-0.1438492834568023,-0.1731251776218414
1757954214155897000,35.96189697265625,0.0853892117738723,-0.0715817138552665,-0.1595985442399978
1757954214165853200,35.97185327148438,-0.1435680836439132,0.1020798236131668,-0.1541973799467086
1757954214175809000,35.98180908203125,-0.3234432637691498,0.3922300338745117,-0.1735992431640625
1757954214185765400,35.99176538085938,-0.4457374811172485,0.7552420496940613,-0.1856830716133117
1757954214195721200,36.00172119140625,-0.5511033535003662,1.101457595825195,-0.1691461503505706
1757954214205677300,36.01167724609375,-0.676936149597168,1.356162667274475,-0.1155167520046234
1757954214215633200,36.021633056640624,-0.8401534557342529,1.5365049839019775,-0.0412470437586307
1757954214225589200,36.03158935546875,-1.0187948942184448,1.6649998426437378,0.0256923083215951
1757954214235546000,36.04154614257813,-1.1815677881240845,1.7440789937973022,0.072119191288948
1757954214245502200,36.05150219726563,-1.2994250059127808,1.7407982349395752,0.10641510784626
1757954214255458000,36.0614580078125,-1.3762422800064087,1.636064529418945,0.1338688880205154
1757954214265414100,36.0714140625,-1.4210565090179443,1.4399592876434326,0.1474060118198394
1757954214275370200,36.081370361328126,-1.433711290359497,1.1851028203964231,0.1315242350101471
1757954214285326300,36.091326416015626,-1.398302435874939,0.8977131843566895,0.0794098898768425
1757954214295282200,36.1012822265625,-1.3030080795288086,0.6037857532501221,0.0058714067563414
1757954214305239300,36.1112392578125,-1.1563808917999268,0.3223697543144226,-0.063736967742443
1757954214315195100,36.12119506835938,-0.9941044449806212,0.0845129787921905,-0.1013482138514518
1757954214325151200,36.13115112304688,-0.858528196811676,-0.0888713225722312,-0.0838155597448349
1757954214335107000,36.141107177734376,-0.7712454199790955,-0.2034413367509842,0.0080827185884118
1757954214345063200,36.15106323242188,-0.7364970445632935,-0.2498842030763626,0.1599888950586319
1757954214355019000,36.16101904296875,-0.7382284998893738,-0.2333105206489563,0.321800947189331
1757954214364975000,36.17097509765625,-0.7794116139411926,-0.1663906127214431,0.4574248492717743
1757954214374931200,36.18093115234375,-0.8604850172996521,-0.0221769046038389,0.5490692257881165
1757954214384888000,36.19088818359375,-0.9665725827217102,0.1636986881494522,0.6008152365684509
1757954214394844400,36.20084448242188,-1.0812605619430542,0.3746107220649719,0.6270313858985901
1757954214404800300,36.21080029296875,-1.187369704246521,0.5872782468795776,0.6478615403175354
1757954214414756400,36.22075634765625,-1.2740802764892578,0.7780187129974365,0.6688387393951416
1757954214424712200,36.230712158203126,-1.3368937969207764,0.9614670872688292,0.7013277411460876
1757954214434668300,36.24066821289063,-1.3658905029296875,1.1175023317337036,0.7336995005607605
1757954214444624100,36.2506240234375,-1.366498947143555,1.2410542964935305,0.7687475085258484
1757954214454581200,36.26058129882812,-1.35230553150177,1.3437097072601318,0.8057540059089661
1757954214464537000,36.270537109375,-1.331458568572998,1.3911179304122925,0.8410912156105042
1757954214474493200,36.2804931640625,-1.317759990692139,1.432039499282837,0.8848983645439148
1757954214484449000,36.290448974609376,-1.3195650577545166,1.4607694149017334,0.929046094417572
1757954214494405400,36.3004052734375,-1.330206274986267,1.476710081100464,0.9683594107627868
1757954214504361200,36.310361328125,-1.3480758666992188,1.4885518550872805,0.9960075616836548
1757954214514317300,36.3203173828125,-1.3669196367263794,1.507254719734192,1.019309163093567
1757954214524273200,36.330273193359375,-1.3746899366378784,1.5325273275375366,1.034096121788025
1757954214534230300,36.34023022460938,-1.3716764450073242,1.562849521636963,1.0395936965942385
1757954214544186000,36.35018603515625,-1.3566324710845947,1.6046265363693235,1.0404800176620483
1757954214554142200,36.36014208984375,-1.3396871089935305,1.6340795755386353,1.0352861881256104
1757954214564098000,36.37009814453125,-1.3276523351669312,1.6507176160812378,1.0289044380187988
1757954214574054100,36.38005419921875,-1.3138020038604736,1.6360857486724854,1.0157155990600586
1757954214584010200,36.39001025390625,-1.29806649684906,1.598624587059021,0.9932518601417542
1757954214593966300,36.39996630859375,-1.272631049156189,1.5349692106246948,0.9632213711738586
1757954214603922200,36.409922119140624,-1.2474548816680908,1.428939700126648,0.9286959171295166
1757954214613879300,36.41987939453125,-1.2256238460540771,1.3049548864364624,0.889076292514801
1757954214623835100,36.42983520507813,-1.1993345022201538,1.1695866584777832,0.8460726737976074
1757954214633791200,36.43979125976563,-1.1588672399520874,1.0341105461120603,0.7946507930755615
1757954214643747000,36.4497470703125,-1.0845493078231812,0.8892165422439575,0.7303264141082764
1757954214653703200,36.459703125,-0.9751226305961608,0.7364857196807861,0.6504791975021362
1757954214663659000,36.46965893554688,-0.8323670625686646,0.5716900825500488,0.5565156936645508
1757954214673615000,36.47961499023437,-0.6609356999397278,0.4009186923503876,0.4519425928592682
1757954214683572200,36.489572265625,-0.4712640047073364,0.2286928594112396,0.3441950976848602
1757954214693528000,36.49952807617188,-0.282005101442337,0.062094010412693,0.2409047931432724
1757954214703484400,36.509484375,-0.1262061893939972,-0.0810471698641777,0.1607524305582046
1757954214713440300,36.51944018554688,-0.0273273810744285,-0.1538996547460556,0.090917095541954
1757954214723396400,36.52939624023438,0.0144275221973657,-0.1342327445745468,0.0214767660945653
1757954214733352200,36.53935229492188,0.0350706875324249,-0.0317270793020725,-0.0608825460076332
1757954214743308300,36.549308349609376,0.0632053837180137,0.1088034063577652,-0.1426983177661895
1757954214753264000,36.55926416015625,0.1019238755106926,0.229313462972641,-0.213342934846878
1757954214763221200,36.56922119140625,0.1450569629669189,0.3190215229988098,-0.2690653204917907
1757954214773177000,36.57917700195313,0.204123392701149,0.3752426207065582,-0.3161915242671966
1757954214783133200,36.58913330078125,0.2922564744949341,0.3896625638008117,-0.3553594350814819
1757954214793089000,36.59908911132813,0.4039041399955749,0.3516300320625305,-0.3924295902252197
1757954214803045400,36.60904541015625,0.5166764855384827,0.2438401877880096,-0.4390205442905426
1757954214813001200,36.619001220703126,0.6169800758361816,0.072493702173233,-0.493423581123352
1757954214822957300,36.62895727539063,0.7011213302612305,-0.1534427553415298,-0.5593621134757996
1757954214832914200,36.6389140625,0.7697402238845825,-0.4217064678668976,-0.6381844282150269
1757954214842870300,36.64887036132812,0.8351213335990906,-0.7280482649803162,-0.7206175327301025
1757954214852826000,36.658826171875,0.9077991843223572,-1.058399677276611,-0.8066859245300293
1757954214862782200,36.6687822265625,1.0030444860458374,-1.4079339504241943,-0.8843761682510376
1757954214872738000,36.678738037109376,1.1262964010238647,-1.7621843814849854,-0.9486779570579528
1757954214882693400,36.688693359375,1.2705103158950806,-2.102035522460937,-0.9984614849090576
1757954214892649500,36.6986494140625,1.420986533164978,-2.395819902420044,-1.0253758430480957
1757954214902605300,36.70860522460937,1.5579036474227903,-2.616364002227783,-1.0322591066360474
1757954214912562400,36.7185625,1.6793997287750244,-2.7405600547790527,-1.021464228630066
1757954214922518300,36.72851831054688,1.792193055152893,-2.7643160820007324,-1.0025423765182495
1757954214932474400,36.73847436523437,1.895661234855652,-2.6980504989624023,-0.9780502915382384
1757954214942430200,36.74843017578125,1.9855239391326904,-2.5765531063079834,-0.9512091279029846
1757954214952386300,36.75838623046875,2.0528440475463867,-2.4310927391052246,-0.9247727394104004
1757954214962342100,36.76834204101562,2.095794916152954,-2.2944529056549072,-0.8946145176887512
1757954214972298500,36.77829858398437,2.109085321426392,-2.19690489768982,-0.8552845120429993
1757954214982254300,36.78825439453125,2.1033501625061035,-2.1418023109436035,-0.8077369928359985
1757954214992211500,36.79821142578125,2.0848348140716557,-2.119256019592285,-0.7603088021278381
1757954215002167300,36.80816723632813,2.057600498199463,-2.124340534210205,-0.7160553336143494
1757954215012123400,36.81812329101562,2.0256359577178955,-2.135443925857544,-0.6622065305709839
1757954215022079200,36.82807934570312,1.9936368465423584,-2.153631687164306,-0.606682538986206
1757954215032035300,36.83803540039062,1.9578237533569336,-2.155687093734741,-0.5425692796707153
1757954215041991200,36.8479912109375,1.9185725450515747,-2.123441457748413,-0.4762190282344818
1757954215051947300,36.857947265625,1.875768780708313,-2.044031381607056,-0.4115869700908661
1757954215061903400,36.8679033203125,1.838833451271057,-1.9265872240066528,-0.3443919420242309
1757954215071860200,36.877860107421874,1.8040268421173096,-1.764925479888916,-0.2719569802284241
1757954215081816300,36.88781640625,1.766638994216919,-1.5575016736984253,-0.2012593746185302
1757954215091772400,36.8977724609375,1.7262271642684937,-1.306802749633789,-0.1392663419246673
1757954215101728300,36.90772827148437,1.6795635223388672,-1.029882788658142,-0.0859088376164436
1757954215111684400,36.91768432617187,1.6229792833328247,-0.7382214069366455,-0.0401755832135677
1757954215121640200,36.92764013671875,1.5577954053878784,-0.4746012389659881,0.0001558599760755
1757954215131596300,36.93759619140625,1.4761815071105957,-0.2487139105796814,0.0386684648692607
1757954215141553400,36.94755346679688,1.3913021087646484,-0.0756710171699523,0.0663421675562858
1757954215151509200,36.95750927734375,1.292710542678833,0.0989560708403587,0.0976782813668251
1757954215161465300,36.96746533203125,1.1902172565460205,0.2593377828598022,0.1239168122410774
1757954215171421200,36.97742114257812,1.0952616930007937,0.3951155841350555,0.144244983792305
1757954215181377500,36.98737744140625,1.0140379667282104,0.5066884160041809,0.1582590639591217
1757954215191333400,36.99733349609375,0.9485651850700378,0.6076793670654297,0.1606583446264267
1757954215201289500,37.00728955078125,0.9070558547973632,0.7028535604476929,0.1456828564405441
1757954215211245300,37.01724536132812,0.874854564666748,0.7760840654373169,0.1088861674070358
1757954215221202400,37.027202392578126,0.835125744342804,0.7911365032196045,0.0607367530465126
1757954215231158300,37.037158203125,0.758460521697998,0.7311656475067139,0.0183608476072549
1757954215241114400,37.0471142578125,0.6288833618164062,0.5803263187408447,-0.0158895347267389
1757954215251070200,37.0570703125,0.452505886554718,0.3611900210380554,-0.0401677452027797
1757954215261026300,37.0670263671875,0.2400418370962143,0.1304697096347808,-0.0457470677793026
1757954215270982100,37.07698217773437,0.009222824126482,-0.0787504613399505,-0.0420468486845493
1757954215280938500,37.0869384765625,-0.2120507210493087,-0.1837866008281707,-0.0373514294624328
1757954215290894300,37.09689428710937,-0.3773555159568786,-0.1751466393470764,-0.0551615580916404
1757954215300851500,37.1068515625,-0.442213624715805,-0.0123465377837419,-0.1073222309350967
1757954215310807300,37.11680737304688,-0.4421336054801941,0.2708589732646942,-0.1619298309087753
1757954215320763400,37.126763427734375,-0.4888515770435333,0.5720353126525879,-0.1826159358024597
1757954215330719200,37.13671923828125,-0.6528676748275757,0.8479079604148865,-0.1478300541639328
1757954215340675300,37.14667529296875,-0.9305493235588074,1.1213631629943848,-0.0769848972558975
1757954215350631200,37.15663110351562,-1.2571361064910889,1.3773967027664185,0.0019818551372736
1757954215360587300,37.16658715820312,-1.560115933418274,1.5880767107009888,0.0648242011666297
1757954215370543400,37.17654345703125,-1.7966736555099487,1.6929688453674316,0.1103482320904731
1757954215380500200,37.18650024414063,-1.9535233974456787,1.6910539865493774,0.1326410174369812
1757954215390456300,37.19645629882813,-2.038327217102051,1.6131246089935305,0.1333558112382888
1757954215400412400,37.20641235351562,-2.0477755069732666,1.4997011423110962,0.1037822142243385
1757954215410368300,37.2163681640625,-1.977458119392395,1.3857355117797852,0.0600401163101196
1757954215420324400,37.226324462890624,-1.825783848762512,1.260667085647583,0.0175493825227022
1757954215430280200,37.2362802734375,-1.621163249015808,1.0851548910140991,0.0151888681575655
1757954215440236300,37.246236328125,-1.4065353870391846,0.8648016452789307,0.0655260756611824
1757954215450192100,37.25619213867188,-1.2397727966308594,0.6283882260322571,0.1709108501672744
1757954215460148200,37.26614819335938,-1.1451224088668823,0.4440546035766601,0.3192960619926452
1757954215470105300,37.276105224609374,-1.1350746154785156,0.321652352809906,0.4689532220363617
1757954215480061200,37.28606127929688,-1.1985074281692505,0.2711356580257416,0.5801138281822205
1757954215490017500,37.296017578125,-1.316257119178772,0.2676726877689361,0.6382988095283508
1757954215499973400,37.30597338867187,-1.472435474395752,0.3259117603302002,0.6514013409614563
1757954215509929500,37.31592944335937,-1.6270910501480105,0.4426510334014892,0.639097273349762
1757954215519885300,37.32588525390625,-1.7531672716140747,0.621471107006073,0.6287021040916443
1757954215529841400,37.33584130859375,-1.845770478248596,0.8211292028427124,0.6298458576202393
1757954215539797200,37.34579736328125,-1.904200792312622,1.01886248588562,0.6522939205169678
1757954215549754400,37.35575439453125,-1.9326940774917605,1.1715754270553589,0.6923450231552124
1757954215559710200,37.36571020507812,-1.9292514324188232,1.2708131074905396,0.7468913793563843
1757954215569666300,37.37566625976562,-1.9092588424682615,1.3264509439468384,0.8044478893280029
1757954215579622100,37.3856220703125,-1.886930108070373,1.3677940368652344,0.8679195046424866
1757954215589578500,37.39557861328125,-1.869038820266724,1.3890217542648315,0.92324036359787
1757954215599534300,37.40553442382812,-1.8636372089385984,1.4131834506988523,0.9650386571884156
1757954215609490400,37.41549047851562,-1.8633829355239868,1.462065577507019,0.9994202256202698
1757954215619446300,37.4254462890625,-1.859932541847229,1.5104235410690308,1.0194215774536133
1757954215629403400,37.4354033203125,-1.853585124015808,1.5504848957061768,1.0315964221954346
1757954215639359200,37.44535913085937,-1.8458452224731443,1.5917268991470337,1.0405904054641724
1757954215649315300,37.4553154296875,-1.8313664197921755,1.5985536575317385,1.0520570278167725
1757954215659271200,37.46527124023437,-1.803818702697754,1.6069562435150146,1.0572720766067505
1757954215669227300,37.47522729492187,-1.7669873237609863,1.5963596105575562,1.0573915243148804
1757954215679183400,37.48518334960937,-1.7138612270355225,1.5627449750900269,1.053406834602356
1757954215689139500,37.49513940429687,-1.6443027257919312,1.5124281644821167,1.0419080257415771
1757954215699095300,37.50509521484375,-1.5536208152770996,1.4393563270568848,1.0266369581222534
1757954215709052400,37.515052490234375,-1.4504785537719729,1.362038254737854,1.009169101715088
1757954215719008300,37.52500830078125,-1.3433867692947388,1.2998944520950315,0.98883855342865
1757954215728964400,37.53496435546875,-1.2385869026184082,1.2535845041275024,0.9606406092643738
