time,seconds_elapsed,z,y,x
1757614240220140800,25.045140869140624,-2.5022400100708007,17.81151361312866,-1.1472715080261229
1757614240230097000,25.055096923828124,-2.362927400970459,16.01631128082275,-2.0491373458862303
1757614240240052700,25.065052734375,-2.3211785095214843,14.221408223724364,-2.597409526062012
1757614240250008800,25.0750087890625,-2.2930466400146483,12.317568991088866,-2.6906337532043456
1757614240259964700,25.08496459960937,-2.0816087059021,10.440814164733888,-2.521094348144531
1757614240269920800,25.094920654296875,-1.7108067237854003,8.748712141418457,-2.480991470336914
1757614240279876600,25.10487670898437,-1.3474866218566894,7.288548403930664,-2.8381764305114743
1757614240289832700,25.114832763671878,-1.1451765815734862,5.942408520507812,-3.4112884529113767
1757614240299788800,25.124788818359374,-1.0099041877746582,4.550778805541992,-3.938312093353271
1757614240309745000,25.134744873046877,-0.8077437850952148,3.0741549316406247,-4.2390836769104006
1757614240319700700,25.14470068359375,-0.5544073219299316,1.5071499450683592,-4.34128616027832
1757614240329656800,25.15465673828125,-0.409857396697998,-0.1259948623657226,-4.537161783599854
1757614240339612700,25.16461279296875,-0.296881005859375,-1.7916110298156738,-4.91604419631958
1757614240349568800,25.17456884765625,-0.1614589744567871,-3.3439515312194823,-5.538686265563965
1757614240359524600,25.184524658203124,-0.0523731613159179,-4.565443290710449,-6.335506505584717
1757614240369481000,25.19448095703125,-0.053570262145996,-5.078550634002685,-7.277175946044921
1757614240379435800,25.204435791015623,-0.1813607757568359,-4.400393013763427,-7.943512195587158
1757614240389392000,25.21439184570313,-0.3372831588745117,-2.862118447113037,-8.379705810546875
1757614240399347700,25.22434765625,-0.5823895538330078,-1.1335048484802246,-9.066991324615476
1757614240409303800,25.2343037109375,-0.5787982513427734,0.656310530090332,-9.265410787200928
1757614240419260000,25.244260009765625,-0.3369838836669921,2.232144135284424,-8.855852665710449
1757614240429216000,25.254216064453125,0.0463876571655273,3.3258453811645508,-7.831732905578613
1757614240439171800,25.264171875,0.379181687927246,3.7861306503295897,-6.650792936706543
1757614240449128000,25.2741279296875,0.4387374542236328,3.572448152160644,-5.702988354492187
1757614240459083800,25.284083740234376,-0.0585083030700683,3.085228114318848,-5.317671524810791
1757614240469039600,25.29403955078125,-1.85146607131958,3.439121047210693,-5.888688620758057
1757614240478995700,25.30399560546875,-4.514865780639648,6.455066950988769,-7.975684280395507
1757614240488951800,25.313951904296875,-5.833621982574463,13.303830437469482,-11.036671102905272
1757614240498908000,25.32390795898437,-5.562777919769287,22.433071005249023,-11.53092410812378
1757614240508863700,25.33386376953125,-3.767874862670898,29.228862779998774,-5.510704033660889
1757614240518819800,25.34381982421875,-2.3220763351440428,31.81370274734497,5.032611889648437
1757614240528775700,25.353775634765626,-5.0945618576049805,31.753398793029785,12.605920653533936
1757614240538731800,25.363731689453125,-10.330531250762938,27.60679115524292,13.774141426086423
1757614240548687600,25.3736875,-13.667449814605712,19.66716953735352,9.25044702682495
1757614240558643700,25.383643798828125,-13.570185372161864,13.81574067993164,5.775263317108154
1757614240568599800,25.393599853515624,-11.124807651519776,10.634594861602782,3.838653449249267
1757614240578556000,25.403555908203124,-9.163657216644287,9.080458708953858,1.4815619148254393
1757614240588511700,25.41351171875,-7.75706374130249,8.986935206604004,0.3318962051391601
1757614240598467800,25.4234677734375,-7.272686817932128,10.389488466644286,1.0512041664123537
1757614240608423700,25.43342358398437,-6.947673942565918,12.6781956161499,2.466775897979736
1757614240618379800,25.4433798828125,-6.140379070281982,14.608221429443358,3.1458313438415524
1757614240628334800,25.4533349609375,-4.887613051605224,15.531635082244872,3.2103251510620114
1757614240638291000,25.463291015625,-3.302501914978027,15.11175196609497,2.8667572128295897
1757614240648246800,25.473246826171877,-1.731456713104248,13.626449111175535,2.2661118713378903
1757614240658203000,25.483202880859373,-0.7056909393310546,11.752088486480712,1.596782869720459
1757614240668158700,25.49315869140625,-0.2299929969787597,9.828497090148923,0.7797615531921386
1757614240678114800,25.50311474609375,0.0308253463745117,8.122927682495117,0.1898901191711425
1757614240688070700,25.513070556640624,0.3244143249511718,6.685808135986328,0.0811035812377929
1757614240698027000,25.523027099609376,0.5755062240600586,5.43289247970581,0.3227683113098144
1757614240707982800,25.53298291015625,0.7918821990966797,4.285471334075927,1.0139444030761715
1757614240717939000,25.54293896484375,0.9914987625122068,3.252074042510986,2.0214543891906738
1757614240727894800,25.552894775390627,1.181688156890869,2.251597023773193,3.253271143341064
1757614240737851000,25.562850830078126,1.4037503608703612,1.206079086303711,4.596118999481201
1757614240747806700,25.572806640625,1.5997756217956542,0.101454295349121,5.881206740570068
1757614240757762800,25.5827626953125,1.720383530426025,-0.9789292037963868,6.993463049316406
1757614240767719000,25.592718994140625,1.68551796875,-1.8939631507873531,7.791779665374755
1757614240777675000,25.602675048828125,1.4770727867126463,-2.5863363433837887,8.188768228149414
1757614240787630800,25.612630859375,1.2253823371887207,-2.9939491760253905,8.333767066192626
1757614240797586700,25.62258666992188,0.8954314208984374,-3.19865341796875,8.368482990264893
1757614240807542500,25.63254248046875,0.3987842140197754,-3.199700881195068,8.354417055511474
1757614240817498600,25.64249853515625,-0.1491886909484863,-2.89204596786499,8.21630154724121
1757614240827454500,25.652454345703124,-0.7799111907958984,-2.192789445495605,7.888146282196044
1757614240837409800,25.66240991210937,-1.4704887321472166,-1.0544961936950683,7.570465649414062
1757614240847365600,25.67236572265625,-2.185457202911377,0.316633169555664,7.193528525543212
1757614240857321700,25.68232177734375,-3.214963916778564,2.097769567108154,6.54380205001831
1757614240867277600,25.692277587890626,-4.592078784179687,4.637119702911376,5.53539423828125
1757614240877233700,25.702233642578125,-5.552004012298584,8.515427117156982,4.158877921295166
1757614240887189500,25.712189453125,-4.86486813583374,13.874099345397948,2.5285762283325197
1757614240897145900,25.722145751953125,-2.776525737762451,20.056526582336424,1.9678841270446776
1757614240907101700,25.732101806640625,-2.129941651916504,25.66419578323364,4.5585599609375
1757614240917057800,25.742057861328124,-4.404283591461182,30.91153763427734,10.824335343170166
1757614240927013600,25.752013671875,-6.544699875640869,34.98497248382568,14.852130723571776
1757614240936969700,25.7619697265625,-6.980294940185546,33.88453754577637,12.894571591186525
1757614240946925600,25.77192553710937,-5.820453873443603,28.657845684051512,7.206995909881591
1757614240956881700,25.781881591796875,-6.15504355545044,25.381530349731445,2.67492180480957
1757614240966837800,25.79183764648437,-6.62026686553955,23.41065347061157,-0.1307832656860351
1757614240976793900,25.8017939453125,-6.317250717926025,21.950938645935057,-1.6142904693603517
1757614240986749700,25.81174975585937,-5.06897382736206,21.283405295562744,-1.6397288619995116
1757614240996705800,25.821705810546877,-3.864091841888428,20.679767201995848,-1.6927005737304686
1757614241006661600,25.83166162109375,-3.4931402221679684,19.616442389678955,-1.833509558868408
1757614241016617700,25.84161767578125,-3.261201936340332,18.34826369781494,-1.6934487617492675
1757614241026573600,25.851573486328125,-2.7766753753662106,16.94361551132202,-1.6949451377868652
1757614241036528600,25.861528564453124,-2.2942437408447263,15.3481793800354,-2.075623201751709
1757614241046484700,25.871484619140624,-2.046294231414795,13.513771995544433,-2.551770056915283
1757614241056440600,25.881440673828124,-2.020107650756836,11.49261688156128,-3.114108171844482
1757614241066396700,25.891396728515623,-1.981052236175537,9.484031326293945,-3.5206735412597654
1757614241076352500,25.9013525390625,-1.77485161819458,7.465420051574706,-3.893869725036621
1757614241086308600,25.91130859375,-1.5559318038940428,5.49693737411499,-4.350414054107666
1757614241096264700,25.9212646484375,-1.4583680862426758,3.610306465911865,-4.67976641998291
1757614241106220800,25.931220703125,-1.3364134391784668,1.746719748687744,-4.900781160736083
1757614241116176600,25.9411767578125,-1.017685343170166,-0.0442927307128906,-5.027075298309326
1757614241126132700,25.9511328125,-0.7026981872558593,-1.7337012771606444,-5.251681341552734
1757614241136088600,25.96108862304688,-0.407313557434082,-3.241300135040283,-5.743540145111084
1757614241146044700,25.971044677734376,-0.0321720848083496,-4.308515525054931,-6.315155791473388
1757614241156000500,25.98100048828125,0.3232172241210937,-4.7104421287536615,-6.815992851257324
1757614241165956600,25.99095654296875,0.5873275947570801,-4.440196616363525,-7.30381143951416
1757614241175912700,26.00091259765625,0.4867711250305175,-3.4293946029663083,-7.500734526062011
1757614241185868800,26.01086889648437,-0.0154126731872558,-2.0872949348449708,-7.669525743103027
1757614241195824600,26.02082470703125,-0.7209539749145507,-0.6420949577331543,-7.377433140563965
1757614241205780700,26.03078076171875,-1.1450269439697265,0.5711667335510253,-6.417058999633789
1757614241215736600,26.040736572265622,-1.2931681716918944,1.3425485809326172,-5.006126033782959
1757614241225692700,26.05069262695313,-1.294065997314453,1.555183615875244,-4.01597400970459
1757614241235647700,26.060647705078125,-1.3971663063049315,1.387888774871826,-3.507954344940185
1757614241245603600,26.070603515625,-1.939602619934082,1.143380930328369,-3.3963246925354
1757614241255559700,26.0805595703125,-3.188178785705566,1.645115815734863,-3.802441149139404
1757614241265515500,26.090515625,-4.771643908691406,4.185962327575683,-5.086780702209472
1757614241275471600,26.1004716796875,-5.519233377075195,9.470264666748044,-7.063792723083496
1757614241285427500,26.110427490234372,-5.682637640380859,16.68788484649658,-8.247276531219482
1757614241295383800,26.1203837890625,-5.914575926208496,22.95740116882324,-5.4896051315307615
1757614241305339600,26.13033959960937,-6.082918230438232,26.083480348968504,1.4712369201660156
1757614241315295700,26.140295654296875,-8.355464518737792,26.63549346923828,8.103325156402587
1757614241325251600,26.15025146484375,-12.222399475097657,23.60997075881958,8.744073375701904
1757614241335207700,26.160207763671878,-14.273182834625244,17.97132657394409,3.65804086151123
1757614241345163500,26.17016357421875,-14.169184700012206,14.273033197021483,0.8218097198486327
1757614241355119600,26.18011962890625,-12.164788997650144,12.918363970184323,-0.509516040802002
1757614241365075700,26.19007568359375,-9.90196915359497,13.679720098114013,-1.3462895210266113
1757614241375031800,26.20003173828125,-8.579322373962402,16.03726054534912,-0.6419453201293945
1757614241384987600,26.209987548828124,-7.980173408508301,18.347964422607426,0.9099462684631348
1757614241394943700,26.21994384765625,-7.334038235473632,19.250877723693847,1.981052236175537
1757614241404899600,26.229899658203124,-6.3533133804321285,18.250849617767333,2.322974160766601
1757614241414855700,26.239855712890623,-5.326051230621338,15.84512586212158,2.122908684539795
1757614241424810800,26.249810791015623,-4.423736479949951,13.116035244750975,1.7750012557983397
1757614241434766800,26.25976684570313,-3.677044837188721,10.500818843841552,1.422455061340332
1757614241444722700,26.26972265625,-2.957886513519287,8.211812419128417,1.2318167541503906
1757614241454678800,26.2796787109375,-2.2390274650573727,6.351218453979492,1.1828852577209472
1757614241464634600,26.289634521484373,-1.560271294403076,4.938938749694824,1.261594637298584
1757614241474590700,26.2995908203125,-1.061678798675537,3.8298248306274414,1.3084312072753903
1757614241484546600,26.309546630859376,-0.7377133865356444,2.974346649932861,1.423203249359131
1757614241494502700,26.31950268554688,-0.5793968017578125,2.297535768127441,1.6919523857116698
1757614241504458800,26.329458740234376,-0.4837783729553222,1.699583903503418,2.071283711242676
1757614241514414800,26.33941479492188,-0.3576338729858398,0.9919476753234864,2.655319278717041
1757614241524370700,26.34937060546875,-0.1969230865478515,0.0523731613159179,3.2309751403808598
1757614241534326500,26.359326416015627,-0.0519242485046386,-0.9184756118774412,3.698143739318848
1757614241544282600,26.36928271484375,0.1294365272521972,-1.7528548904418944,3.94579397354126
1757614241554238500,26.379238525390623,0.2889502128601074,-2.1580735214233395,4.04769718170166
1757614241564194600,26.38919458007813,0.4204816665649414,-2.016665985870361,4.197933335876464
1757614241574150700,26.399150634765626,0.496048656463623,-1.3672387855529784,4.764910216522217
1757614241584106800,26.409106689453125,0.3969885627746581,-0.5196913978576659,5.576095666503906
1757614241594061600,26.4190615234375,0.1710357810974121,0.2379237899780273,6.402095239257812
1757614241604017700,26.429017578125,-0.2064998931884765,0.7272387542724609,7.078606845855712
1757614241613973500,26.43897338867188,-0.7199065116882324,0.941070890045166,7.448810277557373
1757614241623929900,26.448929931640624,-1.3486837226867674,1.1182418128967284,7.344363230133056
1757614241633885700,26.4588857421875,-1.995267808532715,1.5646107849121094,6.801926916503906
1757614241643841800,26.468841796875,-2.6262895835876465,2.4461259086608886,6.008847616577148
1757614241653797600,26.478797607421875,-3.553294538879394,3.868431332397461,5.080645560455322
1757614241663753700,26.48875366210937,-4.343530724334716,5.884498767852783,3.9839515625
1757614241673709600,26.49870947265625,-4.203021014404297,8.49687205429077,2.615814951324462
1757614241683665700,26.50866577148437,-2.868253588867187,11.894543485260009,1.2786533241271971
1757614241693621800,26.518621826171877,-1.2612953620910643,16.315287213134766,0.7436988906860351
1757614241703577900,26.528577880859373,-0.6215946060180664,21.5539500831604,2.0501848091125487
1757614241713533700,26.53853369140625,-1.5285481224060058,27.192444630432128,6.116885966491699
1757614241723489800,26.54848974609375,-1.9756652824401852,32.51864549865722,11.272200691223144
1757614241733445600,26.558445556640624,-1.5783774444580077,35.319262890625,12.957120109558105
1757614241743401700,26.568401611328124,-1.5809212837219238,32.961123892974854,10.181492197418212
1757614241753356800,26.578356689453123,-2.343624150085449,28.299313985443117,5.82868394165039
1757614241763312600,26.588312744140627,-4.177582621765136,25.75921566162109,2.921674213409424
1757614241773268700,26.598268798828126,-4.825513446044922,23.95264087142944,1.392377902984619
1757614241783224600,26.608224609375,-4.508132088470458,22.31605439910889,0.1244984863281249
1757614241793180700,26.6181806640625,-3.4346319190979,21.19496947174072,-1.2910732452392577
1757614241803137500,26.628137451171877,-2.69407541809082,20.511724172973636,-2.248454634094238
1757614241813093600,26.63809375,-2.558204473876953,19.570653282928465,-2.5752631607055663
1757614241823049500,26.648049560546877,-2.2508488357543945,18.021006258392333,-2.4042273796081544
1757614241833005300,26.65800537109375,-1.732803451538086,16.061651474761963,-2.143259398651123
1757614241842961700,26.66796166992188,-1.2861352043151857,13.915848236846925,-2.0958242782592773
1757614241852917500,26.67791748046875,-1.179293955230713,11.629984201812745,-2.201917339324951
1757614241862873600,26.68787353515625,-1.3965677558898926,9.298630335235597,-2.342127774047851
1757614241872829400,26.697829345703123,-1.668160006713867,7.1501336204528805,-2.4513632247924804
1757614241882785500,26.70778564453125,-1.988384478759765,5.225045848083496,-2.663250071716309
1757614241892741400,26.717741455078126,-2.3446716133117675,3.531896361541748,-3.089567604827881
1757614241902697500,26.727697509765623,-2.546682378387451,2.0747253761291504,-3.4968811622619627
1757614241912652500,26.737652587890626,-1.9771616584777831,0.7975684280395507,-3.535188388824462
1757614241922608600,26.747608642578125,-0.7966706024169922,-0.4462193344116211,-3.3782185424804685
1757614241932564500,26.757564453125,-0.0834977828979492,-1.891868224334717,-3.591751403045654
1757614241942520600,26.7675205078125,0.1238999359130859,-3.53069926071167,-4.1660605262756345
1757614241952476400,26.777476318359376,0.0381575889587402,-5.20993245010376,-4.901379711151122
1757614241962432500,26.7874326171875,0.1596633232116699,-6.574777033996582,-5.399672931671142
1757614241972388600,26.797388671875,0.2371756019592285,-7.266850951385497,-5.810727429199218
1757614241982344700,26.8073447265625,0.086789810180664,-6.870909851837157,-5.8226984375
1757614241992300500,26.81730053710937,-0.3990834892272949,-5.519383014678954,-5.881356378173828
1757614242002256600,26.827256591796875,-1.094898346710205,-3.697694826507568,-5.786486137390137
1757614242012212500,26.83721240234375,-1.594837580871582,-1.9596540588378903,-5.603329710388183
1757614242022168600,26.84716845703125,-1.8427870903015136,-0.3450643142700195,-5.374384176635742
1757614242032124400,26.85712451171875,-1.7600374954223632,1.1366472381591797,-5.2742766197204585
1757614242042080800,26.867080810546877,-2.060659441375732,2.906860090637207,-5.485714553833008
1757614242052036600,26.87703662109375,-3.0316578521728514,6.196044258880615,-6.789207720184326
1757614242061992700,26.88699267578125,-3.8090252037048336,12.466608044433594,-9.733926124572754
1757614242071948500,26.896948486328125,-4.038419650268555,20.646547653961186,-11.424681409454346
1757614242081903400,26.9069033203125,-3.711162210845947,26.107422365570063,-7.0658876495361325
1757614242091859500,26.916859375,-4.420294815063476,26.522816353607176,-0.0722749626159667
1757614242101815600,26.926815673828123,-7.60368519744873,24.04661328659057,1.9490297889709471
1757614242111771600,26.936771728515627,-12.649614833831786,21.08678148422241,-1.714697301483154
1757614242121727500,26.9467275390625,-15.789460673522948,18.32970863494873,-6.410923857879638
1757614242131683600,26.95668359375,-14.969147329711912,16.488717195892335,-8.774749084472656
1757614242141639400,26.966639404296878,-11.193341674041749,17.654693404388425,-8.378059796905518
1757614242151595500,26.976595458984374,-8.405593115997315,20.91020911178589,-6.533477055358886
1757614242161551400,26.98655126953125,-7.841608987426757,23.38775891723633,-3.608361177062988
1757614242171507700,26.9965078125,-7.738508678436279,23.580641788482662,0.1087865379333496
1757614242181463600,27.00646362304688,-7.358878077697754,21.93507705993652,2.466476622772217
1757614242191419600,27.016419677734376,-6.733392893981933,19.15391255645752,2.5151088439941405
1757614242201375500,27.02637548828125,-6.100725105285644,16.14799237213135,1.4202104972839356
1757614242211331600,27.03633154296875,-5.411045389556884,13.308169927978517,0.5774515129089355
1757614242221287400,27.046287353515623,-4.49481434173584,10.717643731689453,0.1399111595153808
1757614242231242800,27.05624267578125,-3.4204163467407223,8.636633576202392,0.0808043060302734
1757614242241198600,27.06619848632813,-2.376993335723877,6.889315277099609,0.141706810760498
1757614242251154700,27.07615478515625,-1.6264111152648926,5.380220043182373,0.14679448928833
1757614242261110500,27.08611059570313,-1.0580874961853026,4.08615404586792,0.1265934127807617
1757614242271066600,27.096066650390625,-0.5514145698547362,2.990657148742676,0.1216553718566894
1757614242281022500,27.1060224609375,-0.0736217010498046,2.0473416946411134,0.2931400657653808
1757614242290978300,27.115978271484376,0.4248211570739746,1.2428899368286133,0.7673416320800781
1757614242300934700,27.1259345703125,0.9388263259887696,0.5776011505126952,1.4659996040344236
1757614242310890500,27.135890380859376,1.421108322906494,-0.0225952781677246,2.2890064247131345
1757614242320846600,27.1458466796875,1.8640356300354,-0.5508160194396973,3.2130186279296877
1757614242330802400,27.15580249023437,2.196979298400879,-0.886752439880371,4.090194261169433
1757614242340758500,27.165758544921875,2.377741523742676,-0.9816226806640624,4.859630819702148
1757614242350714400,27.17571435546875,2.5185505088806157,-0.812083275604248,5.580135881805419
1757614242360670500,27.18567041015625,2.5752631607055663,-0.4553472282409668,6.295702902984619
1757614242370626600,27.19562646484375,2.5745149726867678,-0.0866401725769042,7.064540911102294
1757614242380581600,27.20558154296875,2.4352023635864257,0.1623568000793457,7.829637979125976
1757614242390537500,27.215537353515625,2.0030489639282227,0.0520738861083984,8.404096739959716
1757614242400493600,27.22549365234375,1.127519344329834,-0.4337994132995605,8.962095364379882
1757614242410449400,27.235449462890625,-0.1337760177612304,-1.293467446899414,8.831012823486327
1757614242420405500,27.245405517578124,-1.3609540061950682,-2.0808605178833006,7.858368399047851
1757614242430361600,27.255361572265624,-2.280327443695068,-2.390610357666016,6.535721619415283
1757614242440317700,27.265317626953124,-2.5781062751770016,-2.0566192260742184,5.076754982757568
1757614242450273500,27.2752734375,-2.460640756225586,-0.9338882850646972,4.010886331176757
1757614242460229600,27.285229736328127,-2.483984222412109,1.0072107109069823,3.366097896575928
1757614242470185500,27.295185546875,-2.9749452003479,4.018218573760986,2.5846903297424317
1757614242480141600,27.3051416015625,-3.791816879272461,8.549694128417968,1.102529864501953
1757614242490097400,27.31509741210937,-4.189553630065918,14.938172345733642,-1.0577882209777831
1757614242500053800,27.3250537109375,-3.413981929779053,22.34508409423828,-1.127519344329834
1757614242510008600,27.33500854492188,-2.9912556991577146,29.89639613037109,5.12044916305542
1757614242519964400,27.34496435546875,-2.012326495361328,37.5916595413208,16.399982096862793
1757614242529920500,27.35492041015625,-2.468272274017334,39.6617461517334,22.353463800048825
1757614242539876400,27.36487646484375,-4.529829541015625,31.323041044616694,15.753697286224364
1757614242549832700,27.37483276367188,-7.496993585968017,24.684219116210937,7.7778633682250975
1757614242559788500,27.38478857421875,-9.65925696029663,21.85322529067993,4.704606262207031
1757614242569744600,27.39474462890625,-9.872789820861817,19.20673463058472,3.550451424407959
1757614242579700500,27.404700439453126,-9.689334118652344,17.707216203308104,3.928286373901367
1757614242589656600,27.414656494140623,-8.99546455001831,17.750760746002197,4.579060312652588
1757614242599612400,27.4246123046875,-8.313117076873779,18.539201280212403,4.455310014343262
1757614242609568500,27.434568603515626,-7.476642871856689,18.8196221496582,4.340986885070801
1757614242619524400,27.4445244140625,-6.443095942687988,18.322077117156983,4.649090711212158
1757614242629480700,27.454480712890625,-5.606023187255859,17.178247274017334,4.573374083709717
1757614242639436500,27.4644365234375,-4.933402158355713,15.525649578094482,3.678092300415039
1757614242649391600,27.4743916015625,-4.632929850006104,13.511228156280517,2.2854151222229
1757614242659347500,27.484347412109376,-4.448725959777832,11.161169589233396,0.6545148788452148
1757614242669303600,27.494303466796875,-4.029890306854248,8.58665461654663,-1.022174471282959
1757614242679259600,27.504259765625,-3.2038907341003418,6.089203009796142,-2.686593537902832
1757614242689215700,27.5142158203125,-2.173336557006836,3.9577649818420406,-4.236689475250244
1757614242699171600,27.52417163085937,-1.2316671165466309,2.124704335784912,-5.7225908805847165
1757614242709127700,27.534127685546878,-0.0029927520751953,0.4390367294311523,-6.921038449096679
1757614242719083500,27.54408349609375,1.2527660186767575,-1.2081740127563476,-8.061127352142334
1757614242729039400,27.554039306640625,1.8570026626586915,-2.992153524780273,-9.324368003082276
1757614242738995500,27.563995361328125,1.8323124580383297,-4.583699078369141,-10.4831616065979
1757614242748951600,27.57395166015625,1.811961743927002,-5.63071339187622,-11.35091007080078
1757614242758907600,27.58390771484375,2.131288390350341,-5.596296743011474,-11.352705722045895
1757614242768863500,27.593863525390624,2.4908675521850583,-4.364928901672363,-10.718391919708251
1757614242778819600,27.603819580078124,2.5439889015197754,-2.222417691040039,-9.584138883209228
1757614242788774400,27.6137744140625,2.38791688079834,0.1849520782470703,-8.45272896118164
1757614242798730500,27.62373046875,2.283320195770264,2.290053887939453,-7.555501889038085
1757614242808686000,27.63368603515625,1.9820996994018556,3.9975685844421385,-6.728155577850341
1757614242818642200,27.64364208984375,1.668758557128906,5.073612593078613,-5.725134719848633
1757614242828598000,27.653597900390626,1.6774375381469726,5.299864649963379,-4.553023369598389
1757614242838554000,27.66355419921875,1.6880618080139158,4.577264661407471,-3.500322827148437
1757614242848510000,27.673510009765625,1.1866261978149413,3.289184168243408,-2.871096703338623
1757614242858466000,27.683466064453125,-0.189590843963623,2.093430076599121,-2.893542343902588
1757614242868422100,27.693422119140624,-2.568379830932617,2.213289797210693,-3.77969623336792
1757614242878378200,27.703378173828124,-5.360018966674804,5.259013584136962,-5.912929912567138
1757614242888334000,27.713333984375,-6.9050272254943845,11.80476092300415,-9.112181880950928
1757614242898290200,27.723290283203124,-6.6896987136840815,20.184466733551023,-10.82822592086792
1757614242908246000,27.73324609375,-5.0435354347229,26.85590965957641,-6.986878994750976
1757614242918201000,27.743201171875,-3.0283658248901366,30.25522710418701,1.4775216995239258
1757614242928157200,27.7531572265625,-4.108001136016846,31.254058109283445,8.536974932098389
1757614242938113000,27.76311303710937,-8.403797464752197,28.74792752151489,10.856507427978515
1757614242948069000,27.773069091796877,-12.39837329711914,23.439234252929687,9.23114377593994
1757614242958025000,27.78302490234375,-14.603582663726806,18.42951691665649,6.379051048278808
1757614242967981000,27.79298095703125,-13.676428070831298,15.162778388977047,4.65432802734375
1757614242977937000,27.80293701171875,-11.865064877319336,13.531578870391844,3.0781951469421385
1757614242987893000,27.81289306640625,-10.710760401916504,13.129502629089355,1.9265841484069823
1757614242997849000,27.82284912109375,-9.849895267486572,13.653084604644777,1.871218235015869
1757614243007805200,27.83280517578125,-9.144503603363036,14.565574712371824,2.233191598510742
1757614243017761000,27.842760986328123,-8.1334023147583,15.171607007598876,2.420986791229248
1757614243027717000,27.852717041015627,-6.575225946807861,15.062072281646728,2.3611317497253417
1757614243037673000,27.8626728515625,-4.574421546936035,14.174721291351318,1.99182614364624
1757614243047628300,27.87262817382813,-2.653972540283203,12.778452810668943,1.3832500091552733
1757614243057584000,27.882584228515626,-1.1698667861938477,11.25529164199829,0.7730278610229492
1757614243067540000,27.8925400390625,-0.0586579406738281,9.74140800476074,0.3908534210205078
1757614243077496000,27.90249609375,0.7453449043273925,8.237550086975098,0.1421557235717773
1757614243087452000,27.91245190429688,1.1722609878540038,6.641365767669678,0.1880944679260253
1757614243097408000,27.922407958984376,1.3940239166259765,4.961534027862548,0.4715080894470214
1757614243107363800,27.93236376953125,1.5937901176452636,3.2577602714538574,1.0666168395996094
1757614243117320000,27.94231982421875,1.9387047943115236,1.6929998489379885,1.9247884971618647
1757614243127276000,27.952276123046875,2.376394785308838,0.2477998718261718,2.947112606048584
1757614243137232100,27.96223217773437,3.6733038970947263,-1.1908160507202148,3.737797704315185
1757614243147188000,27.97218798828125,2.901173861694336,-1.967135939025879,5.270236404418945
1757614243157144000,27.98214404296875,3.710862935638428,-2.7723358848571777,6.171802967071533
1757614243167100000,27.992099853515622,3.802291511535645,-3.042282122039795,7.216871991729736
1757614243177055200,28.00205517578125,3.101837888336181,-2.835183678436279,8.322993158721923
1757614243187011000,28.012010986328125,2.110039850616455,-2.497750881958008,9.197325677490234
1757614243196967200,28.02196728515625,0.8792705596923828,-2.268506072998046,9.645490300750732
1757614243206923000,28.031923095703124,-0.4062660942077636,-2.314893730163574,9.338882850646971
1757614243216879000,28.041879150390624,-1.462408301544189,-2.3026234466552733,8.56166513671875
1757614243226835000,28.0518349609375,-2.122759046936035,-1.7854758880615234,7.699902176666259
1757614243236791000,28.061791015625,-2.608482708740234,-0.7694365585327148,6.900238822174072
1757614243246747100,28.0717470703125,-3.244442524719238,0.6715735656738281,6.036979486083984
1757614243256703200,28.081703125,-4.159326834106445,2.7533319091796877,5.021239431762695
1757614243266659000,28.0916591796875,-5.1508255966186525,5.963507422637939,3.488651094055176
1757614243276615200,28.101615234375,-5.354781650543212,11.041160231018068,1.0697592292785645
1757614243286571000,28.111571044921877,-3.997269309234619,18.076970722198485,-1.2427402992248535
1757614243296526000,28.121526123046877,-2.530671154785156,25.612421172332763,-0.297479556274414
1757614243306482200,28.131482177734377,-3.5473090347290035,32.762704430389405,6.917596784210205
1757614243316438000,28.14143798828125,-4.183568125915527,39.42681511383056,16.421829187011717
1757614243326394000,28.15139404296875,-5.053261878967285,40.493880866241454,17.814506365203858
1757614243336350000,28.161349853515624,-4.979340902709961,32.787693910217286,9.207650672149658
1757614243346306000,28.17130615234375,-6.372915906524658,27.313351814270018,3.068468702697753
1757614243356262000,28.181261962890623,-8.019528098297119,24.53458151245117,0.4218284049987792
1757614243366218000,28.191218017578127,-8.141632382965087,22.21983741989136,-1.04057989654541
1757614243376174000,28.201174072265623,-7.204302433013916,21.13586261825561,-1.0313023651123046
1757614243386130200,28.21113012695313,-6.140379070281982,20.42059487228393,-0.6818985603332519
1757614243396086000,28.2210859375,-6.011092180633544,18.98242786254883,-0.7308300567626953
1757614243406041000,28.231041015625,-5.819705685424804,17.23795267791748,-0.2677016731262207
1757614243415997000,28.24099682617188,-5.117157135772705,15.536722760772705,0.1544260070800781
1757614243425953000,28.250953125,-4.535665407562256,13.80302148361206,-0.0453401939392089
1757614243435909000,28.2609091796875,-4.150348577880859,11.978789456176758,-0.5738602104187012
1757614243445865200,28.270865234375,-3.837456348419189,9.983072734832763,-1.070657054901123
1757614243455821000,28.28082104492188,-3.468001104736328,8.0184806350708,-1.3721768264770506
1757614243465777200,28.29077709960937,-2.8841151748657223,6.25006343383789,-1.7094599853515624
1757614243475733000,28.30073291015625,-2.2158336364746094,4.776432312011719,-2.220472402191162
1757614243485689000,28.31068920898437,-1.2957120109558105,3.47937356262207,-2.760664151763916
1757614243495645000,28.32064501953125,0.0993593688964843,2.2330419609069825,-3.174412126159668
1757614243505601000,28.33060107421875,1.3281833709716797,0.914285758972168,-3.8515222831726073
1757614243515557000,28.34055712890625,1.922244657897949,-0.570119270324707,-4.938639474487305
1757614243525513000,28.350512939453125,1.8830396057128904,-2.316090830993652,-6.278045665740966
1757614243535468000,28.360468017578125,1.3964181182861328,-4.062810579681396,-7.648875753784179
1757614243545424000,28.370423828125,1.0152911415100097,-5.4792801368713375,-8.713397666931153
1757614243555380200,28.380380126953124,1.0480617767333984,-6.106411334228516,-9.34022958908081
1757614243565336000,28.390336181640624,1.2961609237670897,-5.553949301147461,-9.382726668548584
1757614243575292200,28.400292236328124,1.603067649078369,-3.969885627746582,-8.842983831787109
1757614243585248000,28.410248046875,1.7521067024230956,-2.0579659645080564,-8.268076158142089
1757614243595204000,28.4202041015625,1.7910124794006346,-0.2847603599548339,-7.85283180770874
1757614243605160000,28.43015991210937,1.7060183204650878,1.3265373573303223,-7.501033801269531
1757614243615116000,28.440115966796878,1.5550339782714844,2.659060218811035,-7.203105332183838
1757614243625072000,28.45007202148437,1.3703811752319337,3.5697546752929687,-6.7922004722595215
1757614243635028200,28.4600283203125,0.9593266777038574,3.900154504394531,-6.1924529563903805
1757614243644983000,28.46998315429688,-0.3520972816467285,4.114734828186035,-5.806238301086426
1757614243654939000,28.47993896484375,-2.9019220497131344,5.645228239440917,-6.538714371490478
1757614243664895000,28.48989501953125,-5.354931288146973,10.280851566314697,-8.940996462249755
1757614243674850800,28.499850830078124,-5.875819786834716,18.32851153411865,-11.55606322555542
1757614243684807200,28.50980712890625,-4.489876300811767,26.66886265487671,-9.759813430023192
1757614243694763000,28.519762939453123,-2.2373814514160157,31.214853057098388,-1.3210007659912109
1757614243704719000,28.529718994140627,-2.507926239013672,32.99673764266968,9.056965605163574
1757614243714675000,28.539675048828126,-7.235576692199706,32.07915985641479,14.73481484222412
1757614243724631000,28.549631103515622,-12.977620461273192,26.071658978271483,13.456460793304442
1757614243734587000,28.5595869140625,-16.29254229736328,18.30037966461181,9.592368951416017
1757614243744543000,28.56954296875,-15.658078857421874,12.83935531539917,7.392247263336181
1757614243754499000,28.5794990234375,-13.063662083435055,9.55121861038208,4.5884874816894525
1757614243764454100,28.5894541015625,-11.020959154510498,8.421903614807128,1.8152537712097168
1757614243774410000,28.599409912109376,-9.5760584526062,9.318382498931884,1.12377840423584
1757614243784366000,28.60936596679688,-8.763376626586913,11.464335374450682,2.1484967147827145
1757614243794322000,28.619322021484376,-7.91029264755249,13.858387397003172,3.4536358947753905
1757614243804278000,28.629278076171875,-6.686855599212646,15.783624806976318,4.275744889831543
1757614243814234000,28.63923413085937,-5.194220501708984,16.59451098175049,4.395754248046875
1757614243824190200,28.649190185546875,-3.513341298675537,15.90991894454956,4.133140253448486
1757614243834146000,28.65914599609375,-1.9786580345153808,14.046332227325438,3.362207318878174
1757614243844102100,28.66910205078125,-1.1258733306884765,11.828702939605712,2.1520880172729493
1757614243854058000,28.67905810546875,-0.8877999031066894,9.778069217681884,0.8098387115478515
1757614243864014000,28.68901416015625,-0.6274304725646972,7.938723792266845,-0.1984194625854492
1757614243873969200,28.69896923828125,-0.182557876586914,6.284330445098877,-0.6619967590332031
1757614243883925200,28.70892529296875,0.2843114471435546,4.88447066192627,-0.5321113189697265
1757614243893881000,28.718881103515624,0.6401496688842773,3.7250785079956055,0.0215478149414062
1757614243903837200,28.728837158203124,0.8852560638427733,2.8094460105895998,0.8099883491516113
1757614243913793000,28.73879296875,1.0660182891845702,2.063352918243408,1.7012299171447751
1757614243923748900,28.748748779296875,1.3289315589904784,1.387140586853027,2.632125450134277
1757614243933705200,28.758705322265627,1.63434190826416,0.7127239067077636,3.6098575531005856
1757614243943661000,28.7686611328125,1.8405425262451167,0.0876876358032226,4.712686692810058
1757614243953617200,28.7786171875,1.885284169769287,-0.5057751007080078,5.861753852081298
1757614243963573000,28.788572998046877,1.712303099822998,-1.036838956451416,6.883030497741699
1757614243973529000,28.798529052734374,1.1626841812133788,-1.6162357582092284,7.696610149383544
1757614243983484000,28.80848388671875,0.2048538795471191,-2.2486042716979977,8.135946154022216
1757614243993440300,28.81844018554688,-0.6814496475219726,-2.819471730041504,8.201786699676513
1757614244003396000,28.82839599609375,-1.3289315589904784,-3.3571196403503416,7.888146282196044
1757614244013352200,28.83835229492188,-1.6853683311462402,-3.6969466384887695,7.263259648895263
1757614244023308000,28.84830810546875,-1.7962497955322263,-3.5640684463500976,6.482450632476806
1757614244033264000,28.85826416015625,-1.6401777748107909,-2.7829601547241207,5.685031842041015
1757614244043220000,28.868219970703127,-1.2301707405090332,-1.4538789581298828,5.166238269805908
1757614244053176000,28.878176025390623,-0.6474819114685059,0.160860424041748,4.769997895050048
1757614244063132200,28.88813208007813,-0.1322796417236328,1.9565116691589357,4.4196962646484375
1757614244073088300,28.898088134765626,-0.2612672561645507,4.075829051208496,3.866934956359863
1757614244083044000,28.908044189453125,-1.1071686302185058,6.783820766448974,3.0547020431518552
1757614244092999000,28.9179990234375,-2.3829788398742675,10.594641621398925,1.7292121490478514
1757614244102955000,28.927955078125,-2.9920038871765136,16.00658483657837,-0.009576806640625
1757614244112911000,28.9379111328125,-1.939004069519043,22.78471937408447,-0.7636006919860839
1757614244122867200,28.9478671875,-0.5989993278503417,29.80332154083252,1.9039888702392576
1757614244132823000,28.95782299804688,0.0644938072204589,36.05547990112304,7.981819422149658
1757614244142779100,28.96777905273437,-1.2048819854736328,39.97882823410034,13.540108213806151
1757614244152735000,28.97773486328125,-3.992630543518066,37.71316527557373,12.651111209869384
1757614244162691000,28.98769116210937,-6.472574550628662,30.84210578613281,7.545176894378661
1757614244172647000,28.99764697265625,-8.639327053070067,26.056844855499268,4.535515769958496
1757614244182603000,29.00760302734375,-9.822062673187256,22.49546988601685,2.7959786262512205
1757614244192559000,29.01755908203125,-9.840019185638427,19.21107412109375,1.116595799255371
1757614244202514200,29.02751416015625,-8.872462439727782,16.68653810806274,-0.213832135772705
1757614244212470000,29.037469970703125,-7.902361854553222,15.119832396697998,-1.4281412902832031
1757614244222426000,29.047426025390624,-7.535749725341796,14.08374162826538,-2.437596565246582
1757614244232382000,29.0573818359375,-6.798784526824951,13.29126087875366,-2.690933028411865
1757614244242338300,29.06733837890625,-5.60542463684082,12.682385469055175,-2.384026303100586
1757614244252294100,29.077294189453124,-4.466532834625244,12.135460027313233,-2.054374662017822
1757614244262250200,29.087250244140623,-3.566462648010253,11.45999588394165,-2.124853973388672
1757614244272206000,29.0972060546875,-2.9363386985778805,10.576535471343991,-2.4990976203918454
1757614244282162200,29.107162109375,-2.609230896759033,9.407566510772703,-3.045873424530029
1757614244292118000,29.117117919921878,-2.2905028007507324,8.10093095474243,-3.5697546752929687
1757614244302073000,29.127072998046877,-1.83889651260376,6.6647092338562,-4.123862722015381
1757614244312029200,29.137029296875,-1.291671795654297,5.163395155334472,-4.710891041564941
1757614244321985000,29.14698510742188,-0.5756558616638183,3.5429695442199707,-5.304353778076171
1757614244331941000,29.156941162109376,0.2226607543945312,1.793556318664551,-5.863998416137695
1757614244341897000,29.16689697265625,0.6801029090881348,-0.0514753356933593,-6.590339344787597
1757614244351853000,29.17685302734375,0.8090905235290526,-1.9542671051025389,-7.416189279937743
1757614244361809000,29.186808837890624,0.7013514488220215,-3.6462194908142087,-8.211513143920898
1757614244371765200,29.19676513671875,0.6358101783752441,-4.881028997039794,-8.742427362060546
1757614244381721000,29.20672119140625,0.6898293533325195,-5.280411761474609,-8.77220524520874
1757614244391677200,29.21667724609375,0.6072293960571289,-4.7472529792785645,-8.396315584564208
1757614244401633000,29.226633056640622,0.5473743545532226,-3.534589838409424,-7.621940985107422
1757614244411588000,29.236588134765626,0.417488914489746,-2.109740575408936,-6.455366226196289
1757614244421544200,29.246544189453125,0.192134683227539,-0.8542810798645019,-5.194220501708984
1757614244431500300,29.256500244140625,-0.1185129821777343,0.0618003303527832,-4.195539134216308
1757614244441456000,29.2664560546875,-0.4528033889770507,0.8300397880554199,-3.4088942512512204
1757614244451412200,29.276412109375,-0.9404723396301268,1.5550339782714844,-2.810343836212158
1757614244461368000,29.2863681640625,-1.744774459838867,2.6599580444335937,-2.6357167526245115
1757614244471324200,29.29632421875,-2.729090617370605,5.004629657745361,-3.1865327720642087
1757614244481280000,29.306280029296875,-3.4281975021362303,9.246406811523435,-4.357147746276855
1757614244491236000,29.31623608398437,-3.717895903015136,14.87637201538086,-4.971859022521972
1757614244501192200,29.326192138671875,-3.698143739318848,20.15528740081787,-3.3195606018066406
1757614244511147000,29.33614697265625,-3.041384296417236,22.833501232910155,1.0230722969055177
1757614244521103000,29.34610302734375,-3.417722869873047,23.23961768951416,5.210830275726318
1757614244531059000,29.356058837890625,-5.943455983734131,22.227020024871823,5.77795679397583
1757614244541015000,29.36601513671875,-8.775946185302734,19.202844052886963,3.305195391845703
1757614244550971100,29.37597119140625,-9.901370603179933,15.815647254180908,0.4082113830566406
1757614244560927200,29.38592724609375,-9.134028971099854,13.99380942840576,-1.3588590797424316
1757614244570883000,29.395883056640624,-7.449558465576171,14.08314307785034,-2.041056915283203
1757614244580839200,29.405839111328124,-6.011391455841064,15.6033114944458,-2.060659441375732
1757614244590795000,29.415794921875,-5.457582684326171,17.72262887649536,-1.5469535476684568
1757614244600751000,29.425751220703123,-5.413140316009521,19.560029013061524,-0.616058014678955
1757614244610707000,29.43570703125,-4.988618434143066,20.74052006912231,0.4936544548034667
1757614244620662000,29.445662109375,-3.9356186164855953,20.758626219177245,1.205929448699951
1757614244630618000,29.4556181640625,-2.8836662620544438,19.213767597961425,0.9693523971557616
1757614244640574000,29.465573974609374,-2.216132911682129,16.695815639495848,0.136619132232666
1757614244650530000,29.475530029296877,-1.7549498168945312,14.1208517539978,-0.7921814743041992
1757614244660486000,29.48548583984375,-1.1935095275878906,11.88122573852539,-1.6017209106445311
1757614244670442000,29.49544189453125,-0.712424631500244,9.966313323211669,-2.0575170516967773
1757614244680398000,29.505398193359376,-0.379181687927246,8.278550790405273,-1.9493290641784664
1757614244690354200,29.51535424804688,-0.2350806755065917,6.900538097381592,-1.3506290115356443
1757614244700310000,29.52531005859375,-0.2231096672058105,5.921010343170166,-0.5961562133789062
1757614244710266000,29.53526611328125,-0.2307411849975585,5.256469744873047,0.2015618522644043
1757614244720221000,29.545220947265623,-0.1158195053100586,4.809053309631348,1.1424831047058104
1757614244730177300,29.55517724609375,0.2551321144104004,4.380940125274658,2.257582527923584
1757614244740133000,29.565133056640622,0.7483376564025879,3.818302735137939,3.655497022247314
1757614244750089200,29.57508911132813,1.082777700805664,2.839672806549072,5.293130957794189
1757614244760045000,29.585045166015625,1.0435726486206054,1.3811550827026366,6.812401548767089
1757614244770001200,29.595001220703125,0.6051344696044921,-0.2472013214111328,7.981669784545898
1757614244779957000,29.60495703125,-0.1949777976989746,-1.7003320915222166,8.68990456314087
1757614244789913000,29.6149130859375,-1.3064859184265136,-2.748992418670654,8.905083437347411
1757614244799869200,29.624869140625,-2.5905261962890624,-3.150619747161865,8.87994431991577
1757614244809824800,29.63482470703125,-3.698143739318848,-2.804657607269287,8.863184908294677
1757614244819779800,29.64477978515625,-4.376750272369384,-1.7908628417968748,8.748113591003417
1757614244829735700,29.654735595703126,-4.477905292510986,-0.3948936363220214,8.423100715637206
1757614244839691800,29.66469189453125,-4.151246403503418,0.9967360786437988,7.921066555023192
1757614244849647900,29.67464794921875,-3.634697395324707,2.1062989105224608,7.199962942504882
1757614244859604000,29.68460400390625,-3.1197944007873533,3.0813375366210938,6.2018801254272455
1757614244869559800,29.694559814453125,-2.7124808433532714,4.347122026824951,5.1039890266418455
1757614244879516000,29.704515869140625,-2.841468457794189,6.217741711425781,4.129100038146972
1757614244889471700,29.7144716796875,-3.401412371063232,8.764274452209472,2.989759323120117
1757614244899427800,29.724427734375,-4.201225363159179,11.90067862701416,1.585260774230957
1757614244909383000,29.7343828125,-4.617217901611328,15.34847865524292,0.2675520355224609
1757614244919338800,29.7443388671875,-3.9372646301269527,18.59711103286743,0.0233434661865234
1757614244929294800,29.754294921875,-3.117549836730957,20.94612213668823,1.5550339782714844
1757614244939250700,29.764250732421875,-3.483413777923584,22.436363032531737,4.38632707901001
1757614244949206800,29.77420678710937,-4.933102883148193,23.133524628448484,6.207267079162597
1757614244959162600,29.78416259765625,-6.335356867980956,22.69029804611206,5.581482620239258
1757614244969118700,29.79411865234375,-7.079654309082031,21.690120302581786,4.582501977539062
1757614244979074800,29.80407470703125,-7.542333779907226,20.591630653381348,3.669263681793213
1757614244989031000,29.814031005859373,-7.96116943283081,19.753510434722894,2.3617303001403807
1757614244998986800,29.82398681640625,-7.96730457458496,19.42625299530029,0.8168716789245605
1757614245008941800,29.83394189453125,-7.568669998168945,19.461717107391355,-0.2204161903381347
1757614245018897700,29.843897705078124,-7.103745963287353,19.483115284729003,-0.2512415367126465
1757614245028854000,29.85385400390625,-6.622361791992187,19.12727706298828,0.5765536872863769
1757614245038809900,29.863809814453123,-6.080673666381836,18.453758208465576,1.518073490142822
1757614245048766000,29.873765869140627,-5.519532652282715,17.740735026550293,1.8640356300354
1757614245058721800,29.8837216796875,-5.059845933532714,16.703147882080078,1.5842133110046386
1757614245068678000,29.893677978515623,-4.753388121032715,15.18851605682373,1.073799444580078
1757614245078633700,29.9036337890625,-4.496909268188476,13.42623399734497,0.5503671066284179
1757614245088589800,29.91358984375,-4.256441638946533,11.502792238616944,-0.1271919631958007
1757614245098545700,29.923545654296877,-4.174290594482422,9.605537060546874,-1.1426327423095703
1757614245108500700,29.93350073242188,-4.186111965179443,7.927052059173583,-2.343624150085449
1757614245118456800,29.943456787109376,-4.033182334136963,6.5117796028137205,-3.361908043670654
1757614245128412700,29.95341259765625,-3.55613765335083,5.373486351013184,-3.925143984222412
1757614245138368800,29.96336865234375,-2.768295669555664,4.406677793121338,-4.106654397583007
1757614245148324600,29.97332470703125,-1.7814356727600096,3.4748844345092773,-4.132092790222168
1757614245158281000,29.98328100585937,-1.0363900436401368,2.271049912261963,-4.435557850646973
1757614245168236800,29.99323681640625,-0.7402572257995605,0.6379051048278809,-5.187337171936035
1757614245178193000,30.00319287109375,-1.010652375793457,-1.3434464065551757,-5.950937863922118
1757614245188148700,30.013148681640622,-1.5483002861022948,-3.7319618377685546,-6.810306622314453
1757614245198104800,30.02310473632813,-1.7120038246154785,-5.808931777954101,-7.416189279937743
1757614245208060000,30.033059814453125,-1.4233528869628906,-6.800430540466309,-7.658003647613525
