time,seconds_elapsed,z,y,x
1759650159976604000,95.54560400390623,1.381952370560169,8.598171451339125,-2.989319178137183
1759650159986687000,95.55568701171876,1.4112437853656707,6.91572046894431,-3.9662116154089566
1759650159996769800,95.56576977539062,1.6872263801030811,4.7617497066646814,-4.50321479807347
1759650160006854100,95.57585424804688,1.7505381379321217,2.996096124926209,-4.854874565085768
1759650160016937000,95.58593701171876,1.5542916354715823,1.5760001939326524,-4.944067929276824
1759650160027020000,95.59602001953124,1.2376143345132469,0.4113490965604782,-4.890476039820909
1759650160037102800,95.60610278320311,0.9828104291439056,-0.6167307993739843,-4.884423900175094
1759650160047187000,95.61618701171876,0.7659602607242763,-1.573391472738981,-4.890111298161745
1759650160057270000,95.62627001953123,0.4148176494538784,-2.4474895982295277,-4.792003975152969
1759650160067353000,95.63635302734374,0.1379885208897292,-3.1352550047695638,-4.741702651675046
1759650160077437000,95.64643701171876,-0.0428226581603288,-3.6814264132738113,-4.74333639035672
1759650160087520000,95.65652001953126,-0.1823176380902528,-4.130553744086623,-4.866290277591348
1759650160097602800,95.66660278320312,-0.2495908468961715,-4.578772143360972,-5.019338566577434
1759650160107686700,95.67668676757812,-0.1043916639752686,-5.170089100015163,-5.108037425249814
1759650160117770800,95.68677075195312,0.1106155069261789,-5.750222983875871,-5.194956999289989
1759650160127853600,95.696853515625,0.3415507531911134,-6.247564018237591,-5.219819053345918
1759650160137936600,95.7069365234375,0.3963010189019143,-6.6130754927307365,-5.311280362468958
1759650160148019700,95.71701977539064,0.2810390013441443,-6.890560308724641,-5.623416220605373
1759650160158103800,95.72710375976564,0.1781798076331615,-7.100475563314557,-6.258542508369684
1759650160168186600,95.7371865234375,0.0311648074619472,-7.430275088435411,-7.36513129287362
1759650160178269700,95.74726977539062,-0.0325439868606627,-8.015566793450713,-9.036633595752717
1759650160188353800,95.75735375976562,0.0595415916405618,-9.061550010344384,-11.444008041214945
1759650160198436900,95.76743676757812,0.4098725942671298,-10.455721811008452,-14.28339092490673
1759650160208519700,95.77751977539064,0.3914411577805876,-11.417572454231976,-16.052897674942017
1759650160218602800,95.78760278320313,-0.8203045759826898,-10.856133333969115,-15.323866776555777
1759650160228686800,95.79768676757811,-2.390557166174054,-8.373695171955227,-12.05275251801014
1759650160238769700,95.80776977539062,-2.6790543745696542,-4.748485151422024,-8.850324842199683
1759650160248852700,95.81785278320312,-1.4568524209827185,-0.163902275955677,-7.358565358486771
1759650160258935800,95.82793579101562,-0.1825432635396718,6.459889841100573,-6.552645866209268
1759650160269019600,95.83801953125,-1.137369268823415,16.88798305594921,-4.225427784262597
1759650160279102700,95.84810278320312,-6.205487210008502,26.414628366088863,-0.8179208957165479
1759650160289185800,95.85818579101564,-8.732023456946015,25.904212161576748,-0.1013861254837363
1759650160299269600,95.86826953125,-4.201150836618244,18.38565556309819,2.2693623975664377
1759650160309352700,95.87835278320313,1.929235247437656,12.020849313271045,4.620984852929413
1759650160319435500,95.888435546875,4.1791432952106,8.538078509426116,3.983806016549468
1759650160329518800,95.89851879882812,3.7247049985080953,7.59566614164412,1.736485501051694
1759650160339602700,95.90860278320312,2.390362374254316,8.423297114992142,0.5347125875093043
1759650160349685800,95.91868579101562,0.3475665063492953,9.905539413297175,-0.3372761446118354
1759650160359768600,95.9287685546875,-0.9909588104166088,11.02809733582735,-1.4637763750270008
1759650160369851600,95.9388515625,-1.3352239371329546,10.588614031672478,-1.3050849655874073
1759650160379935700,95.94893579101564,-0.9849604467846452,8.90086903452277,0.9276882613807916
1759650160390018800,95.95901879882813,0.0268989667110145,7.079563123667239,3.188261787813902
1759650160400101600,95.9691015625,0.8682774565130472,5.495528091838955,4.22707292112112
1759650160410185700,95.97918579101562,0.7890513595849276,3.928749899759888,4.556895827117562
1759650160420268800,95.98926879882812,0.191595754045248,2.216777054804564,4.518409736856818
1759650160430351600,95.9993515625,-0.261490543526411,0.4758277062118053,4.184392301779985
1759650160440434700,96.0094345703125,-0.7947086546942591,-1.1255986054003235,3.866026901604235
1759650160450518500,96.0195185546875,-1.219805121578276,-2.6326316460907457,3.6853698902025815
1759650160460601900,96.02960180664064,-1.451675895127654,-4.109319817399978,3.7507568468704817
1759650160470684700,96.0396845703125,-1.7045622764378785,-5.629783417549729,3.9624151457354415
1759650160480767700,96.04976782226562,-2.0045304346576334,-7.211397359710931,4.28173623920083
1759650160490851600,96.0598515625,-2.4214522167839108,-8.673470145690441,4.815787294061482
1759650160500934700,96.0699345703125,-3.3377328028351068,-9.766202254277466,5.921106204760075
1759650160511017700,96.08001782226565,-4.657862046688795,-10.476534297412634,7.502221549749374
1759650160521101800,96.09010180664062,-5.8861687468916175,-10.732185467261075,9.379965971663594
1759650160531184600,96.1001845703125,-6.821921072262525,-10.580126773834229,11.020300982862713
1759650160541267700,96.11026782226564,-6.915595381259918,-10.12213166143298,11.782654305136203
1759650160551350500,96.1203505859375,-6.076877196708321,-9.793383691191671,11.224972491580248
1759650160561434600,96.1304345703125,-5.048806653124093,-9.648695818793772,9.858027136015892
1759650160571517700,96.140517578125,-4.351297851204872,-9.39636531780064,8.574406544870138
1759650160581600800,96.15060083007812,-3.9427632275432343,-8.898015983179212,7.490755568361282
1759650160591683600,96.16068359375,-3.918467575198412,-8.044290199109911,6.510927954420447
1759650160601767700,96.170767578125,-4.490443871566653,-6.658086600846052,5.667421366548538
1759650160611850800,96.18085083007811,-5.65673104570806,-4.180331628212333,5.078442497453093
1759650160621933800,96.19093383789064,-6.371510715901851,-0.1893985362619161,4.596947851520777
1759650160632017700,96.201017578125,-6.064277242854237,4.808810733047127,3.344399274986982
1759650160642100700,96.21110083007812,-4.697038457301259,10.499855551767348,0.3188355019055306
1759650160652183800,96.22118383789062,-1.862202130997926,14.627331788104772,-1.8997757825888693
1759650160662266600,96.2312666015625,0.8700893282406031,15.045165570509432,-1.0343795806005596
1759650160672350700,96.24135083007812,3.2495430627286432,12.577646160686015,0.8928755989357828
1759650160682433500,96.25143359375,4.801473814287782,10.166832388424872,3.487680203196406
1759650160692516900,96.26151684570311,4.875677699139714,9.222849994847175,4.401811648389697
1759650160702599700,96.271599609375,4.503551190420985,9.863638546156883,3.477113216474652
1759650160712683800,96.28168383789064,3.3609932669132947,10.706454813677071,1.0215566316455602
1759650160722766600,96.2917666015625,1.1672042889863252,11.091980902194976,-1.1094599560260772
1759650160732849700,96.301849609375,-0.782018538338691,10.774133096152545,-2.882860790890455
1759650160742932700,96.3119326171875,-1.437338888347894,9.218955325496196,-4.719930964849889
1759650160753016800,96.32201684570312,-1.3270184188455345,6.93051237988472,-6.510487809437513
1759650160763099600,96.332099609375,-0.8983537380859256,4.711315988978743,-7.842146747565269
1759650160773182700,96.3421826171875,-0.4386388161547482,2.8579858773529527,-8.298861757028103
1759650160783266800,96.35226684570311,-0.0167272629171609,1.392647367575765,-7.900417734748125
1759650160793349600,96.362349609375,0.1192879120729863,0.2274497422367334,-7.013151500126719
1759650160803432700,96.3724326171875,-0.0067371993005275,-0.7205313655883073,-6.0987505903422825
1759650160813515800,96.38251586914062,-0.280017549341917,-1.5086188485771417,-5.405653759646415
1759650160823599900,96.39259985351562,-0.6688561234086752,-2.2092203558146952,-5.057445886653661
1759650160833682700,96.4026826171875,-0.9200865542054176,-2.952212559536099,-5.024356102478504
1759650160843765800,96.41276586914064,-1.0254638682171702,-3.730162679392099,-5.190417602294684
1759650160853848600,96.4228486328125,-1.0545137293517588,-4.615266183021665,-5.464209993511438
1759650160863932700,96.4329326171875,-0.9641919456526636,-5.487170597860217,-5.828439611500501
1759650160874015700,96.443015625,-0.7663152116417884,-6.275030117312073,-6.228588684132695
1759650160884098800,96.45309887695312,-0.4959826054900884,-6.943942939344048,-6.691433574652671
1759650160894181600,96.463181640625,-0.2345586974591016,-7.49361271135807,-7.191733458819985
1759650160904265700,96.473265625,-0.1458177532106638,-7.966717714607715,-7.66358933879137
1759650160914348500,96.4833486328125,-0.2108820537954568,-8.415758536180853,-8.134792307811974
1759650160924432000,96.49343188476564,-0.5100055778846144,-8.787154392537474,-8.70276930541098
1759650160934515700,96.503515625,-0.9293377821534872,-9.121775054204464,-9.29063992100358
1759650160944598800,96.51359887695313,-1.2687377870514989,-9.340552829685809,-9.831731834286453
1759650160954681600,96.523681640625,-1.5307012087866665,-9.390281613972782,-10.13451768027544
1759650160964764700,96.5337646484375,-1.6219538435950875,-9.109141782602668,-9.97043654062152
1759650160974848800,96.54384887695312,-1.6208800768837333,-8.35383019553423,-9.421640044310688
1759650160984931600,96.553931640625,-1.814971739397943,-7.002235553836822,-8.455622929057478
1759650160995014700,96.5640146484375,-1.9313224289752544,-4.824635494166612,-7.26335784857273
1759650161005097700,96.57409765625,-0.9522780743665992,-1.2133645671367643,-6.314115927031636
1759650161015181800,96.58418188476564,0.7247578972421586,4.208807781112194,-6.092368195828795
1759650161025264600,96.5942646484375,0.2825413687311113,12.91960315659046,-3.873047301760316
1759650161035347700,96.60434765625,-3.585466623687744,22.08097372360229,2.2927707456827164
1759650161045430800,96.6144306640625,-6.416504288360476,23.27723751833439,5.021840904787182
1759650161055515000,96.62451489257812,-2.965600156636536,18.90778909341097,4.566822762370109
1759650161065597700,96.63459765625,2.3224831623792648,13.969741155076026,3.7250776312127702
1759650161075680800,96.6446806640625,3.9836426426813,11.271569407582282,3.5602053411811587
1759650161085764600,96.6547646484375,2.8137393238693478,10.273222386610508,3.511351586163044
1759650161095847700,96.66484765625,0.9586217443048952,9.393871162897348,2.599920047578216
1759650161105930800,96.6749306640625,-0.1045984385937452,8.635752701714635,1.2017546472333371
1759650161116013000,96.68501293945312,-0.2601404440917074,8.201909449273348,0.0751129625208675
1759650161126097000,96.69509692382812,-0.2560433840364217,7.665117863532901,0.4391912624057382
1759650161136180000,96.70517993164064,-0.0847873843170702,6.667233199375867,1.5013425739638506
1759650161146262800,96.7152626953125,0.3394318613409995,5.310770074859261,2.1081734722226857
1759650161156345900,96.72534594726562,0.5165162749528884,3.923510245540738,2.6087206091493367
1759650161166430000,96.73542993164062,0.4148603195518255,2.730805604594946,2.8850828508540984
1759650161176513000,96.74551293945312,0.1066565401673316,1.575955770269036,2.9101579631388184
1759650161186595800,96.75559594726562,-0.2807107923030853,0.2971212443560361,2.950767036902904
1759650161196679000,96.76567895507812,-0.6000419687710702,-1.0844921035081148,3.100676151080429
1759650161206763000,96.77576293945312,-0.5757569839507342,-2.562411862438917,3.400256186765432
1759650161216846000,96.78584619140624,-0.2754559405148029,-4.120612780308723,3.6442598811790345
1759650161226929000,96.79592895507812,0.0479962614059448,-5.643033944267034,3.933435719488561
1759650161237012700,96.8060126953125,0.1303197398275137,-7.052304529863595,4.567142788104713
1759650161247096000,96.81609594726562,-0.4873967095829546,-8.306635898160934,5.713325039589405
1759650161257179100,96.82617919921876,-1.709322622707486,-9.419901091688873,6.96430475937128
1759650161267262000,96.83626196289065,-2.968524227389693,-10.29587845505476,7.998949420648813
1759650161277345800,96.846345703125,-3.6177900996655215,-10.752181961107253,8.672540755885839
1759650161287428900,96.85642895507812,-3.708025666385889,-10.894108552098274,8.760317239016294
1759650161297512000,96.86651196289064,-3.5691391737431286,-10.645542956596612,8.152074866524337
1759650161307595000,96.87659497070312,-3.359742390069365,-10.085186370873451,7.426002233421802
1759650161317678800,96.88667895507812,-3.26204481690526,-9.455174065122009,6.882174173173308
1759650161327762000,96.89676196289062,-3.334621392816305,-8.738888666540383,6.371843893378973
1759650161337844700,96.9068447265625,-3.384166637229919,-7.965442872366308,5.954086098819971
1759650161347928000,96.91692797851564,-3.285596372884512,-6.831705968695879,5.486212566483021
1759650161358012000,96.92701196289065,-3.259568782180548,-4.849754737854004,5.068177708548308
1759650161368095000,96.93709497070311,-3.6642718648552894,-1.3886299486279488,4.853980246594548
1759650161378177800,96.947177734375,-4.231788259205222,4.320517513015866,4.341601217576861
1759650161388262100,96.95726220703123,-4.621608245524763,11.6658738458395,1.9280664959192275
1759650161398345000,96.96734497070312,-4.264107643529773,15.948913568854332,-2.012806533963233
1759650161408428000,96.97742797851562,-0.9741256029069424,12.405689173090456,-2.906513176895678
1759650161418510800,96.9875107421875,3.0501831044226884,6.800792944037914,0.0189279878318309
1759650161428595000,96.99759497070312,5.199739557391405,5.06986989941895,2.9415947194099425
1759650161438678000,97.00767797851564,6.837736481031775,6.163263686785101,5.894498183819652
1759650161448761000,97.01776098632811,6.626532355675101,8.350353459334373,6.57789487375617
1759650161458844000,97.02784399414062,4.809806758347153,9.96237598376274,5.011877729177475
1759650161468927700,97.037927734375,2.548235453048348,10.694165825468302,2.322148523597419
1759650161479011000,97.04801098632812,0.4528576033823192,10.697791030228135,-0.4563321476250886
1759650161489094100,97.05809423828126,-0.990346085345745,9.676310970950126,-2.8636911032572385
1759650161499177000,97.06817700195312,-1.5773272047527134,7.787665215793251,-4.567657751889526
1759650161509260800,97.0782607421875,-1.196248304902017,5.625348649972677,-5.674185453855991
1759650161519343900,97.08834375,-0.590062718809396,3.699305184313655,-6.429549063372612
1759650161529427000,97.09842700195313,-0.2984096767313778,2.1537410451769827,-6.635662003070116
1759650161539510000,97.10851000976562,-0.2149649391949176,0.72101125805974,-6.412939873877168
1759650161549593900,97.11859375,-0.2235574109733104,-0.6589794570386409,-5.9580421429693695
1759650161559677000,97.12867700195312,-0.3515720887288451,-1.8326988270074127,-5.519658324488997
1759650161569759700,97.138759765625,-0.5020920282810926,-2.790472430050373,-5.114781054291129
1759650161579843000,97.14884301757812,-0.6058857263632118,-3.631578386521339,-4.92234884942174
1759650161589927000,97.15892700195312,-0.6904951237648725,-4.459240924051404,-4.958913031709194
1759650161600010000,97.16901000976564,-0.6658750617712735,-5.361702389717101,-5.077776727020741
1759650161610092800,97.1790927734375,-0.6997182946622371,-6.224618026936054,-5.301463901853561
1759650161620177200,97.18917724609376,-0.7497542452022433,-6.969260335952043,-5.671023774954676
1759650161630260000,97.19926000976562,-0.7251432432979344,-7.508080797171592,-6.093568803790212
1759650161640343000,97.20934301757812,-0.6411307888761162,-7.894069827026128,-6.619649610424041
1759650161650425900,97.21942578125,-0.5375248684510588,-8.16846486031115,-7.184564297842979
1759650161660510000,97.22951000976562,-0.4589242099449038,-8.28623959134221,-7.704987517106533
1759650161670593000,97.23959301757812,-0.4675295412048697,-8.349754324397445,-8.153943583005667
1759650161680676000,97.24967602539064,-0.5959276653200387,-8.388179039859772,-8.566315008351205
1759650161690759000,97.25975903320312,-0.8360396129921078,-8.542465346208214,-9.07664704171121
1759650161700842800,97.2698427734375,-1.1328355709165334,-8.785031409034133,-9.571867430657148
1759650161710926000,97.27992602539062,-1.5666846685767173,-8.845176957917213,-9.93551837197542
1759650161721009000,97.2900087890625,-2.2134455722942947,-8.31350578393042,-9.879950214010476
1759650161731092000,97.30009204101565,-2.9670158686533568,-6.958450772646069,-9.236289906656742
1759650161741175800,97.31017578125,-3.4936890882223843,-4.705206566187739,-8.27566851296723
1759650161751259000,97.3202587890625,-2.6927093904346227,-1.6711808158397674,-7.514974648338556
1759650161761342000,97.33034204101564,-0.1822394582875073,2.8205384824901816,-6.836429490086436
1759650161771425000,97.34042504882812,2.1528090250238776,8.307693298259377,-6.219504629445075
1759650161781508900,97.3505087890625,0.7894406511634587,14.617695360231398,-2.4900731869369745
1759650161791592000,97.36059204101562,-3.372579659810662,19.809301880049706,3.4743004971414804
1759650161801674800,97.3706748046875,-5.441220747590065,22.142430355083945,6.10319529479146
1759650161811759000,97.38075903320312,-2.6064421428233384,20.351385142457485,6.212721252915263
1759650161821842000,97.39084204101565,1.7460314741626382,14.954704962861538,5.293250784781575
1759650161831925000,97.40092504882811,2.5247291975155477,10.520694926178455,4.1006937356129285
1759650161842007800,97.4110078125,1.466520266907662,8.161513725998997,3.82909096339494
1759650161852091000,97.4210908203125,0.688918375967443,7.203606267443299,3.360846259658038
1759650161862175000,97.43117504882812,0.6453963373661041,7.310714058509468,2.1982541406422853
1759650161872258000,97.44125805664062,0.5052531226605177,7.316896546536683,1.146034221316129
1759650161882340900,97.4513408203125,0.321459859059751,6.479696365332603,0.7155867487929761
1759650161892425000,97.46142504882812,0.3936274157784879,5.170522815257311,1.1296756455808876
1759650161902508000,97.47150805664064,0.651897974345088,4.1218496286273,1.682239093209803
1759650161912591000,97.48159106445311,0.6956013608627021,3.367801777884364,2.158001917491853
1759650161922674000,97.491673828125,0.4035270246326923,2.5388766730725765,2.73156256044209
1759650161932757800,97.5017578125,0.1364975516796112,1.321438572886586,3.1199808632701638
1759650161942841000,97.51184106445312,0.1489700797617435,-0.1945060885339975,3.452045702974498
1759650161952924000,97.521923828125,0.3689648298174142,-1.68182495945096,3.633874388504028
1759650161963007000,97.53200708007812,0.7003736898310482,-3.0725521726191043,3.8408334236368535
1759650161973090800,97.5420908203125,0.9861534559614956,-4.413969119173288,4.024581386791169
1759650161983174000,97.552173828125,1.0189389964930713,-5.6437499835819,4.15723862965554
1759650161993257000,97.56225708007813,0.7107213347136974,-6.758043351113796,4.342549312081933
1759650162003340000,97.57234008789062,-0.2185482045091688,-7.838390609902143,4.732850944438576
1759650162013423900,97.582423828125,-1.6050994471669195,-8.640665023675561,5.603903126361966
1759650162023507000,97.5925068359375,-2.9161709398180244,-9.060563921916485,6.736076433977484
1759650162033589800,97.60258984375,-3.735403502655029,-9.211066618072984,7.723725535324215
1759650162043673000,97.61267309570312,-4.0452468659400935,-9.159946087166666,8.184415878158807
1759650162053757000,97.6227568359375,-4.094939994391798,-8.94872559519708,7.82263774497509
1759650162063840000,97.63284008789064,-3.985544969171285,-8.646915900763869,6.898442001885175
1759650162073922800,97.6429228515625,-3.831520528629422,-8.353094282475114,6.08198884063363
1759650162084006100,97.65300610351562,-3.566056989818811,-7.91385413942635,5.5031964345097535
1759650162094090000,97.66309008789062,-3.209503897807002,-7.054688794651627,5.181202030181884
1759650162104173000,97.67317309570312,-3.2594998085975644,-5.474904990527033,5.044404034250975
1759650162114256400,97.68325634765624,-3.9625621529906985,-2.779165438616276,5.280025977027416
1759650162124339500,97.69333935546877,-5.095120076009631,1.7820687099665402,5.5786570414245125
1759650162134423300,97.70342333984377,-5.597667446842789,7.723731965065002,4.586245840242505
1759650162144506400,97.71350634765624,-5.411005057546496,11.917178510916232,1.2205251064158975
1759650162154589400,97.72358935546876,-2.749552975162864,11.44317100586891,-1.539840208531916
1759650162164673300,97.73367333984376,1.517627061549574,7.240280339846015,-0.7181397942766546
1759650162174756400,97.74375634765624,4.246699412611127,4.226771892347932,1.1241092436254023
1759650162184839400,97.75383935546876,5.557208010682463,4.21868210939467,3.7832141783609994
1759650162194922500,97.76392260742188,5.542143128019571,6.112274673303961,5.928208145719767
1759650162205006300,97.77400634765624,4.262942106881737,8.984152882409095,5.8021583382964135
1759650162215089400,97.78408935546877,2.6725930696010587,10.95760048879981,4.040975179970264
1759650162225172200,97.79417211914064,1.2603436143241822,11.141779829108714,0.8565382111415266
1759650162235255600,97.80425561523438,0.168861359667778,9.975317298400402,-2.524130354839563
1759650162245339400,97.81433935546876,-0.7208709728062153,8.092543065625428,-4.91203320711255
1759650162255422500,97.82442236328124,-1.367736798202991,6.1916317031353705,-6.2506993936538695
1759650162265505300,97.83450537109375,-1.263263447293639,4.469492268952727,-7.119519871002435
1759650162275588400,97.84458837890624,-0.9587567688614128,2.8542823466598986,-7.491185191950201
1759650162285672400,97.85467236328124,-0.5160124170839786,1.4261486551612614,-7.417223883682489
1759650162295755300,97.86475537109376,-0.1229495033204555,0.2285147411197423,-7.109450896930694
1759650162305838300,97.87483837890623,0.0685565266147255,-0.7318401105880736,-6.706207949936389
1759650162315921400,97.88492138671874,-0.057076516701281,-1.5702572663664818,-6.408771063759922
1759650162326005500,97.89500561523438,-0.3071060472756624,-2.285975678715109,-6.329353828173876
1759650162336088300,97.90508837890626,-0.4947714761346578,-2.9045822088330984,-6.457961503386497
1759650162346171400,97.91517138671875,-0.5382765636011958,-3.6183208455413576,-6.762312114474177
1759650162356254500,97.92525439453124,-0.4831047114774584,-4.487631152233481,-7.126227844208478
1759650162366338300,97.93533837890624,-0.4132800646230578,-5.452265288695693,-7.349091427698731
1759650162376421400,97.94542138671876,-0.3606494214147329,-6.433116984987259,-7.546164736372232
1759650162386504400,97.95550439453125,-0.2556678287222981,-7.313139824351668,-7.706423102867602
1759650162396587300,97.96558715820312,-0.1927279729455709,-7.893810883828997,-7.77084559841752
1759650162406671400,97.97567138671874,-0.1303670861005783,-8.205883029079438,-7.770120791274309
1759650162416754400,97.98575439453126,-0.1207911562427878,-8.321419625794887,-7.774464957958459
1759650162426837500,97.99583740234377,-0.2841176781371236,-8.336070082437992,-7.898021779522299
1759650162436920300,98.00592041015624,-0.5716816973358393,-8.261877888023854,-8.083408157533407
1759650162447004400,98.01600439453124,-0.793759683406353,-8.16063168246746,-8.424350423437357
1759650162457087200,98.02608715820313,-1.161859713087976,-8.160794179552793,-8.886673920431733
1759650162467170600,98.03617065429688,-1.6759002455770968,-8.204302481889725,-9.382893257287144
1759650162477253400,98.04625341796876,-1.823686230120808,-8.092137407433986,-9.592401684641835
1759650162487337500,98.05633740234374,-1.80677206632942,-7.372948688626288,-9.234252263349294
1759650162497420300,98.06642016601562,-1.612683618685603,-5.774285411986709,-8.170233039027451
1759650162507503400,98.07650341796877,-1.2754239868171513,-2.807719917449355,-6.619248628407717
1759650162517586400,98.08658642578123,-0.2311819145023822,1.6342986536443234,-5.39234770334959
1759650162527670300,98.09667016601564,0.7499542978189885,8.124186742645502,-4.210135230323672
1759650162537753300,98.10675341796876,-1.2800592454023658,17.773775710886717,-0.6486077006280422
1759650162547836400,98.11683642578124,-5.662999458453059,25.2359890753746,2.6942729864895343
1759650162557919200,98.12691918945312,-6.906288039210438,24.472697010946277,1.323167150244862
1759650162568003300,98.13700341796876,-2.679534851562977,19.11683282586336,1.4088205037415027
1759650162578086400,98.14708642578124,2.0704883230812845,14.817570282322167,2.612353704954684
1759650162588169200,98.15716918945311,2.862847345909476,12.274615984547138,3.3164924464076755
1759650162598252300,98.16725219726564,1.5302134252697228,10.765214461159706,2.3861028171136973
1759650162608336400,98.17733642578123,0.3590425707399844,10.08776060527563,0.2671911663208157
1759650162618419500,98.18741943359376,-1.179326250065118,9.779536952146888,-1.1527410254783927
1759650162628502300,98.19750219726562,-1.8281810573220247,8.861344833385944,-1.6124620848894118
1759650162638585300,98.20758544921875,-1.4102144423179328,7.279159813338517,-1.151312892371416
1759650162648669400,98.21766943359376,-0.857432821893692,5.927242515558004,0.4572087843291461
1759650162658752500,98.22775244140624,-0.4444616770893335,5.130633287939429,2.67315070348382
1759650162668835300,98.23783544921876,-0.1556201853007078,4.70330219387114,4.695530390825867
1759650162678918400,98.24791845703125,-0.0674945964716374,4.050622713759541,6.002607260882854
1759650162689002200,98.25800219726564,-0.2154461468406021,2.784078345099092,6.5734846560984845
1759650162699085600,98.26808544921874,-0.1920652712531387,0.9924585474550724,6.684579470974207
1759650162709168400,98.27816845703126,0.1559732365220785,-0.8821598513931036,6.553377687615156
1759650162719251500,98.28825146484375,0.3307170783571899,-2.622778945118189,6.343467109200358
1759650162729335300,98.29833520507812,0.242196206600219,-4.265763594043254,6.160834998333454
1759650162739418400,98.30841845703124,-0.0797371151901781,-5.65443621276915,6.163827750408649
1759650162749501400,98.31850146484376,-0.5347453207351267,-6.750056444013119,6.510673102876543
1759650162759584500,98.32858447265625,-1.2425750256605446,-7.720922752863168,7.157561724627017
1759650162769668400,98.33866845703125,-2.3827913544781505,-8.594680686613916,8.154732687556743
1759650162779751400,98.34875146484374,-3.5995126846969128,-9.243200124436616,9.288658976319432
1759650162789834200,98.35883422851562,-4.422918733826279,-9.634932081857324,10.099878913092612
1759650162799917600,98.36891748046877,-4.693173598566651,-9.559717558658123,10.191113427722453
1759650162810001400,98.37900146484375,-4.487891264474392,-9.12968655798137,9.520360530781746
1759650162820084200,98.38908422851564,-4.235593496707081,-8.65832576805055,8.566282859647274
1759650162830167300,98.39916723632813,-3.977522406235337,-8.422138592606782,7.626535911682247
1759650162840250400,98.40925048828124,-3.981832086127996,-8.116870282152295,6.78975950884819
1759650162850334500,98.41933447265625,-3.90582612029016,-7.591447062644362,5.9455766291499135
1759650162860417300,98.42941723632812,-3.846019009581208,-6.7447782113492485,5.14111318089962
1759650162870500400,98.43950024414065,-4.088692039912939,-5.149815542793274,4.464818431922793
1759650162880583200,98.44958325195311,-4.236225364869833,-2.3258330573290587,3.8136192534968254
1759650162890667500,98.45966748046877,-3.923854236672818,1.8256605989336967,2.743207113267481
1759650162900750300,98.46975024414064,-3.462735731554031,7.613169649630785,0.3952949105992913
1759650162910833400,98.47983349609376,-3.054172466319799,13.954153125321865,-2.814552978339792
1759650162920916200,98.48991625976562,-2.319655245476961,15.381417632770535,-3.1953473621606823
1759650162931000600,98.50000048828124,0.0832148743033409,11.260507915341853,-1.1698043884821236
1759650162941083400,98.51008349609376,3.322219007360935,8.043050428181886,1.660468721558899
1759650162951166500,98.52016650390624,5.564900318750738,7.558413977092504,5.588331463220715
1759650162961249300,98.53024926757811,5.657848651561141,8.425933308714628,6.618282998245954
