time,seconds_elapsed,z,y,x
1757863535554863600,0.007863525390625,-0.034992869943380356,0.05757301673293114,-0.008617190644145012
1757863535564848600,0.0178486328125,-0.015223161317408085,0.036907684057950974,-0.013587447814643383
1757863535574834700,0.027834716796875,0.011777563951909542,0.01136690378189087,-0.01318291388452053
1757863535584819500,0.0378193359375,0.03217897564172745,-0.008598814718425274,-0.006177468225359917
1757863535594804500,0.047804443359375,0.043897151947021484,-0.03434891998767853,0.0012258529895916581
1757863535604790800,0.057790771484375,0.040336769074201584,-0.04079243540763855,0.014487596228718758
1757863535614775600,0.067775634765625,0.03587570786476135,-0.01888340897858143,0.02701057866215706
1757863535624761600,0.07776171875,0.03333984687924385,0.013349627144634724,0.027881432324647903
1757863535634746600,0.08774658203125,0.02700871415436268,0.025598304346203804,0.016927318647503853
1757863535644731600,0.097731689453125,0.029934994876384735,0.020724719390273094,0.005585447885096073
1757863535654717700,0.1077177734375,0.03819532319903374,-0.001505751279182732,-0.00001304948909819359
1757863535664702700,0.11770263671875,0.025797775015234947,-0.02371518313884735,-0.0013976269401609898
1757863535674687700,0.127687744140625,0.0062403189949691296,-0.012020709924399853,-0.0044075315818190575
1757863535684673500,0.137673583984375,-0.014394652098417282,0.000005858954409632133,0.005649363622069359
1757863535694658600,0.147658447265625,-0.011170629411935806,0.0005147890187799931,0.010070477612316608
1757863535704644600,0.15764453125,-0.007154582068324089,-0.0031364047899842262,0.01393099594861269
1757863535714629600,0.167629638671875,0.0011528824688866735,-0.004671450704336166,0.00908377580344677
1757863535724614700,0.17761474609375,0.0003808320325333625,0.018669025972485542,-0.007966846227645874
1757863535734600400,0.187600341796875,-0.019061041995882988,0.053954578936100006,-0.014793593436479568
1757863535744585500,0.19758544921875,-0.04440474882721901,0.06832632422447205,0.0006359628750942647
1757863535754570800,0.20757080078125,-0.02467924728989601,0.04135436564683914,0.014968030154705048
1757863535764556500,0.217556640625,0.0014024205738678575,-0.00771677540615201,0.009253153577446938
1757863535774541600,0.22754150390625,0.022494923323392868,-0.043003395199775696,-0.009851831942796707
1757863535784527600,0.237527587890625,0.025777002796530724,-0.02219238691031933,-0.034681547433137894
1757863535794512400,0.247512451171875,0.004743622615933418,0.017070861533284187,-0.041959699243307114
1757863535804497700,0.25749755859375,-0.031153924763202667,0.045334991067647934,-0.04092772677540779
1757863535814483700,0.267483642578125,-0.05235534906387329,0.039693351835012436,-0.026523752138018608
1757863535824468700,0.27746875,-0.031504131853580475,0.024059796705842018,-0.013342703692615032
1757863535834453500,0.28745361328125,-0.019393671303987503,0.008361260406672955,-0.011624698527157307
1757863535844439600,0.297439453125,-0.011313906870782375,-0.008447014726698399,-0.0201561339199543
1757863535854424800,0.3074248046875,-0.0013227921444922686,0.017062073573470116,-0.028780516237020493
1757863535864410600,0.31741064453125,0.01543434988707304,-0.006316485349088907,-0.018880480900406837
1757863535874395600,0.327395751953125,0.03837055712938309,-0.05640362203121185,0.005316202063113451
1757863535884380700,0.337380615234375,0.059006061404943466,-0.0875554159283638,0.020965736359357834
1757863535894366500,0.347366455078125,0.06190278381109238,-0.08828085660934448,0.007000385317951441
1757863535904351700,0.357351806640625,0.037278130650520325,-0.054791875183582306,-0.01895877718925476
1757863535914338300,0.36733837890625,0.003410177771002054,0.004985437728464603,-0.03297685831785202
1757863535924323300,0.3773232421875,-0.02834029495716095,0.06138479709625244,-0.02985243685543537
1757863535934308400,0.387308349609375,-0.03865205496549606,0.07168404012918472,-0.015162440948188305
1757863535944294100,0.397294189453125,-0.004706870764493942,0.020252540707588196,0.010386860929429531
1757863535954279400,0.407279541015625,0.01992896758019924,-0.021013937890529633,0.020857345312833786
1757863535964264400,0.417264404296875,0.0317147858440876,-0.03325542435050011,0.014939268119633198
1757863535974250200,0.427250244140625,0.029802104458212852,0.0035302862524986267,0.0004628573951777071
1757863535984235300,0.4372353515625,0.018221082165837288,0.051065314561128616,-0.0072989254258573055
1757863535994221300,0.44722119140625,0.001315068919211626,0.11826219409704208,0.0006090649403631687
1757863536004206300,0.457206298828125,-0.013529391027987003,0.12614968419075012,0.005894640926271677
1757863536014191400,0.46719140625,-0.0059657469391822815,0.06918653100728989,0.020242953673005104
1757863536024177400,0.477177490234375,0.03219522163271904,0.00962679460644722,0.03369884192943573
1757863536034162200,0.487162109375,0.05339105427265167,-0.014990135096013546,0.03593909367918968
1757863536044147200,0.497147216796875,0.06701578199863434,-0.007256847806274891,0.024280838668346405
1757863536054133500,0.507133544921875,0.05542251095175743,0.028299015015363693,0.0025326660834252834
1757863536064118300,0.5171181640625,0.033600836992263794,0.05651920288801193,-0.011711517348885536
1757863536074104300,0.527104248046875,0.011123757809400558,0.08181017637252808,-0.0054693338461220264
1757863536084089300,0.53708935546875,-0.01912895403802395,0.08630026876926422,0.003652791725471616
1757863536094074400,0.547074462890625,-0.05770564079284668,0.08897381275892258,0.013058011420071125
1757863536104060400,0.557060302734375,-0.07011144608259201,0.0983169823884964,0.010762899182736874
1757863536114045400,0.56704541015625,-0.04952174797654152,0.06658701598644257,0.005172924138605595
1757863536124030500,0.577030517578125,-0.002713228575885296,0.014315289445221424,-0.0021827267482876778
1757863536134016300,0.587016357421875,0.03199068829417229,-0.01936917006969452,-0.007966047152876854
1757863536144001300,0.597001220703125,0.05108555406332016,-0.031012244522571564,0.0001030643325066194
1757863536153987300,0.6069873046875,0.04476906731724739,-0.013654826208949089,0.0021260015200823545
1757863536163972400,0.616972412109375,0.022908510640263557,0.008549812249839306,0.005089034326374531
1757863536173957400,0.626957275390625,-0.0065324679017066956,0.014401576481759548,0.011142665520310402
1757863536183943200,0.636943115234375,-0.017464743927121162,0.022598519921302795,0.012911804020404816
1757863536193928200,0.64692822265625,-0.019297797232866287,0.03178536146879196,0.01257970742881298
1757863536203913200,0.656913330078125,-0.024291757494211197,0.013320865109562874,0.014667891897261143
1757863536213899300,0.666899169921875,-0.015127287246286869,0.010058226995170116,0.0033843449782580137
1757863536223884300,0.67688427734375,-0.003145459573715925,0.012082762084901333,-0.009397762827575207
1757863536233870300,0.686870361328125,0.00016831177345011383,0.0008442220860160887,-0.017788052558898926
1757863536243855400,0.69685546875,-0.009295497089624405,-0.004346012603491545,-0.018373414874076843
1757863536253840100,0.706840087890625,-0.03123648278415203,0.013905429281294346,-0.010694989003241062
1757863536263826400,0.716826416015625,-0.05459214001893997,0.016582438722252846,0.0013992248568683863
1757863536273811500,0.7268115234375,-0.05415458232164383,0.025060079991817474,0.010146111249923706
1757863536283796200,0.736796142578125,-0.03791515901684761,0.007238205522298813,0.014898255467414856
1757863536293782300,0.7467822265625,-0.013334447517991066,0.00007057376933516935,0.00854714959859848
1757863536303767600,0.756767578125,0.004905542824417353,0.005929794628173113,0.0015656723408028483
1757863536313753300,0.76675341796875,0.027584489434957504,0.0026578346733003855,-0.0040855552069842815
1757863536323738400,0.77673828125,0.04164651408791542,-0.028724055737257004,-0.004381699021905661
1757863536333723400,0.786723388671875,0.03638730198144913,-0.0641947016119957,-0.007533550262451172
1757863536343709200,0.796709228515625,0.012530705891549587,-0.057916294783353806,-0.021287977695465088
1757863536353694500,0.806694580078125,-0.03838573768734932,-0.00041731735109351575,-0.023672040551900864
1757863536363679500,0.816679443359375,-0.06892553716897964,0.03422481566667557,-0.013455887325108051
1757863536373665300,0.826665283203125,-0.056164734065532684,0.03922969475388527,-0.009351690299808979
1757863536383650300,0.836650390625,-0.02798396348953247,0.0038924762047827244,-0.012109925970435143
1757863536393636400,0.84663623046875,-0.0009161274065263569,-0.020654678344726562,-0.024941569194197655
1757863536403621400,0.856621337890625,0.0007858988246880472,-0.009301622398197651,-0.03375769779086113
1757863536413606400,0.8666064453125,-0.021636053919792175,0.020306071266531944,-0.029631927609443665
1757863536423592400,0.876592529296875,-0.05591706186532974,0.036488503217697144,-0.016332633793354034
1757863536433577200,0.8865771484375,-0.04700878635048866,0.016091085970401764,-0.0030088394414633512
1757863536443563300,0.896563232421875,-0.026188461109995842,-0.019584087654948235,-0.0067993164993822575
1757863536453548500,0.906548583984375,-0.008578574284911156,-0.05633411183953285,-0.019037606194615364
1757863536463533300,0.916533203125,0.006566556170582771,-0.04369368404150009,-0.03425091505050659
1757863536473519400,0.926519287109375,0.0009856359101831913,-0.014109959825873375,-0.037458427250385284
1757863536483504400,0.93650439453125,-0.018856512382626534,-0.0006074670236557722,-0.0278534684330225
1757863536493489200,0.9464892578125,-0.020851219072937965,-0.0140196792781353,-0.006884004920721054
1757863536503475500,0.956475341796875,-0.013196495361626148,-0.020004067569971085,0.01028512790799141
1757863536513460500,0.96646044921875,-0.007823036052286625,-0.019106317311525345,0.008772186003625393
1757863536523446300,0.9764462890625,0.000987766426987946,-0.011612714268267155,-0.008242216892540455
1757863536533431300,0.986431396484375,0.010812699794769287,0.007245662156492472,-0.026818031445145607
1757863536543416300,0.996416259765625,0.007158044259995222,0.01835370622575283,-0.029023395851254463
1757863536553402400,1.00640234375,0.012315788306295872,0.0025094966404139996,-0.012601279653608799
1757863536563387400,1.016387451171875,0.006563893053680658,-0.025910692289471626,0.0032410670537501574
1757863536573372400,1.026372314453125,-0.01756301522254944,-0.031674571335315704,0.011000986211001873
1757863536583358200,1.036358154296875,-0.05527869984507561,0.02238147146999836,0.0065529742278158665
1757863536593343200,1.04634326171875,-0.09404847025871277,0.09589643776416779,0.001297225710004568
1757863536603329500,1.05632958984375,-0.09046918153762817,0.11053183674812317,-0.0021728731226176023
1757863536613314300,1.066314208984375,-0.026975691318511963,0.028898227959871292,0.0004564658156596124
1757863536623299300,1.07629931640625,0.043835896998643875,-0.08146955817937851,0.000746750389225781
1757863536633285400,1.086285400390625,0.08125810325145721,-0.15035834908485413,-0.0018804579740390182
1757863536643270100,1.096270263671875,0.06986723095178604,-0.11677428334951401,-0.010573281906545162
1757863536653255200,1.106255126953125,0.022549783810973167,-0.02004721201956272,-0.011206315830349922
1757863536663241500,1.116241455078125,-0.03621446341276169,0.07256900519132614,-0.00734233483672142
1757863536673226200,1.126226318359375,-0.07692115008831024,0.12933987379074097,-0.0065654912032186985
1757863536683212300,1.13621240234375,-0.08271192014217377,0.1278863251209259,-0.0002948119363281876
1757863536693197300,1.146197265625,-0.05628591030836105,0.07081691175699234,0.004315119702368975
1757863536703182300,1.156182373046875,-0.004040281753987074,0.0015001586871221662,0.007357514929026365
1757863536713168400,1.16616845703125,0.03453986719250679,-0.05614502727985382,0.011715511791408062
1757863536723153400,1.1761533203125,0.05049193650484085,-0.07656215131282806,0.007364439312368631
1757863536733138400,1.186138427734375,0.04286038130521774,-0.06930610537528992,-0.001561944023706019
1757863536743124200,1.196124267578125,0.013980796560645103,-0.044615935534238815,-0.004656270612031221
1757863536753109200,1.206109130859375,-0.019397133961319923,-0.02611202746629715,-0.0004367584188003093
1757863536763095300,1.21609521484375,-0.04218953102827072,-0.005135640036314726,0.011986088939011097
1757863536773080300,1.226080322265625,-0.04409236088395119,0.016276707872748375,0.0158306285738945
1757863536783065300,1.2360654296875,-0.022974558174610138,0.015533685684204102,0.016273511573672295
1757863536793051100,1.246051025390625,0.0173821859061718,0.003169428091496229,0.017129452899098396
1757863536803036200,1.2560361328125,0.061042848974466324,-0.013377324678003788,0.019788352772593498
1757863536813021400,1.266021484375,0.06959345936775208,-0.023917317390441895,0.020505009219050407
1757863536823007200,1.27600732421875,0.06810155510902405,-0.012630308046936989,0.014896657317876816
1757863536832992300,1.2859921875,0.03976685553789139,0.012884372845292091,0.01050510536879301
1757863536842978300,1.295978271484375,-0.004614459350705147,0.058289673179388046,0.010282465256750584
1757863536852963300,1.30596337890625,-0.03223942965269089,0.08345893770456314,0.010510697960853577
1757863536862948400,1.3159482421875,-0.049196042120456696,0.08319874852895737,0.013501161709427834
1757863536872934400,1.325934326171875,-0.0390416756272316,0.061945658177137375,0.013847638852894306
1757863536882919400,1.33591943359375,-0.00920521654188633,0.01582050882279873,0.004476241301745176
1757863536892905200,1.3459052734375,0.017540378496050835,-0.029399966821074486,-0.006429403554648161
1757863536902890500,1.355890380859375,0.03140745684504509,-0.030246585607528687,-0.01404551137238741
1757863536912875300,1.365875244140625,0.025649970397353172,-0.005213137716054916,-0.013707290403544903
1757863536922861000,1.375861083984375,0.0159416813403368,0.01973615400493145,-0.012571185827255249
1757863536932846000,1.38584619140625,0.007699731271713972,0.030945666134357452,-0.007120227441191673
1757863536942831000,1.3958310546875,0.000979244359768927,0.026736805215477943,-0.002846386516466737
1757863536952817200,1.405817138671875,-0.001151018193922937,0.028838573023676872,0.0027718180790543556
1757863536962802200,1.41580224609375,0.012350675649940968,0.02859196439385414,0.009782057255506516
1757863536972788000,1.4257880859375,0.018016284331679344,-0.006868292577564716,0.004822185728698969
1757863536982773000,1.43577294921875,0.03267139196395874,-0.028174912557005882,-0.006923952605575323
1757863536992758000,1.445758056640625,0.021350029855966568,-0.01685061864554882,-0.01188222598284483
1757863537002744300,1.455744384765625,-0.0016921724891290069,0.013420999981462955,-0.0060051619075238705
1757863537012729000,1.46572900390625,-0.026077406480908394,0.06691645085811615,-0.004474110435694456
1757863537022714000,1.475714111328125,-0.04290805384516716,0.09034641087055206,0.0003270361921750009
1757863537032700200,1.4857001953125,-0.028593827039003372,0.06127134710550308,0.010914699174463749
1757863537042685000,1.495684814453125,0.009696835651993752,0.006672283634543419,0.01750975102186203
1757863537052671200,1.505671142578125,0.033003490418195724,-0.054735951125621796,0.023451529443264008
1757863537062656300,1.51565625,0.04518958181142807,-0.0722411721944809,0.0223215501755476
1757863537072641000,1.52564111328125,0.05164002627134323,-0.06065189465880394,0.012518455274403095
1757863537082627000,1.535626953125,0.04829802364110947,-0.0392395481467247,0.005005411338061094
1757863537092612000,1.545612060546875,0.03495825082063675,-0.004847751930356026,0.008831574581563473
1757863537102597000,1.55559716796875,0.00977566558867693,0.01528840884566307,0.015457519330084324
1757863537112583200,1.565583251953125,-0.002670884132385254,0.04446307197213173,0.015175224281847477
1757863537122568200,1.575568115234375,-0.008135158568620682,0.03486024588346481,0.01381141971796751
1757863537132554000,1.585553955078125,-0.008479771204292774,0.014962437562644482,0.008300806395709515
1757863537142539000,1.5955390625,0.005114068277180195,0.00024447820032946765,0.00612260727211833
1757863537152524300,1.605524169921875,0.011985822580754757,-0.002636529505252838,0.0068184914998710155
1757863537162510000,1.615510009765625,0.02100914530456066,-0.010574347339570522,0.009520001709461212
1757863537172495000,1.6254951171875,0.026445455849170685,-0.01107209175825119,0.0057473680935800076
1757863537182481200,1.635481201171875,0.020837636664509773,-0.0016234630020335317,0.00515801040455699
1757863537192466000,1.6454658203125,0.0037175065372139215,-0.00017656758427619934,0.00683180708438158
1757863537202451200,1.655451171875,-0.01684555970132351,0.0063154203817248344,0.00395825644955039
1757863537212437200,1.665437255859375,-0.018251707777380943,-0.0011544802691787481,-0.00006178533658385277
1757863537222422000,1.675422119140625,-0.016113456338644028,-0.010159692727029324,-0.008768191561102867
1757863537232407000,1.685406982421875,-0.0149251539260149,0.003466636873781681,-0.013563479296863079
1757863537242393000,1.69539306640625,-0.014839399605989456,0.023934094235301018,-0.017227722331881523
1757863537252378000,1.705378173828125,-0.004072772338986397,0.038361236453056335,-0.022054968401789665
1757863537262364200,1.7153642578125,-0.000972852751147002,0.0275083240121603,-0.02424142323434353
1757863537272349200,1.72534912109375,-0.0034708979073911905,0.014770690351724625,-0.019223229959607124
1757863537282334200,1.735334228515625,-0.003977697342634201,0.01067874301224947,-0.01158368494361639
1757863537292320000,1.745320068359375,-0.010960505343973637,-0.002941727638244629,-0.000844754686113447
1757863537302305300,1.75530517578125,-0.01727326214313507,-0.006476541515439749,0.0007310376968234777
1757863537312290300,1.765290283203125,-0.020062124356627464,-0.006700513418763876,0.001529187080450356
1757863537322276000,1.775276123046875,-0.011619105003774166,-0.006960970349609852,0.0005928196478635073
1757863537332261000,1.78526123046875,-0.0023672839161008596,-0.0012540825409814715,0.00012170646368758753
1757863537342247000,1.795246826171875,0.005054146982729435,0.007375624496489763,0.0031577101908624172
1757863537352232200,1.805232177734375,0.003185939509421587,0.024694960564374924,0.0031009847298264503
1757863537362217200,1.81521728515625,-0.0068270135670900345,0.040596961975097656,0.006527940277010202
1757863537372203000,1.825203125,-0.017060741782188416,0.051713794469833374,0.006558300461620092
1757863537382188000,1.83518798828125,-0.01884026639163494,0.029878269881010056,0.008612129837274551
1757863537392173000,1.845173095703125,-0.015248727984726429,-0.0023582291323691607,0.008611598052084446
1757863537402159000,1.8551591796875,-0.010329869575798512,-0.01727699115872383,0.007783088367432356
1757863537412144000,1.86514404296875,-0.009349825792014599,-0.009702960960566998,0.004904477391391993
1757863537422130200,1.875130126953125,-0.0041007352992892265,0.004834969062358141,0.00341603672131896
1757863537432115200,1.885115234375,0.0044227116741240025,0.0075639099813997746,0.004099936690181494
1757863537442100000,1.895099853515625,0.010643056593835354,0.005799033213406801,0.003600327530875802
1757863537452086300,1.905086181640625,0.01641971990466118,0.0030466562602669,0.004255465231835842
1757863537462071300,1.9150712890625,0.014009292237460613,0.000630636524874717,0.009404154494404793
1757863537472056000,1.92505615234375,0.003186472225934267,-0.0015568839153274894,0.013548832386732101
1757863537482042000,1.9350419921875,-0.001660480978898704,0.015004249289631844,0.013568272814154625
1757863537492027100,1.945027099609375,-0.007249923422932625,0.04453737288713455,0.010938934050500393
1757863537502013200,1.95501318359375,-0.00202267081476748,0.04916541650891304,0.004480768460780382
1757863537511998200,1.964998291015625,0.010330135934054852,0.02496953122317791,0.003305249148979783
1757863537521983200,1.974983154296875,0.013589312322437763,0.0035862126387655735,0.006170810665935278
1757863537531969000,1.984968994140625,-0.0012487561907619238,0.007099721115082502,0.008506668731570244
1757863537541954000,1.9949541015625,-0.03442215546965599,0.04391685873270035,0.01426335796713829
1757863537551940000,2.004940185546875,-0.04156794771552086,0.04956435784697533,0.033905770629644394
1757863537561925000,2.014925048828125,-0.005654423497617245,0.030226878821849823,0.046711843460798264
1757863537571910100,2.02491015625,0.035827238112688065,-0.005041896365582943,0.04598240554332733
1757863537581896200,2.034896240234375,0.06097147613763809,-0.011477425694465637,0.0367465615272522
1757863537591881000,2.044880859375,0.060086771845817566,0.017765149474143982,0.030779484659433365
1757863537601866000,2.054865966796875,0.028506742790341377,0.058527491986751556,0.03515186160802841
1757863537611852300,2.064852294921875,-0.001936917076818645,0.07746576517820358,0.05398360639810562
1757863537621837000,2.074837158203125,-0.0010865697404369712,0.056536514312028885,0.07322654128074646
1757863537631823000,2.084822998046875,0.02255750633776188,0.0092923017218709,0.07301295548677444
1757863537641808100,2.09480810546875,0.04349101707339287,-0.02190769650042057,0.06013710796833038
1757863537651793000,2.10479296875,0.057628143578767776,-0.014369351789355278,0.039195604622364044
1757863537661779200,2.114779296875,0.046299587935209274,0.00723607512190938,0.03121837228536606
1757863537671764200,2.12476416015625,0.029091838747262955,0.025975674390792847,0.03987684100866318
1757863537681749000,2.1347490234375,0.008351673372089863,0.04290325939655304,0.053631801158189774
1757863537691735000,2.144735107421875,-0.013213805854320526,0.056543171405792236,0.06184152886271477
1757863537701720300,2.15472021484375,-0.009491772390902042,0.07366010546684265,0.05826783552765846
1757863537711706000,2.1647060546875,0.001419198582880199,0.07323027402162552,0.05065279081463814
1757863537721691100,2.174691162109375,0.012045743875205517,0.07112158089876175,0.05360464006662369
1757863537731676200,2.18467626953125,0.023629162460565567,0.05999995395541191,0.06618914008140564
1757863537741662000,2.194661865234375,0.038301847875118256,0.0356203131377697,0.0745389461517334
1757863537751647200,2.204647216796875,0.03525146469473839,0.013954165391623974,0.07697147876024246
1757863537761633300,2.21463330078125,0.02412690781056881,0.012823653407394886,0.07475359737873077
1757863537771618000,2.2246181640625,0.015994945541024208,0.027414847165346146,0.06906189024448395
1757863537781603000,2.23460302734375,0.022056300193071365,0.0299640242010355,0.06540137529373169
1757863537791589000,2.244589111328125,0.025292307138442993,0.011040667071938515,0.07127604633569717
1757863537801574100,2.25457421875,0.02010153979063034,0.01775050163269043,0.07808920741081238
1757863537811559200,2.26455908203125,-0.0034645062405616045,0.0510336235165596,0.08929792046546936
1757863537821545200,2.274545166015625,-0.02472345530986786,0.08401820808649063,0.09594197571277618
1757863537831530000,2.284530029296875,-0.02190423384308815,0.08435695618391037,0.09764187037944794
1757863537841516000,2.29451611328125,0.0080336919054389,0.037037380039691925,0.0993681326508522
1757863537851501300,2.304501220703125,0.04797045513987541,-0.0007712514488957822,0.10154340416193008
1757863537861486000,2.314486083984375,0.07025045901536942,-0.03551831468939781,0.10709502547979355
1757863537871472000,2.32447216796875,0.07761383801698685,-0.03135499358177185,0.12137223780155182
1757863537881457200,2.33445703125,0.06667942553758621,0.0004828310920856893,0.1361628919839859
1757863537891442200,2.344442138671875,0.040765006095170975,0.0338628925383091,0.14895352721214294
1757863537901428200,2.35442822265625,0.023877635598182678,0.06350786983966827,0.15518052875995636
1757863537911413000,2.3644130859375,0.028114991262555122,0.07658559083938599,0.1618831753730774
1757863537921398800,2.374398681640625,0.03779851272702217,0.05429413169622421,0.16273725032806396
1757863537931383800,2.3843837890625,0.04899577051401138,0.027294738218188286,0.15998513996601105
1757863537941369000,2.394369140625,0.061646051704883575,0.012488627806305885,0.15966981649398804
1757863537951355000,2.40435498046875,0.0603988952934742,0.012425510212779045,0.165927454829216
1757863537961340000,2.41433984375,0.053404901176691055,0.028680114075541496,0.17983607947826385
1757863537971325000,2.424324951171875,0.04827165976166725,0.0639752522110939,0.19780388474464417
1757863537981310700,2.434310791015625,0.059117648750543594,0.08771653473377228,0.2154739648103714
1757863537991296000,2.4442958984375,0.08075077086687088,0.0923784002661705,0.23040418326854706
1757863538001282000,2.454281982421875,0.11227327585220337,0.06976763159036636,0.24103792011737823
1757863538011267000,2.46426708984375,0.13535915315151215,0.04429556056857109,0.2541433274745941
1757863538021251800,2.474251953125,0.1402505785226822,0.05055452138185501,0.26318636536598206
1757863538031238000,2.48423779296875,0.128512442111969,0.06944858282804489,0.27110394835472107
1757863538041223200,2.49422314453125,0.10892488807439804,0.09842990338802338,0.28479471802711487
1757863538051209000,2.504208984375,0.0892113670706749,0.11164024472236633,0.30398306250572205
1757863538061194000,2.514194091796875,0.08076169341802597,0.13657382130622864,0.32616424560546875
1757863538071179000,2.524178955078125,0.08750268071889877,0.16213378310203552,0.3373340964317322
1757863538081164800,2.534164794921875,0.11252148449420929,0.16628964245319366,0.3507135510444641
1757863538091150000,2.544150146484375,0.1430559605360031,0.13681617379188538,0.3665279150009155
1757863538101135000,2.554135009765625,0.17272517085075378,0.09106332808732986,0.39139893651008606
1757863538111121000,2.564120849609375,0.17744216322898865,0.09429135173559189,0.4173911213874817
1757863538121106000,2.57410595703125,0.15991748869419098,0.103680320084095,0.426820307970047
1757863538131091700,2.584091796875,0.12449079751968384,0.19210392236709595,0.43978509306907654
1757863538141077000,2.594076904296875,0.08978500962257385,0.24206669628620148,0.4371238052845001
1757863538151062000,2.60406201171875,0.07690756767988205,0.2891119718551636,0.4480675160884857
1757863538161047800,2.6140478515625,0.09813562035560608,0.29460713267326355,0.47362589836120605
1757863538171032800,2.62403271484375,0.13132819533348083,0.24779461324214935,0.4982345700263977
1757863538181017900,2.634017822265625,0.17087800800800323,0.2474454790353775,0.5053015351295471
1757863538191004200,2.644004150390625,0.26237940788269043,0.2646300494670868,0.49660390615463257
1757863538200989000,2.653989013671875,0.29098737239837646,0.283063143491745,0.5010247826576233
1757863538210975000,2.66397509765625,0.29168352484703064,0.3342019319534302,0.5241846442222595
1757863538220960000,2.6739599609375,0.2739716172218323,0.4213826656341553,0.5464603900909424
1757863538230944800,2.68394482421875,0.23938089609146118,0.48753052949905396,0.5826823115348816
1757863538240931000,2.69393115234375,0.19738657772541046,0.5244928002357483,0.6007068753242493
1757863538250916000,2.703916015625,0.15606842935085297,0.561652660369873,0.6189727187156677
1757863538260902000,2.71390185546875,0.19529519975185394,0.62037193775177,0.6331609487533569
1757863538270887000,2.723886962890625,0.22555190324783325,0.6138610243797302,0.6501079797744751
1757863538280872000,2.733871826171875,0.2440105378627777,0.5843036770820618,0.6872899532318115
1757863538290858000,2.74385791015625,0.2280890941619873,0.5358541011810303,0.7382820248603821
1757863538300843000,2.753843017578125,0.22698308527469635,0.48635339736938477,0.786919355392456
1757863538310828000,2.763828125,0.25269243121147156,0.38676929473876953,0.7993954420089722
1757863538320813800,2.773813720703125,0.31552359461784363,0.3365918695926666,0.8267341256141663
1757863538330798800,2.783798828125,0.35150769352912903,0.3472557067871094,0.859544038772583
1757863538340785200,2.79378515625,0.3242585062980652,0.39769142866134644,0.8948585987091064
1757863538350770000,2.80377001953125,0.2619676887989044,0.45974069833755493,0.9271249175071716
1757863538360755000,2.8137548828125,0.26481035351753235,0.4640963077545166,0.9353498220443726
1757863538370741000,2.823740966796875,0.3138625919818878,0.45223990082740784,0.9361996650695801
1757863538380725800,2.833725830078125,0.40204811096191406,0.4568471610546112,0.937997579574585
1757863538390711000,2.8437109375,0.4862319529056549,0.5076248645782471,0.9717352986335754
1757863538400697000,2.853697021484375,0.5798225998878479,0.6062755584716797,1.0231825113296509
1757863538410681900,2.863681884765625,0.677687406539917,0.7101702690124512,1.0441972017288208
1757863538420668000,2.87366796875,0.7639767527580261,0.6843884587287903,1.0349485874176025
1757863538430653000,2.88365283203125,0.8692775964736938,0.5623501539230347,1.042401671409607
1757863538440638000,2.893637939453125,0.9708870649337769,0.43361055850982666,1.0531771183013916
1757863538450624000,2.9036240234375,1.060771107673645,0.46658235788345337,1.0719034671783447
1757863538460609000,2.913609130859375,1.147808313369751,0.6207500696182251,1.1018900871276855
1757863538470594000,2.923593994140625,1.2003556489944458,0.8495718240737915,1.110834002494812
1757863538480579800,2.933579833984375,1.1910638809204102,0.9496941566467285,1.0901447534561157
1757863538490565000,2.943565185546875,1.2103486061096191,0.941211998462677,1.0898816585540771
1757863538500551000,2.953551025390625,1.231652855873108,0.8445656299591064,1.113661289215088
1757863538510536000,2.963535888671875,1.22738516330719,0.7251278758049011,1.1488837003707886
1757863538520521000,2.97352099609375,1.2160015106201172,0.6685373187065125,1.1567317247390747
1757863538530506800,2.9835068359375,1.2422125339508057,0.5834706425666809,1.1229437589645386
1757863538540492000,2.993491943359375,1.3259445428848267,0.5422619581222534,1.0686050653457642
1757863538550478000,3.00347802734375,1.4206725358963013,0.4509251117706299,1.0314396619796753
1757863538560462800,3.013462890625,1.514078140258789,0.4012102782726288,1.0012657642364502
1757863538570448000,3.02344775390625,1.5210902690887451,0.33380115032196045,0.9676294922828674
1757863538580434000,3.033433837890625,1.4112993478775024,0.1567656397819519,0.934339165687561
1757863538590419000,3.0434189453125,1.2719835042953491,0.02630803734064102,0.9288253784179688
1757863538600404000,3.053404052734375,1.104604959487915,0.014856710098683834,0.9151723980903625
1757863538610390000,3.06339013671875,1.0748012065887451,0.08199100941419601,0.8854206204414368
1757863538620375000,3.073375,1.0831289291381836,0.20291022956371307,0.8298410177230835
1757863538630360800,3.08336083984375,1.012770652770996,0.15568679571151733,0.8103543519973755
1757863538640346000,3.09334619140625,0.9635213017463684,0.15665724873542786,0.8069324493408203
1757863538650331100,3.1033310546875,0.8396331667900085,0.1544463038444519,0.8145938515663147
1757863538660317000,3.11331689453125,0.6314437389373779,0.22161255776882172,0.802306592464447
1757863538670302000,3.123302001953125,0.38733813166618347,0.33099231123924255,0.7689707279205322
1757863538680287000,3.133286865234375,0.1693514734506607,0.4064537584781647,0.709300696849823
1757863538690273000,3.14327294921875,0.12838487327098846,0.38015371561050415,0.6696915030479431
1757863538700258000,3.153258056640625,0.18536852300167084,0.22590316832065582,0.6740828156471252
1757863538710243800,3.163243896484375,0.30700841546058655,0.05992725118994713,0.6926607489585876
1757863538720228900,3.173228759765625,0.4068274199962616,0.06951489299535751,0.7225491404533386
1757863538730214000,3.1832138671875,0.40610623359680176,0.30018725991249084,0.7064298391342163
1757863538740200000,3.193199951171875,0.2948782444000244,0.5373673439025879,0.6070672869682312
1757863538750185000,3.20318505859375,0.21138282120227814,0.7007194757461548,0.5095247626304626
1757863538760171000,3.2131708984375,0.11502352356910706,0.6994256973266602,0.41245681047439575
1757863538770156000,3.223156005859375,0.03880518674850464,0.5861036777496338,0.335517555475235
1757863538780140800,3.233140869140625,0.015025288797914982,0.43126192688941956,0.2757125496864319
1757863538790127000,3.243127197265625,0.024478444829583168,0.3090587854385376,0.22823157906532288
1757863538800112000,3.253112060546875,0.05396656319499016,0.2500782907009125,0.17069104313850403
1757863538810097000,3.263096923828125,0.06475875526666641,0.14345329999923706,0.08663848787546158
1757863538820083000,3.2730830078125,0.009826797991991043,0.043706201016902924,-0.003553189570084214
1757863538830068000,3.28306787109375,-0.18394319713115692,-0.010746387764811516,-0.06359522044658661
1757863538840054000,3.293053955078125,-0.3496245741844177,0.015147261321544647,-0.0965220108628273
1757863538850039000,3.3030390625,-0.3915984034538269,-0.009665144607424736,-0.12949727475643158
1757863538860024000,3.313024169921875,-0.3208152949810028,-0.11020666360855103,-0.16782042384147644
1757863538870009900,3.323009765625,-0.25285303592681885,-0.21979014575481415,-0.22093318402767181
1757863538879995000,3.332994873046875,-0.24024535715579987,-0.2529981732368469,-0.29076525568962097
1757863538889981000,3.34298095703125,-0.2680208086967468,-0.22128765285015106,-0.35387471318244934
1757863538899966000,3.352966064453125,-0.27712348103523254,-0.21551257371902466,-0.4107497036457062
1757863538909951000,3.362950927734375,-0.27362489700317383,-0.180313840508461,-0.44513964653015137
1757863538919936800,3.372936767578125,-0.2841838002204895,-0.09175068885087967,-0.4800907075405121
1757863538929921800,3.382921875,-0.3232462406158447,-0.039438217878341675,-0.5118504762649536
1757863538939906800,3.39290673828125,-0.346088707447052,0.018546786159276962,-0.5222325921058655
1757863538949892900,3.402892822265625,-0.41413724422454834,0.00660650385543704,-0.5401263236999512
1757863538959878000,3.4128779296875,-0.49456313252449036,-0.025196166709065437,-0.5690234899520874
1757863538969864000,3.422864013671875,-0.5322673320770264,-0.06179758906364441,-0.6001494526863098
1757863538979849000,3.432848876953125,-0.5838983058929443,-0.10080943256616592,-0.6051210761070251
1757863538989833700,3.442833740234375,-0.632111132144928,-0.08428185433149338,-0.5997358560562134
1757863538999819800,3.45281982421875,-0.6628826260566711,0.01648789644241333,-0.6139254570007324
1757863539009805000,3.46280517578125,-0.7052063941955566,0.10201504826545715,-0.659159243106842
1757863539019789800,3.472789794921875,-0.7369725704193115,0.10206591337919235,-0.7129130363464355
1757863539029776000,3.48277587890625,-0.7095574736595154,0.011265969835221767,-0.763988196849823
1757863539039761000,3.492760986328125,-0.6603230834007263,-0.13982367515563965,-0.8077940344810486
1757863539049746700,3.50274658203125,-0.5811704397201538,-0.24467019736766815,-0.8399338126182556
1757863539059732000,3.51273193359375,-0.5227838158607483,-0.3379588723182678,-0.8745291233062744
1757863539069717000,3.522717041015625,-0.5271809697151184,-0.4158078730106354,-0.9030494093894958
1757863539079702800,3.532702880859375,-0.5614521503448486,-0.3499734401702881,-0.9178075790405273
1757863539089687800,3.542687744140625,-0.6421549916267395,-0.3023153841495514,-0.956153929233551
1757863539099674000,3.552674072265625,-0.7044417858123779,-0.27424994111061096,-0.9881840348243713
1757863539109659000,3.562658935546875,-0.7360936999320984,-0.2763362526893616,-1.0004279613494873
1757863539119644000,3.572643798828125,-0.7519384622573853,-0.32894378900527954,-1.0066183805465698
1757863539129630000,3.5826298828125,-0.7462403774261475,-0.39817026257514954,-1.0150526762008667
1757863539139614700,3.59261474609375,-0.7401878237724304,-0.4245736598968506,-1.0207555294036865
1757863539149599700,3.602599853515625,-0.7080474495887756,-0.45934176445007324,-1.0236554145812988
1757863539159586000,3.6125859375,-0.7200186252593994,-0.4654307961463928,-1.0088493824005127
1757863539169570800,3.62257080078125,-0.7395997643470764,-0.4440629482269287,-0.9907749891281128
1757863539179556900,3.632556884765625,-0.7489120364189148,-0.4313892126083374,-0.9716433882713318
1757863539189542000,3.6425419921875,-0.7557875514030457,-0.4464467167854309,-0.9695525765419006
1757863539199527000,3.65252685546875,-0.7668947577476501,-0.4991703927516937,-0.9771313667297363
1757863539209513000,3.662512939453125,-0.7647714614868164,-0.550673246383667,-0.9920125603675842
1757863539219498000,3.672498046875,-0.7539230585098267,-0.5937315225601196,-1.0000391006469727
1757863539229483000,3.68248291015625,-0.7365685701370239,-0.6039085388183594,-0.9948366284370422
1757863539239468800,3.69246875,-0.7250008583068848,-0.566515326499939,-0.9768474698066711
1757863539249453800,3.702453857421875,-0.7259883880615234,-0.5429261326789856,-0.9686073660850525
1757863539259439900,3.71243994140625,-0.7245771288871765,-0.5375398993492126,-0.9704582691192627
1757863539269425000,3.7224248046875,-0.7243489027023315,-0.5369510650634766,-0.9568641781806946
1757863539279410000,3.732409912109375,-0.7168588042259216,-0.5308780074119568,-0.9395120739936829
1757863539289395700,3.742395751953125,-0.7051653861999512,-0.5700637698173523,-0.9204428195953369
1757863539299380700,3.752380615234375,-0.6661676168441772,-0.6018163561820984,-0.9010752439498901
1757863539309367000,3.762366943359375,-0.6087115406990051,-0.6165979504585266,-0.8831364512443542
1757863539319351800,3.772351806640625,-0.5630939602851868,-0.5947938561439514,-0.8574821949005127
1757863539329336800,3.7823369140625,-0.5239518880844116,-0.5477102398872375,-0.8266965746879578
1757863539339323000,3.792322998046875,-0.4937881529331207,-0.482264906167984,-0.7927373051643372
1757863539349307600,3.8023076171875,-0.4650840759277344,-0.45367348194122314,-0.773775041103363
1757863539359293000,3.81229296875,-0.4236322343349457,-0.45612332224845886,-0.755097508430481
1757863539369279000,3.822279052734375,-0.3764077126979828,-0.48833346366882324,-0.7407830357551575
1757863539379264000,3.832263916015625,-0.34733080863952637,-0.5216602683067322,-0.7297402024269104
1757863539389249800,3.842249755859375,-0.31738993525505066,-0.5557551383972168,-0.729460597038269
1757863539399234800,3.85223486328125,-0.29809772968292236,-0.5698488354682922,-0.7388503551483154
1757863539409220000,3.86222021484375,-0.3129078447818756,-0.5587245225906372,-0.7368907928466797
1757863539419206000,3.872205810546875,-0.3042435050010681,-0.5349776744842529,-0.7309525012969971
1757863539429191000,3.88219091796875,-0.23227638006210327,-0.5240113139152527,-0.7329301834106445
1757863539439176700,3.8921767578125,-0.13957414031028748,-0.5311898589134216,-0.7538021206855774
1757863539449161700,3.90216162109375,-0.08483818918466568,-0.5342327952384949,-0.793940007686615
1757863539459147000,3.91214697265625,0.002582201035693288,-0.5298057794570923,-0.8492972254753113
1757863539469132800,3.9221328125,0.02912060171365738,-0.5808045268058777,-0.8881794214248657
1757863539479117800,3.932117919921875,-0.005652559455484152,-0.5530442595481873,-0.9029447436332703
1757863539489102800,3.942102783203125,-0.07334611564874649,-0.46655014157295227,-0.8969593048095703
1757863539499088600,3.952088623046875,-0.15326465666294098,-0.3596862554550171,-0.8904987573623657
1757863539509074000,3.962073974609375,-0.20839208364486694,-0.30391886830329895,-0.8962849974632263
1757863539519060000,3.97206005859375,-0.22513778507709503,-0.2513062655925751,-0.9109928607940674
1757863539529045000,3.982044921875,-0.23807035386562347,-0.1925252377986908,-0.9231150150299072
1757863539539029800,3.99202978515625,-0.2291114777326584,-0.12694516777992249,-0.9189364910125732
1757863539549015800,4.002015869140625,-0.23416189849376678,-0.0629054605960846,-0.8941672444343567
1757863539559001000,4.0120009765625,-0.27694717049598694,-0.02251436375081539,-0.8620913624763489
1757863539568987000,4.02198681640625,-0.3276420533657074,0.014772288501262665,-0.8258749842643738
1757863539578972000,4.031971923828125,-0.3707008361816406,0.05192764475941658,-0.7973432540893555
1757863539588957000,4.04195703125,-0.3910199701786041,0.08987103402614594,-0.7687587141990662
1757863539598942700,4.051942626953125,-0.36790186166763306,0.14876364171504974,-0.7380122542381287
1757863539608928000,4.061927978515625,-0.3448873460292816,0.19721080362796783,-0.692401647567749
1757863539618913000,4.0719130859375,-0.31605783104896545,0.28961265087127686,-0.6250143647193909
1757863539628898800,4.08189892578125,-0.2751404941082001,0.34756141901016235,-0.5316995978355408
1757863539638883800,4.0918837890625,-0.22304825484752655,0.3612024188041687,-0.4195205867290497
1757863539648869600,4.10186962890625,-0.15646684169769287,0.29738375544548035,-0.3230227828025818
1757863539658855000,4.11185498046875,-0.07716189324855804,0.1640307456254959,-0.27094975113868713
1757863539668840000,4.12183984375,-0.01733291707932949,0.03187324479222298,-0.24285924434661865
1757863539678825700,4.13182568359375,-0.00806218758225441,-0.07138043642044067,-0.2093990296125412
1757863539688810800,4.141810791015625,-0.015083878301084042,-0.12781335413455963,-0.17647117376327515
1757863539698795800,4.151795654296875,-0.017533719539642334,-0.1293979436159134,-0.15040361881256104
1757863539708782000,4.161781982421875,-0.014219149947166443,-0.10536077618598938,-0.14117389917373657
1757863539718766800,4.171766845703125,-0.015486281365156174,-0.07442523539066315,-0.14684830605983734
1757863539728753000,4.1817529296875,-0.03268950432538986,-0.060573332011699677,-0.16407336294651031
1757863539738738000,4.191738037109375,-0.018276741728186607,-0.07040678709745407,-0.17783844470977783
1757863539748722700,4.20172265625,-0.010714695788919926,-0.08397985249757767,-0.1833045780658722
1757863539758709000,4.211708984375,-0.02359081245958805,-0.07081851363182068,-0.18667852878570557
1757863539768694000,4.221694091796875,-0.046191729605197906,0.021695975214242935,-0.20081885159015656
1757863539778679800,4.2316796875,-0.05582172051072121,0.1444631665945053,-0.22576920688152313
1757863539788664800,4.241664794921875,-0.05968037247657776,0.2478494793176651,-0.26041480898857117
1757863539798649900,4.25164990234375,-0.041312552988529205,0.2788875699043274,-0.28605225682258606
1757863539808636000,4.261635986328125,-0.02135402522981167,0.26107659935951233,-0.2973922789096832
1757863539818621000,4.271620849609375,0.009758887812495232,0.24487046897411346,-0.3005811274051666
1757863539828606000,4.28160595703125,0.02960662730038166,0.23612119257450104,-0.29513177275657654
1757863539838591700,4.291591796875,-0.010975685901939869,0.23162789642810822,-0.2879710793495178
1757863539848576800,4.30157666015625,-0.04957927018404007,0.25088468194007874,-0.27976295351982117
1757863539858563000,4.31156298828125,-0.0805630162358284,0.2925328016281128,-0.26270192861557007
1757863539868547800,4.3215478515625,-0.11066659539937973,0.32290828227996826,-0.24405713379383087
1757863539878532900,4.331532958984375,-0.11919776350259781,0.3416691720485687,-0.22454442083835602
1757863539888519000,4.341518798828125,-0.11540275812149048,0.3313837945461273,-0.21435649693012238
1757863539898503700,4.351503662109375,-0.1087469831109047,0.2912643253803253,-0.19785821437835693
1757863539908490000,4.361489990234375,-0.1153969019651413,0.26521995663642883,-0.1784491091966629
1757863539918476300,4.371476318359375,-0.1401619017124176,0.26511210203170776,-0.1498401015996933
1757863539928461600,4.381461669921875,-0.1554737389087677,0.2638031542301178,-0.1239033043384552
1757863539938447400,4.391447265625,-0.12386228889226913,0.23387295007705688,-0.10374929755926132
1757863539948432400,4.401432373046875,-0.07821890711784363,0.21513760089874268,-0.08901482820510864
1757863539958417400,4.41141748046875,-0.01950339414179325,0.2500908076763153,-0.0848722830414772
1757863539968403500,4.421403564453125,0.020168384537100792,0.3125714957714081,-0.07483429461717606
1757863539978388500,4.431388427734375,0.04211762547492981,0.3680376708507538,-0.06096162274479866
1757863539988374500,4.44137451171875,0.026224147528409958,0.396782249212265,-0.05078115686774254
1757863539998359600,4.451359619140625,-0.002773415995761752,0.4035320281982422,-0.0347188301384449
1757863540008344300,4.46134423828125,-0.024342624470591545,0.39707598090171814,-0.020166786387562752
1757863540018330400,4.471330322265625,-0.02183898538351059,0.3788253366947174,-0.01570359617471695
1757863540028315600,4.481315673828125,0.008519185706973076,0.3129717707633972,-0.010250773280858994
1757863540038301400,4.491301513671875,0.046848464757204056,0.23511478304862976,0.001241033081896603
1757863540048286500,4.501286376953125,0.07151199877262115,0.19832320511341095,0.00012250541476532817
1757863540058271500,4.511271484375,0.07097430527210236,0.19671572744846344,-0.008349009789526463
1757863540068257500,4.521257568359375,0.05155107378959656,0.20852310955524445,-0.016202405095100403
1757863540078242600,4.53124267578125,0.026382604613900185,0.213520810008049,-0.015381352975964546
1757863540088227600,4.5412275390625,0.024151142686605453,0.19515058398246765,-0.0028988507110625505
1757863540098213400,4.55121337890625,0.04559491574764252,0.1636429876089096,0.012107263319194317
1757863540108198400,4.561198486328125,0.08819936960935593,0.126850888133049,0.03315449133515358
1757863540118184400,4.571184326171875,0.1172962635755539,0.09304605424404144,0.05440358817577362
1757863540128169500,4.58116943359375,0.15128353238105774,0.09305963665246964,0.06446980684995651
1757863540138154500,4.591154541015625,0.15991270542144775,0.09374167025089264,0.07062783092260361
1757863540148140500,4.601140625,0.14818254113197327,0.09056451916694641,0.06746186316013336
1757863540158125300,4.611125244140625,0.12598323822021484,0.10193515568971634,0.06776066869497299
1757863540168111600,4.621111572265625,0.09554702788591385,0.09970209002494812,0.059481967240571976
1757863540178096600,4.6310966796875,0.05248451232910156,0.09801444411277771,0.0610649511218071
1757863540188081400,4.641081298828125,0.008815063163638115,0.0874779149889946,0.06828611344099045
1757863540198067500,4.6510673828125,-0.013495835475623608,0.07479647547006607,0.08548294007778168
1757863540208052500,4.661052490234375,-0.01101616583764553,0.04402924329042435,0.09291049838066101
1757863540218037200,4.671037353515625,0.011408182792365551,0.009002016857266426,0.09075333923101425
1757863540228023600,4.6810234375,0.047926779836416245,-0.01002333965152502,0.08273722231388092
1757863540238008600,4.691008544921875,0.07200228422880173,-0.024986309930682182,0.07655496150255203
1757863540247994400,4.700994384765625,0.08120138198137283,-0.036558810621500015,0.07711582630872726
1757863540257979400,4.7109794921875,0.07171333581209183,-0.04547027871012688,0.08375135809183121
1757863540267964400,4.72096435546875,0.04652728885412216,-0.059959739446640015,0.0807744711637497
1757863540277950500,4.730950439453125,0.022397983819246292,-0.06582482159137726,0.07568011432886124
1757863540287935500,4.740935546875,0.001871136948466301,-0.06670472770929337,0.07475839555263519
1757863540297920500,4.75092041015625,-0.013449229300022125,-0.06366046518087387,0.08302617818117142
1757863540307906300,4.76090625,-0.016226373612880707,-0.0485779233276844,0.09336190670728683
1757863540317891300,4.770891357421875,-0.012657205574214458,-0.03821849077939987,0.10269921272993088
1757863540327877600,4.780877685546875,0.00983425509184599,-0.029952572658658028,0.10046642273664474
1757863540337862400,4.7908623046875,0.032531578093767166,-0.03285728394985199,0.09448229521512985
1757863540347847400,4.800847412109375,0.04291364550590515,-0.037644580006599426,0.08711759001016617
1757863540357833500,4.81083349609375,0.04747510701417923,-0.045527804642915726,0.08026634156703949
1757863540367818200,4.820818359375,0.0419975183904171,-0.0426662378013134,0.07233119010925293
1757863540377804500,4.830804443359375,0.02238200418651104,-0.0117338877171278,0.07202306389808655
1757863540387789600,4.84078955078125,-0.003278617514297366,-0.0036615801509469748,0.06500749289989471
1757863540397774300,4.8507744140625,-0.01107182539999485,0.016344618052244186,0.07021716982126236
1757863540407760400,4.860760498046875,-0.007380684372037649,-0.01763571798801422,0.07054420560598373
1757863540417745400,4.870745361328125,0.0018429075134918094,-0.03759664297103882,0.06512041389942169
1757863540427731500,4.8807314453125,0.006386526394635439,-0.07380817830562592,0.05824839323759079
1757863540437716500,4.890716552734375,-0.007348460145294666,-0.08061015605926514,0.05107410252094269
1757863540447701500,4.900701416015625,-0.02604704722762108,-0.05534075200557709,0.041071005165576935
1757863540457687300,4.910687255859375,-0.05016862973570824,-0.0160032007843256,0.04182867333292961
1757863540467672300,4.92067236328125,-0.0859585851430893,0.013225523754954338,0.04108218848705292
1757863540477657600,4.93065771484375,-0.1107877641916275,0.056340236216783524,0.04669320210814476
1757863540487643400,4.940643310546875,-0.11939776688814163,0.10347632318735123,0.049429070204496384
1757863540497628400,4.95062841796875,-0.12422767281532288,0.1358577013015747,0.05211193859577179
1757863540507614500,4.960614501953125,-0.1227102056145668,0.1455042064189911,0.044618867337703705
1757863540517599200,4.97059912109375,-0.11273080855607986,0.14218510687351227,0.03682645782828331
1757863540527584500,4.98058447265625,-0.0973886027932167,0.17004282772541046,0.03554414585232735
1757863540537570600,4.990570556640625,-0.11156833916902542,0.2016172707080841,0.0372440405189991
1757863540547555300,5.000555419921875,-0.12526923418045044,0.2178574949502945,0.030844464898109436
1757863540557540400,5.010540283203125,-0.07928523421287537,0.22597667574882507,0.028505943715572357
1757863540567526400,5.0205263671875,-0.031216509640216827,0.1824267953634262,0.04358502849936485
1757863540577511400,5.030511474609375,0.04279832914471626,0.08441395312547684,0.046352319419384
1757863540587497500,5.04049755859375,0.11463470011949539,0.01695874333381653,0.03622085601091385
1757863540597482500,5.050482421875,0.16480599343776703,-0.0272635780274868,0.022056300193071365
1757863540607467500,5.060467529296875,0.16114334762096405,-0.02780446596443653,0.01595339924097061
1757863540617453300,5.070453369140625,0.11631675809621811,-0.02677222527563572,0.017676997929811478
1757863540627438600,5.0804384765625,0.08940045535564423,-0.07803194969892502,0.01398958545178175
1757863540637424400,5.09042431640625,0.0653073638677597,0.002781671704724431,0.05163896083831787
1757863540647409400,5.100409423828125,0.0585530586540699,-0.046480681747198105,0.06059170886874199
1757863540657394400,5.11039453125,0.0658317431807518,-0.08770348876714706,0.025189509615302086
1757863540667380500,5.12038037109375,0.08753197640180588,-0.1004142239689827,-0.0031017838045954704
1757863540677365500,5.130365478515625,0.08802013844251633,-0.12355336546897888,-0.011943744495511055
1757863540687350500,5.1403505859375,0.05788593739271164,-0.09624876827001572,-0.010523214936256409
1757863540697336300,5.15033642578125,0.01224841084331274,-0.04428916797041893,-0.010174340568482876
1757863540707321300,5.1603212890625,-0.02815999835729599,0.014702779240906239,-0.011384746991097927
1757863540717307600,5.1703076171875,-0.03952290862798691,0.05212099105119705,-0.006695453077554703
1757863540727292400,5.18029248046875,-0.0011036139912903309,0.016474580392241478,-0.0005834985640831292
1757863540737277400,5.19027734375,0.04450727999210358,-0.040101345628499985,-0.003055977402254939
1757863540747263500,5.200263427734375,0.08156996220350266,-0.08150604367256165,-0.01312059536576271
1757863540757248500,5.21024853515625,0.09904375672340393,-0.12426309287548065,-0.02503957226872444
1757863540767234600,5.220234619140625,0.07311495393514633,-0.11604777723550797,-0.026008430868387222
1757863540777219600,5.230219482421875,0.016154201701283455,-0.1045389249920845,-0.025109613314270973
1757863540787204600,5.24020458984375,-0.03901158273220062,-0.049189649522304535,-0.01991991139948368
1757863540797190400,5.2501904296875,-0.0813332051038742,0.015871107578277588,-0.01188355777412653
1757863540807175400,5.260175537109375,-0.07452723383903503,0.04674113914370537,-0.0005350290448404849
1757863540817161500,5.270161376953125,-0.03773646056652069,0.02514529973268509,0.0011195929255336523
1757863540827146500,5.280146484375,0.013887053355574608,-0.05534341558814049,-0.008166849613189697
1757863540837131500,5.290131591796875,0.06855535507202148,-0.1096455380320549,-0.02478577382862568
1757863540847117300,5.300117431640625,0.07551712542772293,-0.13001179695129395,-0.030960312113165855
1757863540857102300,5.310102294921875,0.0419546402990818,-0.13025307655334473,-0.03706188127398491
1757863540867087400,5.32008740234375,-0.019118035212159157,-0.0762990340590477,-0.029282521456480026
1757863540877073400,5.330073486328125,-0.07768627256155014,-0.018785938620567322,-0.017299627885222435
1757863540887058400,5.340058349609375,-0.10528221726417542,0.012445217929780483,-0.005001150071620941
1757863540897044500,5.35004443359375,-0.060202088207006454,0.030646592378616333,-0.00535588338971138
1757863540907029500,5.360029541015625,-0.022654712200164795,-0.002823483431711793,-0.009604424238204956
1757863540917013500,5.370013427734375,-0.004656004719436169,-0.03068147972226143,-0.019748138263821602
1757863540926999600,5.37999951171875,0.010978082194924355,-0.03632311895489693,-0.03792314603924751
1757863540936984600,5.389984619140625,0.005257079843431711,-0.06465809047222137,-0.04886181652545929
1757863540946969600,5.399969482421875,-0.01164786797016859,-0.08374336361885071,-0.04271337389945984
1757863540956955400,5.409955322265625,-0.027791418135166168,-0.09067317843437195,-0.03073873743414879
1757863540966940400,5.4199404296875,-0.05217185616493225,-0.059546951204538345,-0.020239224657416344
1757863540976926500,5.429926513671875,-0.07587265968322754,-0.008488559164106846,-0.010706706903874874
1757863540986911500,5.439911376953125,-0.054376423358917236,0.019156116992235184,-0.0075604477897286415
1757863540996896500,5.449896484375,0.0051508196629583836,-0.004144411068409681,-0.014181599020957947
1757863541006882300,5.45988232421875,0.05246906727552414,-0.08435402810573578,-0.02556687965989113
1757863541016867300,5.469867431640625,0.07841544598340988,-0.13584011793136597,-0.04104756936430931
1757863541026853600,5.479853515625,0.08327305316925049,-0.12415363639593124,-0.05314817279577255
1757863541036838700,5.489838623046875,0.060926202684640884,-0.06746772676706314,-0.05175933614373207
1757863541046823400,5.499823486328125,0.03387594223022461,0.014186392538249493,-0.046727024018764496
1757863541056809500,5.5098095703125,-0.00034168356796726584,0.07454507052898407,-0.0387553833425045
1757863541066794500,5.51979443359375,-0.03224289044737816,0.10802473872900009,-0.03742220625281334
1757863541076779300,5.529779296875,-0.043591685593128204,0.10370482504367828,-0.04218526929616928
1757863541086765600,5.539765625,-0.03897003456950188,0.0595829039812088,-0.040342096239328384
1757863541096750600,5.54975048828125,0.007129015866667032,-0.012271580286324024,-0.030489465221762657
1757863541106736400,5.559736328125,0.053573478013277054,-0.057369016110897064,-0.021707957610487938
1757863541116721400,5.569721435546875,0.06606663763523102,-0.07817256450653076,-0.01775289885699749
1757863541126706400,5.57970654296875,0.06385887414216995,-0.05771123245358467,-0.025229455903172493
1757863541136692500,5.5896923828125,0.04874170571565628,-0.0095698032528162,-0.02767929807305336
1757863541146677500,5.599677490234375,0.020666396245360374,0.04578186944127083,-0.016867663711309433
1757863541156663300,5.609663330078125,-0.006645918358117342,0.090053990483284,-0.00872105360031128
1757863541166648300,5.6196484375,-0.02701856754720211,0.08808378875255585,-0.011974371038377285
1757863541176633300,5.62963330078125,-0.01938568241894245,0.08127009123563766,-0.02388402819633484
1757863541186619600,5.63961962890625,0.01218689139932394,0.053154297173023224,-0.028855882585048676
1757863541196604400,5.6496044921875,0.03897376358509064,0.022476280108094215,-0.028362665325403214
1757863541206589400,5.65958935546875,0.048164065927267075,0.0024533038958907127,-0.023615580052137375
1757863541216575500,5.669575439453125,0.046546995639801025,-0.0017507621087133884,-0.02400253899395466
1757863541226560300,5.679560302734375,0.031020499765872955,0.007567904889583588,-0.029092904180288315
1757863541236546600,5.689546630859375,0.012717925943434238,0.020555075258016586,-0.024338362738490105
1757863541246531600,5.699531494140625,-0.01188062783330679,0.053950581699609756,-0.012930979020893574
1757863541256516400,5.709516357421875,-0.03668717294931412,0.10196897387504578,-0.008262990042567253
1757863541266502400,5.71950244140625,-0.040101613849401474,0.11240324378013611,-0.013656423427164555
1757863541276487400,5.7294873046875,-0.035051193088293076,0.11091826111078262,-0.020843230187892914
1757863541286473500,5.739473388671875,-0.012790629640221596,0.09551133960485458,-0.025801237672567368
1757863541296458500,5.74945849609375,0.02040434069931507,0.0529702752828598,-0.02592400833964348
1757863541306443500,5.759443603515625,0.04658294841647148,-0.018977418541908264,-0.024598287418484688
1757863541316429300,5.76942919921875,0.05091244727373123,-0.062017299234867096,-0.021525265648961067
1757863541326414300,5.779414306640625,0.037398505955934525,-0.040403347462415695,-0.019697537645697594
1757863541336399600,5.789399658203125,0.00777669670060277,0.023867782205343246,-0.016715863719582558
1757863541346385400,5.799385498046875,-0.013588513247668743,0.06796147674322128,-0.015727564692497253
1757863541356370400,5.809370361328125,-0.014877216890454292,0.08398251980543137,-0.015539011918008327
1757863541366356500,5.8193564453125,-0.013167733326554298,0.05169355496764183,-0.014976552687585354
1757863541376341200,5.82934130859375,0.0008008125587366521,0.025135446339845657,-0.018124675378203392
1757863541386326500,5.839326416015625,-0.006689327768981457,0.011168764904141426,-0.02195589803159237
1757863541396312600,5.8493125,-0.000005858954409632133,-0.020832045003771782,-0.020171847194433212
1757863541406297300,5.85929736328125,0.006712231319397688,-0.052512478083372116,-0.018185928463935852
1757863541416283400,5.869283447265625,0.000050866376113845035,-0.05216173827648163,-0.009941580705344677
1757863541426268400,5.879268310546875,-0.013890515081584454,-0.008990298956632614,0.0015310513554140925
1757863541436253400,5.88925341796875,-0.019389675930142403,0.0627848207950592,0.005824067164212465
1757863541446239500,5.899239501953125,-0.006859770510345697,0.08929125964641571,0.0008282430935651064
1757863541456224500,5.909224609375,0.020784640684723854,0.06162954121828079,-0.014146711677312851
1757863541466209500,5.91920947265625,0.03477662429213524,0.012704077176749706,-0.021734056994318962
1757863541476195300,5.9291953125,0.026493659242987633,-0.013684652745723724,-0.02876853197813034
1757863541486180600,5.9391806640625,0.001806155894882977,-0.02912512794137001,-0.029557891190052032
1757863541496166400,5.94916650390625,-0.014886271208524704,-0.02605716697871685,-0.024226775392889977
1757863541506151400,5.9591513671875,-0.022728748619556427,-0.023091737180948257,-0.016998691484332085
1757863541516136400,5.969136474609375,-0.02684679441154003,0.001597363967448473,-0.006600378546863794
1757863541526122500,5.97912255859375,-0.014913436025381088,0.04505908861756325,-0.00048363005043938756
1757863541536107500,5.989107421875,0.004135889001190662,0.05044932663440704,-0.0029739518649876118
1757863541546093600,5.999093505859375,0.02797411009669304,0.021697571501135826,-0.01284575741738081
1757863541556078300,6.009078369140625,0.03765736520290375,-0.02436499483883381,-0.019650133326649666
1757863541566063400,6.0190634765625,0.02905881591141224,-0.03651193901896477,-0.02044961415231228
1757863541576049700,6.029049560546875,-0.0035388083197176456,-0.02521693892776966,-0.017298828810453415
1757863541586034400,6.039034423828125,-0.03197284787893295,0.010632137767970562,-0.007918110117316246
1757863541596019500,6.04901953125,-0.036135900765657425,0.027721643447875977,-0.000032490566809428856
1757863541606005500,6.059005615234375,-0.015750734135508537,0.029945649206638336,0.0031220237724483013
1757863541615990500,6.068990478515625,-0.0025869945529848337,0.008489624597132206,-0.007525560446083546
1757863541625976600,6.0789765625,0.02153165638446808,-0.015542740933597088,-0.02732083760201931
1757863541635961600,6.088961669921875,0.03001995012164116,-0.04653234779834747,-0.041242510080337524
1757863541645946600,6.098946533203125,0.015916649252176285,-0.061705175787210464,-0.04406626150012016
1757863541655932400,6.108932373046875,-0.01437973789870739,-0.04771026596426964,-0.03735509514808655
1757863541665917400,6.11891748046875,-0.0444076769053936,-0.023609722033143044,-0.030486004427075386
1757863541675903500,6.128903564453125,-0.06137867271900177,-0.005095159634947777,-0.02389041893184185
1757863541685888500,6.138888427734375,-0.05896424874663353,0.006739129312336445,-0.019040003418922424
1757863541695873500,6.14887353515625,-0.03476729989051819,0.008058725856244564,-0.012664929032325745
1757863541705859300,6.158859375,0.004860002547502518,-0.010143980383872986,-0.009454487822949886
1757863541715844400,6.16884423828125,0.04189338907599449,-0.03738332539796829,-0.00771863991394639
1757863541725829400,6.178829345703125,0.051540687680244446,-0.06824323534965515,-0.009169796481728554
1757863541735815400,6.1888154296875,0.036664269864559174,-0.06577581912279129,-0.010704043321311474
1757863541745800400,6.198800537109375,-0.0009464874165132642,-0.04924051836133003,-0.006800648290663958
1757863541755786500,6.208786376953125,-0.03887150064110756,-0.012219914235174656,-0.002463690238073468
1757863541765771300,6.218771240234375,-0.06326232850551605,0.02480255253612995,0.004010454285889864
1757863541775756300,6.22875634765625,-0.0644703358411789,0.03844273090362549,-0.00019867181254085153
1757863541785742600,6.23874267578125,-0.02677115984261036,0.004727377090603113,-0.0014210627414286137
1757863541795727600,6.2487275390625,0.017539313063025475,-0.05916132405400276,-0.0051745218224823475
1757863541805713400,6.25871337890625,0.03963156417012215,-0.08974107354879379,-0.0015843145083636045
1757863541815698400,6.268698486328125,0.027580229565501213,-0.05860472470521927,-0.00020985709852539003
1757863541825683500,6.278683349609375,-0.003983822651207447,-0.025894448161125183,0.005286907311528921
1757863541835669500,6.28866943359375,-0.020369186997413635,0.021876802667975426,0.004503405187278986
1757863541845654500,6.298654541015625,-0.026678215712308884,0.03605121001601219,0.005336708389222622
1757863541855639600,6.3086396484375,-0.010039051994681358,0.02768062986433506,0.004298075567930937
1757863541865625300,6.318625244140625,0.01353711448609829,-0.02003655955195427,0.0029606360476464033
1757863541875610400,6.3286103515625,0.028979454189538956,-0.05655648559331894,-0.0017947042360901833
1757863541885596400,6.338596435546875,0.015078285709023476,-0.061941664665937424,-0.00370099488645792
1757863541895581400,6.34858154296875,-0.014359764754772186,-0.04413150995969772,-0.0007861651247367263
1757863541905566500,6.35856640625,-0.03678224980831146,-0.024812938645482063,0.004714061506092548
1757863541915552000,6.368552001953125,-0.059836700558662415,0.012046276591718197,0.011080347932875156
1757863541925536800,6.378536865234375,-0.06148812919855118,0.01876915991306305,0.014256966300308704
1757863541935523000,6.388523193359375,-0.034216027706861496,0.012104333378374577,0.013393836095929146
1757863541945508000,6.398508056640625,0.0006295712664723396,0.002153431996703148,0.009468070231378078
1757863541955492900,6.408492919921875,0.02245337702333927,-0.032821595668792725,0.0021054951939731836
1757863541965479000,6.41847900390625,0.029107285663485527,-0.04493924602866173,-0.00005299690383253619
1757863541975464000,6.4284638671875,0.018156100064516068,-0.03283624351024628,0.0015643407823517919
1757863541985449000,6.438448974609375,-0.013285711407661438,0.006391054019331932,0.002638926263898611
1757863541995435000,6.44843505859375,-0.041494179517030716,0.050281278789043427,0.0053553506731987
1757863542005420000,6.458419921875,-0.05396416410803795,0.07255010306835175,0.008533567190170288
1757863542015405800,6.46840576171875,-0.043846018612384796,0.06413291394710541,0.007479487918317318
1757863542025390800,6.478390869140625,-0.02076520025730133,0.034147582948207855,0.006458698306232691
1757863542035375900,6.4883759765625,-0.002674079965800047,0.0044346959330141544,-0.005066663958132267
1757863542045362000,6.49836181640625,0.005586512852460146,-0.03271480277180672,-0.013598100282251835
1757863542055347000,6.508346923828125,0.00013502225920092314,-0.04641596972942352,-0.014911837875843048
1757863542065333000,6.5183330078125,-0.02480015531182289,-0.03291986510157585,-0.00640836451202631
1757863542075317800,6.52831787109375,-0.05065891519188881,-0.021033113822340965,0.010026268661022186
1757863542085303000,6.538302978515625,-0.049360357224941254,0.007690942846238613,0.01315308641642332
1757863542095289000,6.5482890625,-0.07910653948783875,0.031255923211574554,0.007930360734462738
1757863542105273900,6.55827392578125,-0.06313022971153259,0.017188839614391327,-0.010152769275009632
1757863542115259000,6.5682587890625,-0.013776266016066074,-0.06663202494382858,-0.015212775208055973
1757863542125245000,6.578244873046875,0.006855775602161884,-0.09440852701663971,-0.007106112781912088
1757863542135230000,6.58822998046875,0.003978230059146881,-0.08040349930524826,-0.002823217073455453
1757863542145216000,6.598216064453125,-0.019193135201931,-0.015482553280889988,-0.009848369285464287
1757863542155201000,6.608200927734375,-0.03479606285691261,0.039984699338674545,-0.01732652634382248
1757863542165186000,6.61818603515625,-0.04380660131573677,0.06422905623912811,-0.019050389528274536
1757863542175171800,6.628171875,-0.048594433814287186,0.05794825404882431,-0.018034394830465317
1757863542185157000,6.6381572265625,-0.033242110162973404,0.056353021413087845,-0.0065505774691700935
1757863542195142100,6.64814208984375,-0.017363278195261955,0.012077435851097107,0.01655101403594017
1757863542205128000,6.6581279296875,0.006867227144539356,-0.0880422443151474,-0.021704763174057007
1757863542215113000,6.668113037109375,0.003850398352369666,-0.12986399233341217,-0.028376247733831406
1757863542225098800,6.6780986328125,-0.022816898301243782,-0.09089848399162292,-0.0211873110383749
1757863542235084000,6.688083984375,-0.049621082842350006,-0.034747593104839325,-0.005483448505401611
1757863542245069000,6.698069091796875,-0.07573231309652328,0.01666819304227829,-0.014986938796937466
1757863542255054800,6.708054931640625,-0.06113312765955925,0.04098791256546974,-0.025540780276060104
1757863542265040000,6.718039794921875,-0.029770944267511368,0.005783586762845516,-0.027355192229151726
1757863542275026000,6.72802587890625,-0.008494950830936432,-0.016692694276571274,-0.021384118124842644
1757863542285011000,6.738010986328125,0.014534201472997665,-0.053041912615299225,-0.016599483788013458
1757863542294996000,6.747995849609375,0.030662305653095245,-0.06451641023159027,-0.02203233167529106
1757863542304982000,6.75798193359375,0.035479962825775146,-0.040768735110759735,-0.03377740457653999
1757863542314967000,6.767967041015625,0.03999348729848862,-0.019395269453525543,-0.04493924602866173
1757863542324952800,6.777952880859375,0.044258009642362595,-0.01064811646938324,-0.04668388143181801
1757863542334938000,6.787938232421875,0.025494175031781197,-0.0010863033821806312,-0.031553663313388824
1757863542344923100,6.797923095703125,0.024037426337599754,-0.0020993698853999376,-0.01907702162861824
1757863542354909000,6.807908935546875,0.034281808882951736,-0.05420171841979027,-0.016103869304060936
