time,seconds_elapsed,z,y,x
1758280566622686200,52.314134277343754,-0.6018337607383728,-2.714229106903076,1.1119364500045776
1758280566632771300,52.324219238281245,-0.7268732190132141,-3.47373628616333,0.8914722800254822
1758280566642857200,52.334305175781246,-0.8055256605148315,-3.736828327178955,0.7152191996574402
1758280566652942000,52.34439013671875,-0.805209755897522,-3.675012588500977,0.6215291619300842
1758280566663028200,52.354476318359374,-0.7348562479019165,-3.471425294876098,0.5866824388504028
1758280566673113300,52.36456127929687,-0.6127745509147644,-3.2272591590881348,0.5793107748031616
1758280566683199200,52.37464721679687,-0.4813304245471954,-2.9217529296875,0.5655775666236877
1758280566693284400,52.384732421875,-0.3767845630645752,-2.557486295700073,0.5468981862068176
1758280566703369200,52.394817138671876,-0.3235315680503845,-2.154627084732056,0.5181460380554199
1758280566713455000,52.40490307617187,-0.327486902475357,-1.7355949878692627,0.4778366982936859
1758280566723541200,52.4149892578125,-0.3717292249202728,-1.325096845626831,0.4292127788066864
1758280566733626400,52.42507446289062,-0.4462505877017975,-0.940519392490387,0.3850652873516083
1758280566743712300,52.43516015625,-0.5361366271972656,-0.6320799589157104,0.359483927488327
1758280566753797400,52.44524536132812,-0.627485990524292,-0.4279758036136627,0.3652462065219879
1758280566763882200,52.455330322265624,-0.7049565315246582,-0.3452492654323578,0.3826427459716797
1758280566773968100,52.465416015624996,-0.7580602169036865,-0.3887804746627807,0.407204806804657
1758280566784053200,52.47550122070312,-0.7976353168487549,-0.541178822517395,0.4174731373786926
1758280566794139100,52.485587158203124,-0.8259002566337585,-0.7508500218391418,0.4195607900619507
1758280566804224300,52.49567236328125,-0.8476426601409912,-0.9751271605491638,0.4172757565975189
1758280566814310400,52.505758300781245,-0.8625361323356628,-1.1756830215454102,0.413308173418045
1758280566824395300,52.51584326171875,-0.8559602499008179,-1.3069363832473757,0.400557279586792
1758280566834481200,52.52592919921875,-0.8378710150718689,-1.3575475215911863,0.4002837538719177
1758280566844566300,52.53601416015625,-0.8099140524864197,-1.3544567823410034,0.4162307381629944
1758280566854652200,52.54610009765625,-0.7607726454734802,-1.305106282234192,0.4325087666511535
1758280566864737300,52.55618530273437,-0.7004692554473877,-1.2441493272781372,0.4412360489368438
1758280566874823400,52.566271484375,-0.63097083568573,-1.176970601081848,0.4424989223480224
1758280566884908300,52.576356201171876,-0.5540596842765808,-1.0995326042175293,0.4302283823490143
1758280566894994200,52.58644213867187,-0.4727099239826202,-1.0249881744384766,0.4099308252334595
1758280566905079300,52.59652734375,-0.4028458595275879,-0.952550172805786,0.3877689242362976
1758280566915165200,52.60661328125,-0.3353102207183838,-0.8983420729637146,0.3610361218452453
1758280566925250300,52.616698242187496,-0.2656759321689605,-0.8604502081871033,0.3507106006145477
1758280566935336400,52.62678442382812,-0.1876205205917358,-0.8236135840415955,0.3443110287189483
1758280566945421300,52.636869384765625,-0.0974308848381042,-0.7617604732513428,0.3454829454421997
1758280566955507200,52.646955078125,0.0163987427949905,-0.6716707944869995,0.3496736884117126
1758280566965592000,52.6570400390625,0.1295686215162277,-0.5579172372817993,0.34661865234375
1758280566975678200,52.667126220703125,0.22654789686203,-0.4198136925697326,0.3341987431049347
1758280566985763300,52.677211425781245,0.3021113574504852,-0.247096985578537,0.3183003962039947
1758280566995849500,52.687297363281246,0.3478088080883026,-0.0339213237166404,0.3014564216136932
1758280567005934300,52.69738232421875,0.3710465133190155,0.2059136033058166,0.2808387279510498
1758280567016020200,52.707468261718745,0.3732300400733948,0.4525987505912781,0.2556814551353454
1758280567026105000,52.71755297851562,0.3601511716842651,0.6846115589141846,0.2307291328907013
1758280567036191200,52.72763916015625,0.334005057811737,0.8975749611854553,0.2005350142717361
1758280567046276400,52.73772436523437,0.296443223953247,1.069650173187256,0.1809800714254379
1758280567056362200,52.74781030273437,0.2478075176477432,1.1906412839889526,0.169597715139389
1758280567066447400,52.75789526367187,0.2012337744235992,1.258728265762329,0.1638466417789459
1758280567076533200,52.76798120117187,0.1478304713964462,1.2633440494537354,0.1789819151163101
1758280567086618000,52.778066162109376,0.0876441299915313,1.2154492139816284,0.2149598151445388
1758280567096704300,52.78815234375,0.0259184427559375,1.1130400896072388,0.2575458884239197
1758280567106789400,52.7982373046875,-0.0326855108141899,0.9553875923156738,0.3046979904174804
1758280567116875300,52.808323242187505,-0.0993468314409256,0.756626307964325,0.3307455778121948
1758280567126960400,52.818408447265625,-0.175614446401596,0.5393728017807007,0.3562389612197876
1758280567137046300,52.82849438476562,-0.2517728507518768,0.3035618662834167,0.4025755524635315
1758280567147131100,52.838579101562495,-0.3271889984607696,0.0590540617704391,0.4681230187416076
1758280567157217300,52.848665283203125,-0.3912665247917175,-0.1541157364845276,0.5308348536491394
1758280567167302400,52.858750488281245,-0.4534455239772796,-0.3123266100883484,0.5808701515197754
1758280567177388300,52.868836181640624,-0.5227409601211548,-0.4263141751289367,0.6047105193138123
1758280567187473400,52.87892138671875,-0.609325647354126,-0.4908308386802673,0.6012313365936279
1758280567197559300,52.889007324218746,-0.7034910321235657,-0.5402292609214783,0.5654968023300171
1758280567207644200,52.89909204101562,-0.7850483059883118,-0.5933523774147034,0.5042374134063721
1758280567217730300,52.909178222656244,-0.8249736428260803,-0.648444652557373,0.4373023211956024
1758280567227815200,52.919263183593756,-0.809705376625061,-0.6977009773254395,0.3664703071117401
1758280567237901300,52.92934936523437,-0.7369981408119202,-0.7228183150291443,0.3059156239032745
1758280567247986400,52.93943432617187,-0.6030023694038391,-0.7050069570541382,0.2402414083480835
1758280567258071300,52.949519287109375,-0.4275210797786712,-0.6142216324806213,0.1679251343011856
1758280567268157200,52.959605224609376,-0.2199779748916626,-0.4471812844276428,0.0859206989407539
1758280567278242300,52.969690185546874,0.0039829527959227,-0.2147190123796463,-0.0068158907815814
1758280567288328200,52.979776123046875,0.2223164290189743,0.0527503974735736,-0.1094091385602951
1758280567298413300,52.989861328124995,0.4220556318759918,0.3232705891132355,-0.2269488126039505
1758280567308499500,52.999947509765626,0.5981451869010925,0.5931220650672913,-0.3519105017185211
1758280567318584300,53.0100322265625,0.7379624843597412,0.8502811193466187,-0.4757959544658661
1758280567328670200,53.020118164062495,0.8465204238891602,1.0915073156356812,-0.5905668139457703
1758280567338755300,53.03020336914062,0.9375206232070924,1.3050949573516846,-0.6979606747627258
1758280567348841200,53.040289306640624,1.0209845304489136,1.4818272590637207,-0.7961190938949585
1758280567358926300,53.05037426757812,1.0905481576919556,1.6146529912948608,-0.8875795006752014
1758280567369012500,53.060460449218745,1.1356244087219238,1.7041445970535278,-0.9621227383613586
1758280567379097300,53.07054541015625,1.1505495309829712,1.756524682044983,-1.0189332962036133
1758280567389183200,53.08063134765625,1.1355586051940918,1.784220576286316,-1.0550471544265747
1758280567399268000,53.090716064453126,1.093698501586914,1.795637845993042,-1.0682257413864136
1758280567409354500,53.10080249023437,1.039192795753479,1.8029359579086304,-1.0625927448272705
1758280567419439400,53.11088745117187,0.9779869914054872,1.816567063331604,-1.044189453125
1758280567429525200,53.12097314453125,0.9167300462722778,1.8441741466522217,-1.0245482921600342
1758280567439610400,53.131058349609376,0.856408417224884,1.89666748046875,-0.9967188239097596
1758280567449696300,53.14114428710937,0.7984135150909424,1.9575556516647337,-0.9751201272010804
1758280567459781400,53.1512294921875,0.7388433814048767,2.013519763946533,-0.9440258741378784
1758280567469867500,53.161315429687505,0.6751710772514343,2.0314860343933105,-0.9162232875823976
1758280567479952400,53.171400390624996,0.6043626666069031,1.9841381311416624,-0.8776793479919434
1758280567490038300,53.181486328125004,0.5209128260612488,1.883795142173767,-0.8262937664985657
1758280567500123100,53.19157104492187,0.427196204662323,1.7354917526245115,-0.7626569867134094
1758280567510209300,53.201657226562496,0.3214352428913116,1.5659207105636597,-0.688570499420166
1758280567520294400,53.21174243164062,0.2121777385473251,1.4004521369934082,-0.616178035736084
1758280567530380500,53.22182861328124,0.1074059605598449,1.2713807821273804,-0.5609545111656189
1758280567540465400,53.23191333007812,0.0168827250599861,1.1845433712005615,-0.5101557970046997
1758280567550551300,53.24199926757812,-0.0579156465828418,1.144497990608215,-0.467634379863739
1758280567560636200,53.25208422851562,-0.1250800341367721,1.1499667167663574,-0.4398232400417328
1758280567570722300,53.262170410156244,-0.1777173280715942,1.17360520362854,-0.4099113643169403
1758280567580807400,53.272255371093756,-0.2193196415901184,1.2136207818984983,-0.3865599632263183
1758280567590893300,53.28234130859375,-0.2573474943637848,1.2537342309951782,-0.3620539605617523
1758280567600978400,53.29242651367187,-0.294013112783432,1.299196720123291,-0.341747909784317
1758280567611064300,53.30251220703125,-0.3327618837356567,1.3406726121902466,-0.3261996507644653
1758280567621149200,53.31259716796875,-0.3737697601318359,1.3736824989318848,-0.3286939561367035
1758280567631235300,53.32268334960937,-0.4203138947486877,1.4078596830368042,-0.3437788188457489
1758280567641320400,53.332768554687505,-0.4781945049762726,1.456655979156494,-0.3704533278942108
1758280567651406300,53.342854248046876,-0.5528192520141602,1.5347291231155396,-0.3951879441738128
1758280567661491500,53.352939453124996,-0.6451923251152039,1.6080894470214844,-0.410607099533081
1758280567671577300,53.363025390625,-0.7428110837936401,1.6570661067962646,-0.4038574695587158
1758280567681662200,53.37311010742187,-0.8292578458786011,1.6546669006347656,-0.382476806640625
1758280567691748400,53.38319628906249,-0.8875211477279663,1.5962193012237549,-0.3477254807949066
1758280567701833500,53.39328149414062,-0.927005410194397,1.4884605407714844,-0.3024000823497772
1758280567711918300,53.40336645507812,-0.963632583618164,1.3338279724121094,-0.2476754486560821
1758280567722004500,53.41345239257812,-0.997853696346283,1.149510622024536,-0.1901658177375793
1758280567732089300,53.42353735351562,-1.0274975299835205,0.9397220015525818,-0.1362574249505996
1758280567742175200,53.43362329101562,-1.077140212059021,0.7222496271133423,-0.0939011722803115
1758280567752260400,53.443708251953126,-1.1347225904464722,0.5180038213729858,-0.0644287690520286
1758280567762346200,53.45379418945312,-1.1962151527404783,0.3360174894332886,-0.0471318028867244
1758280567772431400,53.46387939453124,-1.2409826517105105,0.2073594331741333,-0.0627519190311431
1758280567782517500,53.47396557617187,-1.2244436740875244,0.151227980852127,-0.1134883314371109
1758280567792602400,53.484050292968746,-1.133699893951416,0.1745065450668335,-0.1919945329427719
1758280567802688300,53.49413623046875,-0.9805776476860046,0.2624390721321106,-0.2519955635070801
1758280567812773400,53.504221435546874,-0.7849673628807068,0.4091896116733551,-0.2525999248027801
1758280567822859300,53.514307373046876,-0.5684228539466858,0.5403220653533936,-0.1726499795913696
1758280567832944400,53.52439233398437,-0.3719339966773987,0.6120034456253052,-0.0036928837653249
1758280567843030500,53.534478515625004,-0.2273219674825668,0.6219910979270935,0.2173105925321579
1758280567853115400,53.544563476562494,-0.167066290974617,0.5877600908279419,0.4275177717208862
1758280567863201300,53.55464916992187,-0.2014964371919632,0.551277756690979,0.5369817018508911
1758280567873286400,53.564734375,-0.3101961612701416,0.5690305233001709,0.4978231191635132
1758280567883372300,53.574820312499995,-0.4316248595714569,0.7229905128479004,0.323219895362854
1758280567893457400,53.58490551757812,-0.5000373721122742,1.032373547554016,0.0613249875605106
1758280567903543600,53.59499145507812,-0.4623741209506988,1.414122223854065,-0.22329743206501
1758280567913628400,53.60507641601562,-0.3140298724174499,1.7453426122665403,-0.4833440482616424
1758280567923714300,53.61516235351562,-0.0946764722466468,1.9613902568817136,-0.6730216145515442
1758280567933799200,53.62524707031249,0.115830659866333,2.072499513626098,-0.747692346572876
1758280567943885300,53.63533325195312,0.2483506202697754,2.1371023654937744,-0.7168598175048828
1758280567953970400,53.64541845703125,0.2669716775417328,2.197251558303833,-0.6035130023956299
1758280567964056600,53.65550463867187,0.1728103011846542,2.2938835620880127,-0.4536044895648956
1758280567974141400,53.66558935546875,-0.0222247634083032,2.422569990158081,-0.3271278738975525
1758280567984227300,53.675675292968755,-0.2808171808719635,2.524470090866089,-0.278784841299057
1758280567994312200,53.685760253906246,-0.5419968962669373,2.574238538742065,-0.3106159567832947
1758280568004398300,53.695846435546876,-0.7578932046890259,2.545418262481689,-0.4348534941673279
1758280568014483500,53.705931396484374,-0.9014586210250854,2.429194450378418,-0.6157798767089844
1758280568024569300,53.716017333984375,-0.960501194000244,2.2090964317321777,-0.8228811621665955
1758280568034654500,53.726102539062495,-0.9386942386627196,1.9020949602127075,-0.9948955774307252
1758280568044739600,53.7361875,-0.8586255311965942,1.5577205419540403,-1.0994036197662354
1758280568054825200,53.74627319335937,-0.7351734638214111,1.1897640228271484,-1.1170358657836914
1758280568064910300,53.756358398437506,-0.6036748290061951,0.8119669556617737,-1.078640341758728
1758280568074996500,53.76644458007812,-0.4574867486953735,0.4330904185771942,-0.9841289520263672
1758280568085081300,53.776529296875,-0.3093944787979126,0.0666117742657661,-0.8540497422218323
1758280568095167500,53.78661547851562,-0.1704424768686294,-0.2803069949150085,-0.7031650543212891
1758280568105252400,53.796700439453126,-0.0579276606440544,-0.6122801899909973,-0.5311936140060425
1758280568115338200,53.8067861328125,0.0205130167305469,-0.9126718640327454,-0.3529457747936249
1758280568125423400,53.816871337890625,0.064325213432312,-1.1864736080169678,-0.1825383454561233
1758280568135509500,53.82695751953125,0.0925641953945159,-1.4262936115264893,-0.0241721365600824
1758280568145594400,53.837042480468746,0.1187009885907173,-1.612805962562561,0.1095899268984794
1758280568155680500,53.84712841796875,0.1513373553752899,-1.746447205543518,0.2284556031227111
1758280568165765400,53.857213378906245,0.1794563382863998,-1.8133623600006104,0.3226396441459656
1758280568175851300,53.867299316406246,0.2013988196849823,-1.8000906705856323,0.3879913985729217
1758280568185936400,53.87738427734375,0.2045269757509231,-1.7005267143249512,0.4267017841339111
1758280568196022300,53.887470214843745,0.1877418160438537,-1.523215413093567,0.4381271004676819
1758280568206107400,53.89755541992187,0.1490988135337829,-1.3260560035705566,0.4264203906059265
1758280568216193500,53.907641601562496,0.0868643447756767,-1.1040178537368774,0.3702609241008758
1758280568226278400,53.91772631835937,0.0388938896358013,-0.869596540927887,0.2773533463478088
1758280568236364300,53.92781225585937,0.0245957057923078,-0.6556792855262756,0.1734468340873718
1758280568246449400,53.937897460937506,0.0420860163867473,-0.5042282342910767,0.0867990255355835
1758280568256535300,53.9479833984375,0.0887073725461959,-0.4369919896125793,0.019044354557991
1758280568266620400,53.958068359375,0.157124787569046,-0.4136797487735748,-0.0487759709358215
1758280568276706600,53.96815454101562,0.2378479689359665,-0.3924621939659118,-0.1267111897468567
1758280568286791400,53.97823950195312,0.3129576444625854,-0.3102685213088989,-0.2111112922430038
1758280568296877300,53.9883251953125,0.364419013261795,-0.1533817797899246,-0.30937060713768
1758280568306962400,53.998410400390625,0.3845698237419128,0.0821649655699729,-0.412191241979599
1758280568317048300,54.00849633789062,0.3644174039363861,0.3862284719944,-0.5271552801132202
1758280568327133400,54.01858154296875,0.3044347465038299,0.7293043732643127,-0.648425281047821
1758280568337219600,54.028667480468755,0.2236866205930709,1.0694836378097534,-0.756243884563446
1758280568347304400,54.038752441406245,0.161056786775589,1.378029227256775,-0.8467775583267212
1758280568357390300,54.04883837890625,0.1192249506711959,1.6370645761489868,-0.9034051299095154
1758280568367475200,54.05892309570312,0.099581740796566,1.8356951475143437,-0.9312697649002076
1758280568377560300,54.06900830078125,0.0847494676709175,1.9871231317520144,-0.9403684139251708
1758280568387646500,54.07909448242187,0.0575623251497745,2.101679563522339,-0.9401503205299376
1758280568397731300,54.08917944335937,0.0187282841652631,2.171729326248169,-0.9293936491012572
1758280568407817000,54.09926489257812,-0.0227339379489421,2.182675838470459,-0.9156189560890198
1758280568417902000,54.10935009765625,-0.0530770719051361,2.112966299057007,-0.8920459151268005
1758280568427988000,54.11943603515625,-0.0604745373129844,1.965383529663086,-0.8691893815994263
1758280568438072800,54.12952075195312,-0.0619827136397361,1.762757420539856,-0.8442226648330688
1758280568448159000,54.139606933593754,-0.0698813796043396,1.539740800857544,-0.8104226589202881
1758280568458243800,54.149691894531244,-0.0879698395729065,1.3139638900756836,-0.7726784348487854
1758280568468330000,54.159778076171875,-0.123870849609375,1.09783935546875,-0.7386054396629333
1758280568478415000,54.16986303710937,-0.1719216108322143,0.907501220703125,-0.7206125259399414
1758280568488501000,54.179948974609374,-0.226654902100563,0.7450446486473083,-0.7170076966285706
1758280568498585900,54.19003393554687,-0.2736551165580749,0.6201708316802979,-0.7247533202171326
1758280568508672000,54.200120117187495,-0.3240229487419128,0.5191147923469543,-0.7282617688179016
1758280568518756900,54.21020483398437,-0.3544749021530151,0.441306322813034,-0.7261964082717896
1758280568528843000,54.220291015625,-0.3762776851654053,0.3955548107624054,-0.714054524898529
1758280568538928000,54.23037622070312,-0.3835190534591675,0.3869722485542297,-0.6876629590988159
1758280568549013800,54.24046166992187,-0.3787506520748138,0.4211395382881164,-0.6579341292381287
1758280568559099000,54.250546875,-0.370694100856781,0.4968646466732025,-0.621947705745697
1758280568569185000,54.26063305664062,-0.3649563193321228,0.621213972568512,-0.6046640872955322
1758280568579270000,54.2707177734375,-0.3634519577026367,0.7866709232330322,-0.5936557650566101
1758280568589356000,54.28080395507812,-0.3608244955539703,0.9730874300003052,-0.6064258813858032
1758280568599441200,54.29088916015625,-0.3396549522876739,1.1542174816131592,-0.6284741163253784
1758280568609526800,54.300974853515626,-0.2969341278076172,1.3159337043762207,-0.6616994142532349
1758280568619612000,54.311059814453124,-0.2179475724697113,1.436241865158081,-0.6944797039031982
1758280568629698000,54.321145996093755,-0.1108679920434951,1.5064398050308228,-0.7235510349273682
1758280568639783000,54.331230957031245,0.0311339478939771,1.5059980154037476,-0.7384721040725708
1758280568649869000,54.341317138671876,0.198880061507225,1.4261276721954346,-0.7347273826599121
1758280568659954200,54.35140209960937,0.3681019842624664,1.2446718215942385,-0.7127384543418884
1758280568670039000,54.36148706054687,0.5142687559127808,0.9757902026176452,-0.6766166687011719
1758280568680125000,54.37157299804687,0.6172924637794495,0.6360754370689392,-0.6341234445571899
1758280568690209800,54.381657714843755,0.6716313362121582,0.275216281414032,-0.5902166962623596
1758280568700296000,54.39174389648437,0.6878384947776794,-0.0612442381680011,-0.5511622428894043
1758280568710381000,54.4018291015625,0.6927430033683777,-0.3398942351341247,-0.510535717010498
1758280568720467000,54.4119150390625,0.7076622843742371,-0.572084903717041,-0.4543534219264984
1758280568730552000,54.42199999999999,0.7568000555038452,-0.7506639957427979,-0.3611949980258941
1758280568740638000,54.4320859375,0.8503414988517761,-0.8470888733863831,-0.2496300041675567
1758280568750722800,54.442170898437496,0.955021321773529,-0.8321490287780762,-0.1449805647134781
1758280568760809000,54.45225708007812,1.028607964515686,-0.7208631038665771,-0.0756647959351539
1758280568770894000,54.462342041015624,1.045202374458313,-0.5330649614334106,-0.049404963850975
1758280568780980000,54.472427978515626,1.028099536895752,-0.2843685448169708,-0.0524086207151412
1758280568791065000,54.482513183593746,1.008675456047058,-0.037595234811306,-0.0809454619884491
1758280568801151000,54.492598876953124,0.9995126128196716,0.1470739394426345,-0.1229242235422134
1758280568811235800,54.50268383789062,1.001507043838501,0.2360147386789322,-0.1657132357358932
1758280568821322000,54.512770019531246,1.0109944343566897,0.2444264739751815,-0.1924307495355606
1758280568831407000,54.52285498046875,1.0308831930160522,0.2005032151937484,-0.1962206959724426
1758280568841493000,54.532940917968745,1.05257248878479,0.1328897625207901,-0.1741767823696136
1758280568851578000,54.54302612304687,1.059295654296875,0.0650127083063125,-0.1485513150691986
1758280568861664000,54.55311206054687,1.0457290410995483,0.0017974451184272,-0.132241666316986
1758280568871748900,54.563196777343755,1.011070728302002,-0.0349943935871124,-0.1262689977884292
1758280568881835000,54.57328295898437,0.9546270370483398,-0.0297490879893302,-0.1392239034175872
1758280568891920000,54.58336791992187,0.8899984955787659,0.016047429293394,-0.1669546067714691
1758280568902006000,54.5934541015625,0.811617910861969,0.0924063622951507,-0.2067861407995224
1758280568912091100,54.6035390625,0.7258361577987671,0.1932586878538131,-0.2621961534023285
1758280568922177000,54.613625,0.6250619888305664,0.3020516037940979,-0.3240730166435241
1758280568932262000,54.6237099609375,0.5166942477226257,0.4148196876049042,-0.3995619118213653
1758280568942347000,54.633794921875,0.4172272086143493,0.5356769561767578,-0.4814361035823822
1758280568952433000,54.643880859374995,0.3327959477901459,0.6802203059196472,-0.5658566951751709
1758280568962518000,54.65396606445312,0.2937573790550232,0.8586258292198181,-0.6521573662757874
1758280568972604200,54.664052246093746,0.2928103506565094,1.0813840627670288,-0.7403364777565002
1758280568982689000,54.67413696289062,0.3260711133480072,1.3320815563201904,-0.8108640909194946
1758280568992775000,54.68422290039062,0.3875605762004852,1.5855308771133425,-0.8604438900947571
1758280569002860000,54.69430810546875,0.4569646418094635,1.8062515258789065,-0.868615448474884
1758280569012946000,54.70439379882812,0.5306231379508972,1.968924045562744,-0.8490015268325806
1758280569023031000,54.71447900390625,0.5759658217430115,2.074903011322021,-0.7957826852798462
1758280569033117000,54.72456494140625,0.5655176639556885,2.133801221847534,-0.7254608869552612
1758280569043200000,54.73464794921875,0.511611819267273,2.146559953689575,-0.6356191635131836
1758280569053286100,54.74473413085937,0.4224264621734619,2.1175005435943604,-0.5305873155593872
1758280569063371000,54.754819091796875,0.3208357691764831,2.049995183944702,-0.4337115883827209
1758280569073457000,54.76490478515625,0.2211014628410339,1.971505045890808,-0.3426695466041565
1758280569083541800,54.774989746093745,0.1215680614113807,1.902320981025696,-0.2706208825111389
1758280569093628000,54.785075927734376,0.0348715148866176,1.8621621131896973,-0.220745176076889
1758280569103713000,54.795161132812495,-0.0300992019474506,1.8540695905685425,-0.1865939795970916
1758280569113799000,54.805246826171874,-0.0686234235763549,1.8839532136917116,-0.1706400513648986
1758280569123884000,54.815332031249994,-0.0783227756619453,1.9473406076431277,-0.1772106140851974
1758280569133970000,54.825417968749996,-0.0760692134499549,2.026622772216797,-0.1897304058074951
1758280569144054800,54.83550268554687,-0.0660649910569191,2.1134793758392334,-0.2164833396673202
1758280569154141000,54.845588867187494,-0.0623472183942794,2.1988513469696045,-0.246081456542015
1758280569164226000,54.85567407226562,-0.0732269659638404,2.277206897735596,-0.287213534116745
1758280569174311000,54.86575878906249,-0.1020181328058242,2.34476375579834,-0.3259036839008331
1758280569184397000,54.87584497070312,-0.1428712308406829,2.393499851226806,-0.366488516330719
1758280569194482000,54.885929931640625,-0.1944436132907867,2.406548500061035,-0.3982416689395904
1758280569204567800,54.896015869140626,-0.2436379939317703,2.376739263534546,-0.4189422726631164
1758280569214653000,54.906100830078124,-0.2821582555770874,2.3107495307922363,-0.4391023814678192
1758280569224739000,54.916187011718755,-0.3053344190120697,2.218445062637329,-0.4409391283988952
1758280569234824000,54.926271972656245,-0.306180477142334,2.1074063777923584,-0.4285714030265808
1758280569244910000,54.936358154296876,-0.2897029221057892,1.969448804855347,-0.4019364416599273
1758280569254995000,54.94644287109375,-0.2566810548305511,1.8129997253417969,-0.3667105436325073
1758280569265080800,54.956528808593745,-0.2242479771375656,1.6419686079025269,-0.3207093477249145
1758280569275166000,54.96661401367187,-0.1942149698734283,1.456429362297058,-0.2673553228378296
1758280569285251800,54.976699951171874,-0.1729496866464615,1.266810417175293,-0.2102714031934738
1758280569295337000,54.98678491210937,-0.1611359119415283,1.068734645843506,-0.1633036285638809
1758280569305423000,54.996871093749995,-0.1563967168331146,0.8738069534301758,-0.1187169104814529
1758280569315508000,55.0069560546875,-0.1638152152299881,0.6883302927017212,-0.0814278647303581
1758280569325593900,55.01704174804687,-0.1673582941293716,0.5229964256286621,-0.0516614131629467
1758280569335679000,55.027126953125,-0.1704507619142532,0.3889209330081939,-0.0307185817509889
1758280569345764900,55.037212890625,-0.1654066145420074,0.3008836209774017,-0.0151364058256149
1758280569355850000,55.04729809570312,-0.1483053863048553,0.2452515214681625,-0.0062401155009865
1758280569365936000,55.05738403320312,-0.1288754642009735,0.210688441991806,-0.0150272604078054
1758280569376021000,55.067468994140626,-0.1131580173969268,0.1858874857425689,-0.0246854815632104
1758280569386107000,55.07755493164062,-0.0855805501341819,0.170760303735733,-0.0423021540045738
1758280569396192000,55.087639892578125,-0.0619210265576839,0.1622946560382843,-0.0554376617074012
1758280569406276900,55.09772485351562,-0.0460681691765785,0.1535708010196685,-0.0635972693562507
1758280569416363300,55.107811279296875,-0.0326351858675479,0.1350338757038116,-0.0634073838591575
1758280569426451200,55.11789916992187,-0.0129931876435875,0.0832472443580627,-0.0281817018985748
1758280569436536300,55.12798437499999,0.005203393753618,-0.0315768159925937,0.0382207594811916
1758280569446621200,55.13806909179687,0.025540379807353,-0.2299229204654693,0.1382873207330703
1758280569456707300,55.148155273437496,0.038946732878685,-0.525348961353302,0.2524429261684418
1758280569466792200,55.158240234375,0.0360729470849037,-0.8884547352790833,0.3628050982952118
1758280569476878000,55.168326171874995,0.0108504155650734,-1.2878514528274536,0.4521312415599823
1758280569486963200,55.1784111328125,-0.0449324175715446,-1.6376677751541138,0.5036389827728271
1758280569497049300,55.18849731445312,-0.1388711631298065,-1.9214696884155276,0.4999536275863647
1758280569507134200,55.19858227539062,-0.2670693695545196,-2.065426588058472,0.4515597820281982
1758280569517220400,55.20866845703125,-0.3871774077415466,-2.0754072666168213,0.3819583356380462
1758280569527305200,55.21875317382812,-0.4750792980194092,-1.974003911018372,0.2959123253822326
1758280569537391000,55.22883911132812,-0.5013121962547302,-1.7382441759109497,0.2101558744907379
1758280569547476200,55.23892431640625,-0.4847228527069092,-1.3977657556533811,0.1406876742839813
1758280569557562000,55.24901000976562,-0.4625997245311737,-0.9711880087852478,0.088646575808525
1758280569567647200,55.259095214843754,-0.4547530114650726,-0.4834939539432525,0.0443170331418514
1758280569577733400,55.26918139648437,-0.4655329585075378,0.0443733260035514,-0.0293422751128673
1758280569587818200,55.279266357421875,-0.4884772896766662,0.569152295589447,-0.1366178691387176
1758280569597904100,55.28935205078124,-0.514051616191864,1.0290498733520508,-0.2742596268653869
1758280569607989200,55.299437255859374,-0.5537370443344116,1.3714128732681274,-0.4068399965763092
1758280569618075100,55.309523193359375,-0.6168073415756226,1.6146687269210815,-0.5221236944198608
1758280569628160300,55.31960815429687,-0.7059606313705444,1.7334736585617063,-0.6018638014793396
1758280569638246400,55.329694335937496,-0.8017860054969788,1.6982940435409546,-0.6466509699821472
1758280569648331300,55.339779296875,-0.8722628951072693,1.6039119958877563,-0.663229763507843
1758280569658417200,55.349865234374995,-0.8967821002006531,1.4690396785736084,-0.6525917649269104
1758280569668502300,55.3599501953125,-0.8657999038696289,1.3277498483657837,-0.6457787156105042
1758280569678587100,55.37003515625,-0.7956615686416626,1.1817545890808103,-0.641531229019165
1758280569688673300,55.38012133789062,-0.6981969475746155,1.046724557876587,-0.6459892392158508
1758280569698758100,55.390206054687496,-0.5976660847663879,0.9131011366844176,-0.6607702970504761
1758280569708844300,55.40029223632812,-0.5065938234329224,0.7785214185714722,-0.6833406686782837
1758280569718929400,55.41037744140625,-0.4199012815952301,0.6224383115768433,-0.7132679224014282
1758280569729015000,55.420463134765626,-0.3410496711730957,0.4466127455234527,-0.7387686967849731
1758280569739100200,55.430548095703124,-0.2497511953115463,0.264811247587204,-0.746260404586792
1758280569749186300,55.440634277343754,-0.1402925848960876,0.1068908423185348,-0.7234762907028198
1758280569759271200,55.450719238281245,-0.0136169344186782,-0.0147658204659819,-0.6837030649185181
1758280569769357300,55.460805419921876,0.1248585060238838,-0.0667194351553917,-0.6259012222290039
1758280569779442400,55.47089038085937,0.2610672116279602,-0.0394752919673919,-0.5651611685752869
1758280569789528000,55.480976074218745,0.3909148573875427,0.0649050176143646,-0.5113818645477295
1758280569799613200,55.49106127929687,0.5013087391853333,0.2361737042665481,-0.4671797752380371
1758280569809699300,55.50114721679687,0.6022067666053772,0.4607419371604919,-0.4354104995727539
1758280569819784200,55.51123217773437,0.6885973215103149,0.7236121296882629,-0.4104138016700744
1758280569829870300,55.521318359374995,0.746995747089386,1.0024268627166748,-0.3936795592308044
1758280569839955500,55.53140356445312,0.7739850282669067,1.264432668685913,-0.3707049787044525
1758280569850041000,55.54148901367187,0.7500600218772888,1.4954328536987305,-0.3523476123809814
1758280569860126200,55.55157421875,0.6756624579429626,1.6874518394470217,-0.3454750478267669
1758280569870212400,55.56166040039062,0.5550992488861084,1.8450874090194704,-0.3598642349243164
1758280569880297200,55.5717451171875,0.4002766609191894,1.9825743436813357,-0.3859858512878418
1758280569890382300,55.581830322265624,0.241299957036972,2.105688095092773,-0.4266396462917328
1758280569900468200,55.591916259765625,0.1000040769577026,2.2176337242126465,-0.4637500047683716
1758280569910553300,55.60200122070312,-0.00683862157166,2.297118663787842,-0.498732715845108
1758280569920639200,55.612087158203124,-0.0956220179796218,2.3232316970825195,-0.5235546827316284
1758280569930724000,55.62217211914062,-0.1822679936885833,2.286048889160156,-0.535938024520874
1758280569940810200,55.632258300781245,-0.2710833549499511,2.186980724334717,-0.536008358001709
1758280569950895400,55.64234326171875,-0.3595411479473114,2.0553555488586426,-0.5390135049819946
1758280569960981200,55.652429199218744,-0.4488891363143921,1.9235098361968996,-0.5510209202766418
1758280569971066000,55.66251416015625,-0.519182562828064,1.822312951087952,-0.5743681788444519
1758280569981152300,55.67260034179687,-0.5636008977890015,1.7510920763015747,-0.595422625541687
1758280569991237000,55.682685058593755,-0.5703542232513428,1.6962724924087524,-0.6085773706436157
1758280570001323300,55.69277124023437,-0.5366218090057373,1.6314789056777954,-0.6165450215339661
1758280570011408400,55.7028564453125,-0.4776030480861664,1.536067247390747,-0.6095759272575378
1758280570021494300,55.7129423828125,-0.3996432721614837,1.4118260145187378,-0.5928866863250732
1758280570031579100,55.723027099609375,-0.3250707387924194,1.2710390090942385,-0.5671331882476807
1758280570041665300,55.73311328125,-0.2671632170677185,1.135684609413147,-0.5362253189086914
1758280570051750100,55.743198242187496,-0.2221445739269256,1.0141632556915283,-0.4978340864181518
1758280570061836300,55.753284179687505,-0.1902132630348205,0.9355027675628662,-0.4666172862052917
1758280570071921200,55.763369140624995,-0.1728309988975525,0.8950197100639343,-0.4306504726409912
1758280570082007300,55.773455322265626,-0.1618864685297012,0.8932309150695801,-0.4100024402141571
1758280570092092200,55.7835400390625,-0.1511264443397522,0.9205734729766846,-0.3960297405719757
1758280570102178000,55.793625976562495,-0.1371355205774307,0.9632858037948608,-0.3981309831142425
1758280570112263200,55.80371118164062,-0.1219432279467582,1.0111446380615234,-0.430581659078598
1758280570122348300,55.81379638671875,-0.100244328379631,1.097568392753601,-0.5035722851753235
1758280570132434200,55.82388208007812,-0.0332954116165638,1.258774995803833,-0.600774347782135
1758280570142519300,55.83396728515625,0.1267456412315368,1.4932407140731812,-0.690894365310669
1758280570152605200,55.84405322265625,0.3368201553821563,1.7303519248962402,-0.6873475909233093
1758280570162690000,55.854137939453125,0.5320714712142944,1.8356138467788696,-0.5695184469223022
1758280570172776200,55.864224121093756,0.6982778310775757,1.7410107851028442,-0.3778098523616791
1758280570182861300,55.874309326171876,0.8147426247596741,1.4581223726272583,-0.1582865267992019
1758280570192947200,55.88439526367187,0.8680885434150696,1.120254397392273,0.0516049191355705
1758280570203032300,55.894480224609374,0.8505260348320007,0.8752733469009399,0.1927063912153244
1758280570213118200,55.904566162109376,0.7837296724319458,0.8547313213348389,0.2685438990592956
1758280570223203000,55.91465112304687,0.6820251941680908,1.06720232963562,0.2906023263931274
1758280570233289200,55.9247373046875,0.5796974301338196,1.4098036289215088,0.2963716089725494
1758280570243374000,55.93482202148437,0.4807117581367492,1.7065471410751345,0.3090812861919403
1758280570253460200,55.944908203124996,0.3968797922134399,1.8142799139022827,0.3363470435142517
1758280570263545300,55.95499340820312,0.3433769047260284,1.6560999155044556,0.3842546641826629
1758280570273631000,55.96507885742187,0.3126275241374969,1.2879852056503296,0.4344265758991241
1758280570283716000,55.9751640625,0.2969298064708709,0.8385533094406128,0.4605660438537597
1758280570293802200,55.98525024414062,0.2912808358669281,0.4020948708057403,0.4603692889213562
1758280570303887000,55.99533520507812,0.2658828198909759,0.0171871297061443,0.4329906404018402
1758280570313972200,56.005420166015625,0.23147052526474,-0.312165766954422,0.4129588603973388
1758280570324058400,56.01550634765625,0.1914344280958175,-0.5790550112724304,0.4069491624832153
1758280570334143200,56.025591308593754,0.1625291854143142,-0.7812977433204651,0.4159236252307892
1758280570344229000,56.035677001953125,0.1388717889785766,-0.912804126739502,0.4270244836807251
1758280570354314200,56.045762207031245,0.1253234297037124,-0.9653740525245668,0.4371083974838257
1758280570364400000,56.05584814453124,0.1195656880736351,-0.951448380947113,0.4368650019168854
1758280570374485200,56.065933349609374,0.1264851689338684,-0.8983684778213501,0.4309238791465759
1758280570384571400,56.076019287109375,0.1352544128894806,-0.8358734250068665,0.4237948656082153
1758280570394656300,56.08610424804687,0.1534747928380966,-0.7826288938522339,0.4103241860866546
1758280570404742100,56.096190185546874,0.1656427681446075,-0.7466687560081482,0.398493617773056
1758280570414827000,56.106274902343756,0.163024365901947,-0.7230151295661926,0.3797442018985748
1758280570424913200,56.11636108398437,0.1495812535285949,-0.6938369870185852,0.3432767391204834
1758280570434998300,56.1264462890625,0.1263649761676788,-0.6673237085342407,0.292628526687622
1758280570445084200,56.1365322265625,0.1024457886815071,-0.6228086948394775,0.2221575677394867
1758280570455169300,56.1466171875,0.0995161607861518,-0.547443687915802,0.1485331356525421
1758280570465255200,56.156703125,0.1196587160229682,-0.4726214110851288,0.0669517293572425
1758280570475340000,56.166788085937505,0.1821841746568679,-0.3989022374153137,-0.0180268567055463
1758280570485426200,56.17687426757812,0.2877867817878723,-0.3248341381549835,-0.1071830913424491
1758280570495511300,56.186959228515626,0.4291778206825256,-0.2505325675010681,-0.188137337565422
1758280570505597200,56.19704516601562,0.6008843779563904,-0.1964131295680999,-0.2483258545398712
1758280570515682300,56.207130371093754,0.7757405042648315,-0.1686426699161529,-0.2873255312442779
1758280570525767400,56.217215332031245,0.9255305528640748,-0.1464859694242477,-0.3049207627773285
1758280570535853000,56.227301025390624,1.032715082168579,-0.1104287207126617,-0.3011400699615478
1758280570545938200,56.23738623046875,1.0802688598632812,-0.0819736421108245,-0.2799634039402008
1758280570556024300,56.247472412109374,1.0723212957382202,-0.0813996121287345,-0.2589557766914367
1758280570566109200,56.25755712890625,1.017872333526611,-0.1333147436380386,-0.2319047152996063
1758280570576195300,56.26764331054687,0.9436621069908142,-0.2289318591356277,-0.2094191163778305
1758280570586280200,56.27772827148437,0.8545279502868652,-0.3678881525993347,-0.1904385089874267
1758280570596366000,56.28781396484375,0.768254816532135,-0.5436570048332214,-0.1725899875164032
1758280570606451200,56.29789916992187,0.6861708760261536,-0.7424566745758057,-0.1495496481657028
1758280570616537000,56.30798510742187,0.6173407435417175,-0.9517568945884703,-0.1213965117931366
1758280570626622200,56.3180703125,0.5540925860404968,-1.1522221565246582,-0.0862425193190574
1758280570636708400,56.32815625,0.503940224647522,-1.3226383924484253,-0.0508655048906803
1758280570646793200,56.3382412109375,0.4661238491535187,-1.4261202812194824,-0.0114451274275779
1758280570656879000,56.348327148437505,0.4436055421829223,-1.4509963989257812,0.028859669342637
1758280570666964200,56.358412109374996,0.4383894801139831,-1.4023064374923706,0.073888398706913
1758280570677050000,56.368498046875004,0.4388937056064605,-1.2921700477600098,0.1099694296717643
1758280570687135200,56.378583251953124,0.437325656414032,-1.1368076801300049,0.1413089781999588
1758280570697221400,56.388669433593755,0.4198701381683349,-0.9511751532554626,0.1634683459997177
1758280570707306200,56.39875415039062,0.3829038441181183,-0.7486356496810913,0.1735835671424865
1758280570717392100,56.408840087890624,0.3329918980598449,-0.5345768332481384,0.1714297235012054
1758280570727477200,56.41892529296875,0.2719562351703644,-0.317337155342102,0.1593376398086547
1758280570737562000,56.42901000976562,0.2047506123781204,-0.0906966105103492,0.142132431268692
1758280570747648300,56.43909619140625,0.1546118110418319,0.1452807635068893,0.1085883229970932
1758280570757733000,56.449181152343755,0.1300396621227264,0.3813894093036651,0.0709311515092849
1758280570767819300,56.45926733398437,0.1243612617254257,0.6048912405967712,0.0239117071032524
1758280570777904400,56.469352294921876,0.1251186728477478,0.8044272065162659,-0.0282156132161617
1758280570787990300,56.47943823242187,0.1289730668067932,0.9748167991638184,-0.0914768725633621
1758280570798075100,56.489523193359375,0.1197880208492279,1.121565580368042,-0.1659529507160186
1758280570808161300,56.499609375,0.0977913737297058,1.2398160696029663,-0.2342997789382934
1758280570818246100,56.509694091796874,0.0763687938451767,1.3408803939819336,-0.2918746471405029
1758280570828332300,56.519780273437505,0.0685777142643928,1.4372175931930542,-0.3403497636318207
1758280570838417400,56.529865478515624,0.0851169526576995,1.5360654592514038,-0.3744075000286102
1758280570848503000,56.539950927734374,0.1202131509780883,1.651402473449707,-0.3742245435714721
1758280570858588200,56.5500361328125,0.181455448269844,1.7704702615737915,-0.3635971248149872
1758280570868674300,56.560122314453125,0.2655498087406158,1.882001876831055,-0.3360781371593475
1758280570878759200,56.57020727539062,0.3512408435344696,1.9709590673446653,-0.3014742732048034
1758280570888845300,56.58029321289062,0.4317767024040222,2.0253193378448486,-0.260926604270935
1758280570898930400,56.59037841796875,0.4926381409168243,2.038263320922852,-0.2226810753345489
1758280570909016000,56.60046411132812,0.5394932627677917,2.0178139209747314,-0.1836825311183929
1758280570919101200,56.61054907226562,0.5580997467041016,1.9711068868637085,-0.1556858867406845
1758280570929186000,56.620634033203125,0.5581921935081482,1.917417049407959,-0.1305709481239318
1758280570939272200,56.630720214843755,0.5301080346107483,1.868698000907898,-0.1193576157093048
1758280570949357300,56.640805419921875,0.479550838470459,1.81528913974762,-0.1027011424303054
1758280570959443500,56.65089135742187,0.4237435162067413,1.7605043649673462,-0.0881258174777031
1758280570969528300,56.660976318359374,0.3624340891838074,1.705367088317871,-0.0728073120117187
1758280570979614200,56.671062255859376,0.3009916543960571,1.6570236682891846,-0.064114511013031
1758280570989699000,56.68114697265625,0.2385866045951843,1.6102896928787231,-0.0498197264969348
1758280570999785200,56.691233154296874,0.1652997136116027,1.5804961919784546,-0.0269856229424476
1758280571009870300,56.701318359374994,0.0851111337542533,1.5573890209197998,0.0034284768626093
1758280571019956200,56.711404296874996,-0.0019144682446494,1.5409934520721436,0.0443934798240661
1758280571030041300,56.7214892578125,-0.0921186581254005,1.521824836730957,0.0936542302370071
1758280571040127200,56.731575195312494,-0.1770541220903396,1.4892441034317017,0.1419235914945602
1758280571050212000,56.74166015625,-0.2584619224071502,1.4244650602340698,0.1973660737276077
1758280571060298200,56.75174633789062,-0.3468241989612579,1.3199117183685305,0.2464944273233413
1758280571070383400,56.76183129882812,-0.4407206177711487,1.1782195568084717,0.2913891971111297
1758280571080469200,56.77191723632812,-0.5230668187141418,0.9888226985931396,0.33604896068573
1758280571090554000,56.782002197265626,-0.5914354920387268,0.7647752165794373,0.3767388761043548
1758280571100640300,56.79208813476562,-0.6494013071060181,0.5090435147285461,0.4200242161750793
1758280571110725000,56.802173095703125,-0.67855304479599,0.2559337913990021,0.4639104604721069
1758280571120810200,56.812258300781245,-0.6949453949928284,0.0126265995204448,0.508195161819458
1758280571130896400,56.822344482421876,-0.7026544213294983,-0.2027139365673065,0.5523064732551575
1758280571140981200,56.83242919921875,-0.7061830759048462,-0.4060306549072265,0.5995902419090271
1758280571151067100,56.842515136718745,-0.7113434672355652,-0.5888705253601074,0.6444852948188782
1758280571161152000,56.85260009765625,-0.7210224270820618,-0.7549659609794617,0.6829632520675659
1758280571171238100,56.86268603515625,-0.7444283962249756,-0.8938463926315308,0.7099405527114868
1758280571181323300,56.87277124023437,-0.7716618776321411,-0.9908542037010192,0.729348361492157
1758280571191409200,56.88285717773437,-0.8071703314781189,-1.0416228771209717,0.7472985982894897
1758280571201494300,56.8929423828125,-0.8361219763755798,-1.0470097064971924,0.7615998387336731
1758280571211580200,56.90302807617187,-0.8589109182357788,-1.0109238624572754,0.7727464437484741
1758280571221665000,56.913113037109376,-0.8717713356018066,-0.943873167037964,0.7775947451591492
1758280571231751200,56.92319921875,-0.8857017755508423,-0.8641293048858643,0.7829540967941284
1758280571241836300,56.9332841796875,-0.8958168029785156,-0.7701501250267029,0.7775920033454895
1758280571251922200,56.943370117187506,-0.8998653292655945,-0.67316073179245,0.7737040519714355
1758280571262007300,56.953455322265626,-0.897173285484314,-0.5742017030715942,0.7561414837837219
1758280571272093200,56.96354125976562,-0.8906086087226868,-0.4774328470230102,0.7374998927116394
1758280571282178000,56.973625976562495,-0.8803396821022034,-0.382694661617279,0.7075437903404236
1758280571292264200,56.983712158203126,-0.8705008625984192,-0.2861324548721313,0.6677982807159424
1758280571302349300,56.993797363281246,-0.849693238735199,-0.1815989315509796,0.6259657144546509
1758280571312434200,57.00388208007812,-0.8245586156845093,-0.0597840845584869,0.5740820169448853
1758280571322520300,57.013968261718745,-0.7961353659629822,0.0777171850204467,0.529583215713501
1758280571332605200,57.02405322265625,-0.7638509273529053,0.237783282995224,0.4794856607913971
1758280571342691000,57.03413916015625,-0.7263028621673584,0.4107676744461059,0.4344529211521148
1758280571352776200,57.044224121093755,-0.6886367201805115,0.5758594870567322,0.3948282599449157
1758280571362862000,57.05431005859375,-0.6523655652999878,0.7155526280403137,0.364210844039917
1758280571372947200,57.06439526367187,-0.6205386519432068,0.8181290626525879,0.3487802147865295
1758280571383033300,57.0744814453125,-0.6035823225975037,0.8905344009399414,0.3484566211700439
1758280571393118200,57.084566162109375,-0.595935583114624,0.9481294751167296,0.3589989840984344
1758280571403204000,57.09465209960937,-0.6088548898696899,0.988810658454895,0.3892446756362915
1758280571413289200,57.1047373046875,-0.6405649185180664,1.022109031677246,0.4341115057468414
1758280571423375400,57.114823242187505,-0.6966022849082947,1.043936252593994,0.488222062587738
1758280571433460200,57.124908203124996,-0.7829926013946533,1.063093185424805,0.5391156673431396
1758280571443546400,57.134994384765626,-0.894590437412262,1.0686334371566772,0.5904791355133057
1758280571453631500,57.145079589843746,-1.020655393600464,1.0468567609786987,0.6346737742424011
1758280571463717000,57.155165039062496,-1.139486312866211,0.9899070262908936,0.6690282821655273
1758280571473802200,57.16525024414062,-1.2396658658981323,0.9039084911346436,0.6821797490119934
1758280571483888400,57.17533642578124,-1.3149341344833374,0.8070502877235413,0.6656588912010193
1758280571493973200,57.18542114257812,-1.3689616918563845,0.731603741645813,0.6367548108100891
1758280571504058400,57.19550634765625,-1.396291732788086,0.6934083700180054,0.6062811613082886
1758280571514144500,57.20559252929687,-1.3912721872329712,0.6889044046401978,0.5773912072181702
1758280571524229400,57.21567749023437,-1.3569966554641724,0.705523669719696,0.5410367846488953
1758280571534315300,57.225763183593756,-1.304423213005066,0.7487283945083618,0.4906521439552307
1758280571544400400,57.235848388671876,-1.245458722114563,0.7808074951171875,0.4219250082969665
1758280571554486300,57.24593432617187,-1.1686991453170776,0.7673231363296509,0.3457199931144714
1758280571564571400,57.256019287109375,-1.0641930103302002,0.7041675448417664,0.2633928656578064
1758280571574657500,57.26610546875,-0.9521795511245728,0.6216694712638855,0.1709249764680862
1758280571584742400,57.276190429687496,-0.8476496934890747,0.5398675799369812,0.0452583655714988
1758280571594828300,57.2862763671875,-0.7528092265129089,0.5215311646461487,-0.0882432386279106
1758280571604913200,57.29636108398437,-0.6394503116607666,0.5507715344429016,-0.2268417626619339
