time,seconds_elapsed,z,y,x
1759584965225134800,0.029134765625,0.049314819276332855,0.002350505907088518,-0.06308149546384811
1759584965235118800,0.039118896484375,0.052920207381248474,0.03148122876882553,-0.06281305104494095
1759584965245102800,0.049102783203125,0.05475832149386406,0.04807538539171219,-0.060630589723587036
1759584965255087900,0.059087890625,0.05420864373445511,0.05228344351053238,-0.0540190264582634
1759584965265071900,0.06907177734375,0.05852988734841347,0.037095967680215836,-0.04806632921099663
1759584965275055900,0.079055908203125,0.05591066926717758,0.03933382406830788,-0.04405294358730316
1759584965285039900,0.089039794921875,0.04447079449892044,0.04585350677371025,-0.0421285443007946
1759584965295025000,0.09902490234375,0.031327564269304276,0.05229862406849861,-0.04458184912800789
1759584965305009000,0.1090087890625,0.02496793307363987,0.05961352959275246,-0.04519570618867874
1759584965314993000,0.118992919921875,0.023197464644908905,0.07659144699573517,-0.043661728501319885
1759584965324978000,0.12897802734375,0.028544826433062553,0.06788717210292816,-0.04183027148246765
1759584965334962000,0.1389619140625,0.058215901255607605,0.014285994693636894,-0.03987924009561539
1759584965344946000,0.14894580078125,0.08084478229284286,-0.02906174585223198,-0.0325012169778347
1759584965354930000,0.158929931640625,0.08230073004961014,-0.04981416091322899,-0.026399649679660797
1759584965364915000,0.1689150390625,0.06928852945566177,-0.03398193418979645,-0.026454776525497437
1759584965374899000,0.17889892578125,0.0452662818133831,0.005517270881682634,-0.02695145644247532
1759584965384883000,0.188883056640625,0.012375975959002972,0.03634309396147728,-0.02696344070136547
1759584965394867200,0.1988671875,-0.008327438496053219,0.017117734998464584,-0.01991804875433445
1759584965404852200,0.208852294921875,0.006836866959929466,0.02406725287437439,-0.0030948594212532043
1759584965414836200,0.218836181640625,0.03386662155389786,0.04201216623187065,0.006603574380278587
1759584965424820200,0.2288203125,0.05704863741993904,0.04027871415019035,0.010660633444786072
1759584965434805200,0.23880517578125,0.071513332426548,0.031154191121459007,0.007778028026223183
1759584965444789200,0.248789306640625,0.06677290797233582,0.032639436423778534,0.0017893778858706355
1759584965454773200,0.258773193359375,0.0452529639005661,0.0487251952290535,-0.002798982197418809
1759584965464757200,0.26875732421875,0.020312462002038956,0.0430167093873024,-0.012046809308230877
1759584965474742300,0.2787421875,0.015017831698060036,0.004874916281551123,-0.01477575022727251
1759584965484726300,0.288726318359375,0.030675621703267097,-0.09077677130699158,0.0005744438385590911
1759584965494710300,0.298710205078125,0.05726701766252518,-0.15895742177963257,0.021880531683564186
1759584965504694300,0.3086943359375,0.07532937824726105,-0.17466367781162262,0.0178796648979187
1759584965514679300,0.31867919921875,0.07030558586120605,-0.14662699401378632,-0.009126919321715832
1759584965524663300,0.328663330078125,0.026619359850883484,-0.1131284162402153,-0.03175446763634682
1759584965534647300,0.338647216796875,-0.04463937506079674,-0.07812968641519547,-0.03828666731715202
1759584965544631300,0.34863134765625,-0.07194849103689194,-0.024442225694656372,-0.023921577259898186
1759584965554616300,0.3586162109375,-0.055815596133470535,-0.00826964806765318,-0.01600639708340168
1759584965564600300,0.368600341796875,-0.01768472045660019,-0.012624981813132763,-0.013669739477336407
1759584965574584300,0.378584228515625,0.017599234357476234,-0.025192704051733017,-0.02196388877928257
1759584965584569000,0.388569091796875,0.03425810486078262,-0.023374831303954124,-0.031198132783174515
1759584965594553300,0.39855322265625,0.019402725622057915,-0.021142570301890373,-0.034204307943582535
1759584965604537300,0.408537353515625,-0.02400040812790394,-0.014057761989533901,-0.02768036350607872
1759584965614521300,0.418521240234375,-0.051903411746025085,0.005113269202411175,-0.017122261226177216
1759584965624506000,0.428506103515625,-0.05380916967988014,0.022717030718922615,-0.016057796776294708
1759584965634490400,0.438490478515625,-0.04741145670413971,0.004035487771034241,-0.017172062769532204
1759584965644474400,0.448474365234375,-0.05252605676651001,-0.014448980800807476,-0.014020477421581745
1759584965654458400,0.458458251953125,-0.03461310267448425,-0.032999228686094284,-0.0023068301379680634
1759584965664443100,0.468443115234375,-0.006825149059295654,-0.07766656577587128,0.007311975117772818
1759584965674427400,0.478427490234375,0.008778311312198639,-0.10920611768960953,0.01840963400900364
1759584965684411400,0.488411376953125,0.006569219287484884,-0.08824783563613892,0.03218057379126549
1759584965694396200,0.498396240234375,-0.008145811036229134,-0.031205058097839355,0.035536155104637146
1759584965704380200,0.508380126953125,-0.02215483784675598,0.01293523982167244,0.03073847107589245
1759584965714364400,0.518364501953125,-0.033420808613300323,0.05139634385704994,0.030241258442401886
1759584965724348400,0.528348388671875,-0.04996436461806297,0.08340167999267578,0.03169853985309601
1759584965734333200,0.538333251953125,-0.06206097453832626,0.10490910708904266,0.030607709661126137
1759584965744317200,0.548317138671875,-0.06145643815398216,0.10091409832239151,0.02093537524342537
1759584965754301200,0.55830126953125,-0.048161137849092484,0.06683655083179474,0.009191900491714478
1759584965764285400,0.568285400390625,-0.03293851017951965,0.029739785939455032,0.007248059380799532
1759584965774270200,0.578270263671875,-0.022045381367206573,0.021852567791938782,0.02100861258804798
1759584965784254200,0.588254150390625,-0.020024042576551437,0.038547124713659286,0.029860693961381912
1759584965794238200,0.59823828125,-0.021556690335273743,0.06665732711553574,0.03617371618747711
1759584965804223200,0.60822314453125,-0.022543923929333687,0.08632077276706696,0.03732074052095413
1759584965814207200,0.618207275390625,-0.02249918319284916,0.07965834438800812,0.037390515208244324
1759584965824191200,0.628191162109375,-0.014638330787420273,0.039805736392736435,0.03988216817378998
1759584965834175200,0.63817529296875,-0.008212655782699585,0.0190205629914999,0.03543229401111603
1759584965844160300,0.64816015625,-0.011778095737099648,0.03788666054606438,0.026307238265872
1759584965854144300,0.658144287109375,-0.029253758490085602,0.07898429781198502,0.016336895525455475
1759584965864128300,0.668128173828125,-0.0385039821267128,0.11743208765983582,0.007769505959004164
1759584965874112300,0.6781123046875,-0.04030720889568329,0.147847518324852,0.0032653016969561577
1759584965884097300,0.68809716796875,-0.03302266448736191,0.12815611064434052,0.01152749266475439
1759584965894081300,0.698081298828125,-0.003501790575683117,0.07797176390886307,0.033433858305215836
1759584965904065300,0.708065185546875,0.0178128182888031,0.04413044452667236,0.04157407581806183
1759584965914050300,0.71805029296875,0.017226656898856163,0.04109310731291771,0.036376118659973145
1759584965924034300,0.728034423828125,-0.0018184063956141472,0.055452339351177216,0.015513712540268898
1759584965934018300,0.738018310546875,-0.02147306688129902,0.0796988233923912,-0.005503954831510782
1759584965944002000,0.748001953125,-0.033068470656871796,0.09357123076915741,-0.016446085646748543
1759584965953987300,0.7579873046875,-0.0367063507437706,0.11838070303201675,-0.019032813608646393
1759584965963971300,0.767971435546875,-0.01853293739259243,0.1213272288441658,-0.012628443539142609
1759584965973955000,0.777955078125,0.017298296093940735,0.03718731552362442,0.0037878139410167933
1759584965983939000,0.78793896484375,0.03361521661281586,-0.010153035633265972,0.018203238025307655
1759584965993924000,0.797924072265625,0.030818631872534752,-0.01281779445707798,0.021629661321640015
1759584966003908000,0.807908203125,0.01702532172203064,-0.003163569141179323,0.0049196574836969376
1759584966013892000,0.81789208984375,-0.006625944748520851,0.010700315237045288,-0.013612748123705387
1759584966023876000,0.8278759765625,-0.015812251716852188,0.019404856488108635,-0.015077220275998116
1759584966033861000,0.837861083984375,-0.006118878722190857,0.03780596703290939,-0.0065079666674137115
1759584966043845000,0.84784521484375,0.00031798143754713237,0.051423508673906326,0.007180415093898773
1759584966053829000,0.8578291015625,0.005566006526350975,0.06508339196443558,0.01624634861946106
1759584966063814100,0.867814208984375,0.011179151013493538,0.061460431665182114,0.016716929152607918
1759584966073798100,0.877798095703125,0.009928264655172825,0.05049886181950569,0.012002866715192795
1759584966083782100,0.8877822265625,-0.0004037352045997977,0.030892934650182724,0.0034107104875147343
1759584966093766100,0.89776611328125,-0.010908573865890503,0.020445087924599648,-0.005936452187597752
1759584966103751200,0.907751220703125,-0.021946044638752937,0.02930089645087719,-0.009981527924537659
1759584966113735200,0.917735107421875,-0.02226509153842926,0.049737993627786636,-0.009408681653439999
1759584966123719200,0.92771923828125,-0.008765261620283127,0.06604719161987305,-0.002544117858633399
1759584966133703200,0.937703125,0.012535765767097473,0.06745573878288269,0.0027561055030673742
1759584966143688200,0.947688232421875,0.02863430790603161,0.06238960847258568,0.01010802760720253
1759584966153672200,0.957672119140625,0.023395070806145668,0.057975150644779205,0.014357101172208786
1759584966163656200,0.96765625,0.012859339825809002,0.02520628646016121,0.015083079226315022
1759584966173641200,0.97764111328125,0.002683933824300766,-0.0005765743553638458,0.016830379143357277
1759584966183625200,0.987625244140625,-0.005545233841985464,-0.0028522454667836428,0.01925039291381836
1759584966193609200,0.997609130859375,-0.00603392394259572,-0.00023995080846361816,0.013087306171655655
1759584966203593200,1.00759326171875,-0.0035518580116331577,0.012242019176483154,0.0030146983917802572
1759584966213578200,1.017578125,-0.0037119139451533556,0.037509556859731674,-0.010149839334189892
1759584966223562200,1.027562255859375,-0.008446482010185719,0.07000358402729034,-0.016105201095342636
1759584966233546200,1.037546142578125,-0.002145442645996809,0.05000750720500946,-0.0017800568602979183
1759584966243530200,1.0475302734375,0.007342068944126368,0.009344233199954033,0.016107862815260887
1759584966253515300,1.057515380859375,0.011264106258749962,0.005291168577969074,0.022640064358711243
1759584966263499300,1.067499267578125,0.003721234854310751,0.020981980487704277,0.016954747959971428
1759584966273483300,1.077483154296875,-0.00723527604714036,0.032641831785440445,0.003766775131225586
1759584966283468300,1.08746826171875,-0.014317153953015804,0.03412787616252899,-0.0003438140847720206
1759584966293452300,1.097452392578125,-0.015093198977410793,0.03548049554228783,0.002398176584392786
1759584966303436300,1.107436279296875,-0.01792760193347931,0.041260622441768646,0.0027561055030673742
1759584966313420300,1.117420166015625,-0.020187560468912125,0.05663291737437248,0.0038517299108207226
1759584966323405300,1.1274052734375,0.000011984225238848012,0.016597086563706398,0.005502357147634029
1759584966333389300,1.137389404296875,0.019512448459863663,-0.042879290878772736,0.020128704607486725
1759584966343373300,1.147373291015625,0.01750016398727894,-0.06215019151568413,0.031625304371118546
1759584966353357300,1.157357421875,0.014752048067748547,-0.037703704088926315,0.0264209546148777
1759584966363342300,1.16734228515625,0.006929545197635889,-0.011699266731739044,0.007966047152876854
1759584966373326300,1.177326416015625,0.004022971261292696,-0.008788165636360645,-0.004668254870921373
1759584966383310300,1.187310302734375,-0.000254331884207204,-0.0210027527064085,-0.002270611235871911
1759584966393294300,1.19729443359375,-0.005852562841027975,-0.029386384412646294,0.006737797521054745
1759584966403278000,1.207278076171875,-0.003067695302888751,-0.029642846435308456,0.02215190790593624
1759584966413262000,1.217261962890625,0.0025156219489872456,-0.029741650447249413,0.03491057828068733
1759584966423246000,1.22724609375,0.0065415226854383945,-0.020748155191540718,0.032942235469818115
1759584966433231000,1.237231201171875,0.014652179554104805,0.01329956017434597,0.025533854961395264
1759584966443215000,1.247215087890625,0.013161608017981052,0.044556815177202225,0.016704412177205086
1759584966453199000,1.25719921875,0.007877363823354244,0.05295456200838089,0.012534433975815773
1759584966463183000,1.26718310546875,0.0028213527984917164,0.019226957112550735,0.004797950852662325
1759584966473168100,1.277168212890625,-0.011567439883947372,-0.01655128039419651,0.003403786104172468
1759584966483152100,1.287152099609375,-0.022946061566472054,-0.017482055351138115,0.006454703398048878
1759584966493136100,1.29713623046875,-0.033660225570201874,-0.000931307440623641,0.008668323047459126
1759584966503121200,1.30712109375,-0.035640817135572433,0.016463395208120346,0.008102933876216412
1759584966513105200,1.317105224609375,-0.024809209629893303,0.02370532974600792,0.00887977797538042
1759584966523089200,1.327089111328125,-0.013671870343387127,0.020235497504472733,0.008730906993150711
1759584966533073200,1.3370732421875,-0.005411010701209307,0.0062730759382247925,0.007288539316505194
1759584966543058200,1.34705810546875,0.0013462279457598925,-0.02159424126148224,0.006816626992076635
1759584966553042200,1.357042236328125,0.0010636665392667055,-0.04246649891138077,0.011965316720306873
1759584966563026200,1.367026123046875,-0.0009267800487577915,-0.03820357844233513,0.01623542793095112
1759584966573010200,1.37701025390625,-0.003442401997745037,-0.01131204329431057,0.012915265746414661
1759584966582995200,1.3869951171875,-0.0065103634260594845,0.010676080361008644,0.007102650590240955
1759584966592979200,1.396979248046875,-0.011155715212225914,0.017348896712064743,0.00430047232657671
1759584966602963200,1.406963134765625,-0.01384151354432106,0.01576564647257328,0.002507632365450263
1759584966612948200,1.4169482421875,-0.013261476531624794,0.011124290525913239,0.00279072648845613
1759584966622932200,1.42693212890625,-0.018314026296138763,0.010867827571928501,0.00006578007742064074
1759584966632916200,1.436916259765625,-0.018876485526561737,0.019227489829063416,-0.00341603672131896
1759584966642900200,1.446900146484375,-0.017419736832380295,0.03732020780444145,-0.006593454163521528
1759584966652885200,1.45688525390625,-0.004186755511909723,0.028332306072115898,-0.00487251952290535
1759584966662869200,1.466869140625,0.008272310718894005,-0.007441138383001089,0.01017114520072937
1759584966672853200,1.476853271484375,0.009889648295938969,-0.008065382950007915,0.01726660504937172
1759584966682837200,1.486837158203125,0.005502623505890369,0.02275404892861843,0.015986690297722816
1759584966692822300,1.496822265625,0.005535912699997425,0.029325397685170174,0.00207673292607069
1759584966702806300,1.50680615234375,0.008870190940797329,-0.012987704016268253,0.0002897519152611494
1759584966712790300,1.516790283203125,0.013342703692615032,-0.05672692880034447,0.0008703210623934865
1759584966722775300,1.526775390625,0.009572732262313366,-0.04412112385034561,-0.0011805793037638068
1759584966732759300,1.53675927734375,0.0033505228348076344,0.0030863373540341854,-0.002272741636261344
1759584966742743300,1.546743408203125,0.007598265074193478,0.03268550708889961,-0.003635481232777238
1759584966752727300,1.556727294921875,0.00481206551194191,0.05503608658909798,-0.004650145769119263
1759584966762712300,1.56671240234375,-0.009428389370441437,0.06602802127599716,-0.0001613875647308305
1759584966772696300,1.5766962890625,-0.023274961858987808,0.0799262598156929,-0.0023329290561378
1759584966782680300,1.586680419921875,-0.03262026235461235,0.07997339218854904,-0.007502657361328602
1759584966792664300,1.596664306640625,-0.03055950626730919,0.06454809755086899,-0.010304569266736507
1759584966802649300,1.6066494140625,-0.011092332191765308,0.041614290326833725,-0.010295247659087181
1759584966812633300,1.61663330078125,0.012034292332828045,0.031255658715963364,-0.005631254054605961
1759584966822617300,1.626617431640625,0.03062422201037407,0.033119335770606995,0.0003968109958805144
1759584966832602400,1.636602294921875,0.03879959508776665,0.042386870831251144,0.0034996599424630404
1759584966842586400,1.64658642578125,0.021796908229589462,0.045517683029174805,0.008329036645591259
1759584966852570400,1.6565703125,0.0054450989700853825,0.06070409342646599,0.011634285561740398
1759584966862554400,1.666554443359375,0.004993160720914602,0.07689451426267624,0.011271563358604908
1759584966872539400,1.676539306640625,0.008358331397175789,0.07691209018230438,0.002121474128216505
1759584966882523400,1.6865234375,0.013799968175590038,0.049553170800209045,-0.0014183996245265007
1759584966892507400,1.69650732421875,0.025496572256088257,0.03626666218042374,-0.010333064943552017
1759584966902491400,1.706491455078125,0.02377830073237419,0.0502953939139843,-0.003718305379152298
1759584966912476400,1.716476318359375,0.02473650500178337,0.05784092843532562,-0.0037028591614216566
1759584966922460400,1.72646044921875,0.029266808182001114,0.05125280097126961,-0.0018303906545042992
1759584966932444400,1.7364443359375,0.03307619318366051,0.008136489428579807,-0.003064499469473958
1759584966942429200,1.74642919921875,0.027418041601777077,-0.02340785413980484,-0.002554770326241851
1759584966952413400,1.756413330078125,0.014339524321258068,0.002067412016913295,-0.004817658569663763
1759584966962397400,1.7663974609375,0.004442951641976833,0.04693901166319847,-0.008135690353810787
1759584966972381200,1.776381103515625,0.01769963465631008,0.04981788992881775,-0.004233360756188631
1759584966982366200,1.7863662109375,0.05059180408716202,0.017589379101991653,0.009521866217255592
1759584966992350200,1.79635009765625,0.062482286244630814,-0.02503770962357521,0.019542010501027107
1759584967002334200,1.806334228515625,0.0669337585568428,-0.039920784533023834,0.016352608799934387
1759584967012318200,1.816318115234375,0.047872718423604965,-0.03308338299393654,0.0016468988033011556
1759584967022303200,1.82630322265625,0.021333517506718636,-0.0015198660548776388,-0.011260909959673882
1759584967032287200,1.836287353515625,0.012357866391539574,0.029227394610643387,-0.024112259969115257
1759584967042271200,1.846271240234375,0.0068118334747850895,0.04422738403081894,-0.02955283224582672
1759584967052256000,1.856256103515625,0.00939030572772026,0.03815218061208725,-0.01507269311696291
1759584967062240000,1.866239990234375,0.01804850809276104,0.01667165383696556,0.0018138790037482977
1759584967072224300,1.876224365234375,0.025294704362750053,0.015851134434342384,0.007282414007931948
1759584967082208300,1.886208251953125,0.025976739823818207,0.008441155776381493,-0.0027739484794437885
1759584967092193000,1.896193115234375,0.00818149745464325,0.019706593826413155,-0.00977326836436987
1759584967102177000,1.906177001953125,-0.00942093227058649,0.011115501634776592,-0.011322163045406342
1759584967112161300,1.916161376953125,-0.01359543763101101,-0.009751164354383945,-0.012202870100736618
1759584967122145300,1.926145263671875,-0.018154768273234367,-0.0035923379473388195,-0.009783654473721981
1759584967132130000,1.936130126953125,-0.020779846236109734,0.013685451820492744,-0.006301038898527622
1759584967142114000,1.946114013671875,-0.004495415836572647,0.0010032127611339092,0.008942894637584686
1759584967152098300,1.956098388671875,0.021076256409287453,-0.008950618095695972,0.023327693343162537
1759584967162083000,1.9660830078125,0.03490472212433815,0.00273133791051805,0.03140479326248169
1759584967172067000,1.976067138671875,0.036615535616874695,0.01757553219795227,0.023012109100818634
1759584967182051000,1.986051025390625,0.034625355154275894,0.020532172173261642,0.009615076705813408
1759584967192035000,1.99603515625,0.023815317079424858,-0.0003097256412729621,0.004009921569377184
1759584967202020000,2.00602001953125,0.023192403838038445,-0.044258009642362595,0.015308914706110954
1759584967212004000,2.016004150390625,0.01631159521639347,-0.06640592217445374,0.029808228835463524
1759584967221988000,2.025988037109375,0.0201614610850811,-0.05584169551730156,0.032643698155879974
1759584967231972000,2.03597216796875,0.03136910870671272,-0.019224295392632484,0.023000923916697502
1759584967241957000,2.04595703125,0.03206126391887665,0.010045177303254604,0.007938084192574024
1759584967251941000,2.055941162109375,0.023381222039461136,0.02816505916416645,0.003772367723286152
1759584967261925000,2.065925048828125,0.007477623876184225,0.051362257450819016,0.002615224104374647
1759584967271910100,2.07591015625,-0.0004037352045997977,0.06517527252435684,0.00010945591930067167
1759584967281894100,2.08589404296875,0.006709568202495575,0.04763489589095116,0.0057401773519814014
1759584967291878100,2.095878173828125,0.023124493658542633,0.010787666775286198,0.014127803035080433
1759584967301862100,2.105862060546875,0.03736521676182747,-0.011437743902206421,0.021832594648003578
1759584967311847200,2.11584716796875,0.03910931944847107,-0.0062331282533705235,0.02009221911430359
1759584967321831200,2.1258310546875,0.03014085814356804,0.007272027432918549,0.008281365968286991
1759584967331815200,2.135815185546875,0.01327159721404314,0.014406369999051094,0.003988882526755333
1759584967341799200,2.145799072265625,0.00353428116068244,0.010148241184651852,0.0052118063904345036
1759584967351784200,2.1557841796875,-0.007673632353544235,0.014666294679045677,0.007672034204006195
1759584967361768200,2.165768310546875,-0.007041930686682463,0.02978852204978466,0.005333778914064169
1759584967371752200,2.175752197265625,-0.004573712591081858,0.04157301038503647,0.0038008634001016617
1759584967381737200,2.1857373046875,-0.00001917476038215682,0.04424522444605827,0.0016990967560559511
1759584967391721200,2.19572119140625,0.009876333177089691,0.032530512660741806,0.01525778230279684
1759584967401705500,2.20570556640625,0.027163177728652954,0.0023315974976867437,0.027716848999261856
1759584967411689500,2.215689453125,0.02931074984371662,-0.009533051401376724,0.029878536239266396
1759584967421674500,2.225674560546875,0.01818246580660343,0.0016445019282400608,0.018793128430843353
1759584967431658500,2.235658447265625,0.005465871654450893,0.02460627630352974,0.0036879454273730516
1759584967441642500,2.245642578125,-0.0010391654213890433,0.04018550366163254,-0.0046999468468129635
1759584967451627500,2.25562744140625,-0.0027750139124691486,0.04264253377914429,-0.0020865867845714092
1759584967461611500,2.265611572265625,-0.0036631780676543713,0.03002181462943554,0.0017395768081769347
1759584967471595500,2.275595458984375,0.004685565363615751,0.0033633061684668064,0.008784170262515545
1759584967481579500,2.28557958984375,0.007682154420763254,-0.02473250962793827,0.00984251033514738
1759584967491564500,2.295564453125,0.005923136603087187,-0.030910246074199677,0.011537079699337482
1759584967501548500,2.305548583984375,0.00012623383372556418,-0.012896889820694923,0.0035108451265841722
1759584967511532500,2.315532470703125,-0.005269064102321863,0.01836116425693035,-0.006557767745107412
1759584967521516500,2.3255166015625,-0.004565456882119179,0.03936871141195297,-0.016472982242703438
1759584967531501600,2.33550146484375,-0.0032921996898949146,0.04496427997946739,-0.015058577992022038
1759584967541485600,2.345485595703125,0.006841660942882299,0.016079101711511612,0.00418462511152029
1759584967551469600,2.355469482421875,0.005821137689054012,-0.0010671286145225167,0.014679343439638615
1759584967561454600,2.36545458984375,0.0073529877699911594,0.022160962224006653,0.009619603864848614
1759584967571438600,2.3754384765625,0.00884888507425785,0.02785240299999714,-0.005308745428919792
1759584967581422600,2.385422607421875,0.0036333505995571613,0.020609138533473015,-0.012941098771989346
1759584967591406600,2.395406494140625,-0.006677609868347645,0.024288294836878777,-0.011701131239533424
1759584967601391600,2.4053916015625,-0.016714265570044518,0.036437101662158966,-0.011568505316972733
1759584967611375600,2.415375732421875,-0.02347603067755699,0.06287430226802826,-0.020291423425078392
1759584967621359600,2.425359619140625,-0.0278012715280056,0.07686229050159454,-0.021568408235907555
1759584967631343600,2.435343505859375,-0.0245444905012846,0.051842156797647476,-0.012636699713766575
1759584967641328600,2.44532861328125,-0.01781175471842289,0.023874172940850258,-0.0054094125516712666
1759584967651312600,2.455312744140625,-0.009878995828330517,0.020486366003751755,-0.007780425250530243
1759584967661296600,2.465296630859375,-0.015544870868325233,0.02521906979382038,-0.018307100981473923
1759584967671281700,2.47528173828125,-0.012703011743724346,0.02774001844227314,-0.021288244053721428
1759584967681265700,2.485265625,0.002092179376631975,0.008297877386212349,-0.015504923649132252
1759584967691249700,2.495249755859375,0.021751901134848595,-0.01948768086731434,-0.009643039666116238
1759584967701233700,2.505233642578125,0.023917850106954575,-0.025365810841321945,-0.0018138790037482977
1759584967711218700,2.51521875,0.014056962914764881,-0.001061802264302969,-0.004658667836338282
1759584967721202700,2.52520263671875,0.002712695859372616,0.027690216898918152,-0.007475759368389845
1759584967731186700,2.535186767578125,-0.006144711747765541,0.038847532123327255,-0.00894103106111288
1759584967741171700,2.545171630859375,-0.008558867499232292,0.033785659819841385,-0.011657987721264362
1759584967751155700,2.55515576171875,-0.009417204186320305,0.02990463562309742,-0.01011069118976593
1759584967761139500,2.565139404296875,-0.0076123797334730625,0.030052706599235535,-0.01660214550793171
1759584967771123500,2.57512353515625,-0.00703926756978035,0.028444690629839897,-0.013689979910850525
1759584967781108700,2.585108642578125,-0.008106129243969917,0.025246234610676765,-0.006425142288208008
1759584967791092500,2.595092529296875,-0.006446447689086199,0.02738555148243904,0.001686846255324781
1759584967801076500,2.605076416015625,0.0033361418172717094,0.03471457213163376,0.006739129312336445
1759584967811060500,2.615060546875,0.0144095653668046,0.024157799780368805,0.010557835921645164
1759584967821045500,2.62504541015625,0.017705760896205902,-0.0028794098179787397,0.011996741406619549
1759584967831029500,2.635029541015625,0.017420003190636635,-0.01907861977815628,0.012746954336762428
1759584967841013500,2.645013427734375,0.0051721250638365746,-0.02207494154572487,0.008957276120781898
1759584967850998500,2.65499853515625,-0.01037647482007742,-0.01870843954384327,0.010549846105277538
1759584967860982500,2.664982421875,-0.010035590268671513,0.001139300293289125,0.011330951005220413
1759584967870966500,2.674966552734375,-0.00009640643111197278,0.013887852430343628,0.007421164773404598
1759584967880950500,2.684950439453125,0.004992361646145582,0.02382543869316578,0.0031819448340684175
1759584967890935300,2.694935302734375,0.006494917441159487,0.03634762018918991,0.0018232000293210149
1759584967900919600,2.70491943359375,0.004201402887701988,0.049973417073488235,0.002555569401010871
1759584967910903600,2.714903564453125,0.00045833003241568804,0.04868897423148155,0.005952164996415377
1759584967920887600,2.724887451171875,0.006046440917998552,0.001058872789144516,0.016943562775850296
1759584967930872300,2.734872314453125,0.01841149851679802,-0.05826596915721893,0.030287597328424454
1759584967940856600,2.744856689453125,0.0164191871881485,-0.07087124139070511,0.030790403485298157
1759584967950840600,2.754840576171875,0.007489075418561697,-0.04643114656209946,0.016819726675748825
1759584967960825300,2.764825439453125,0.0019502328941598535,-0.024922393262386322,0.0026296053547412157
1759584967970809300,2.774809326171875,0.001511610229499638,-0.017483917996287346,-0.004052798729389906
1759584967980793600,2.784793701171875,-0.0028093685396015644,-0.01185373030602932,-0.0024546354543417692
1759584967990777600,2.794777587890625,-0.016693493351340294,0.0006652576266787946,-0.0002300971100339666
1759584968000762400,2.804762451171875,-0.027064906433224678,0.03092116490006447,0.0008852347382344306
1759584968010746400,2.814746337890625,-0.022425148636102676,0.022600650787353516,0.012026036158204079
1759584968020730400,2.82473046875,-0.014226606115698814,0.011077950708568096,0.02147866040468216
1759584968030715400,2.83471533203125,0.0008972189389169216,0.016399214044213295,0.02111141011118889
1759584968040699400,2.844699462890625,0.009426258504390717,0.01739710010588169,0.010660633444786072
1759584968050683400,2.854683349609375,0.006302370689809322,0.012720055878162384,0.003172357566654682
1759584968060667400,2.86466748046875,-0.006190517917275429,0.0073569826781749725,0.0005528722540475428
1759584968070652400,2.87465234375,-0.009443568997085094,-0.023849673569202423,0.007029946427792311
1759584968080636400,2.884636474609375,-0.015369635075330734,-0.05139128491282463,0.01870657689869404
1759584968090620400,2.894620361328125,-0.015386679209768772,-0.04152081161737442,0.021039770916104317
1759584968100604400,2.9046044921875,-0.0075934710912406445,-0.01667405106127262,0.01158874575048685
1759584968110589400,2.91458935546875,-0.005616606678813696,0.0003201119543518871,0.003459712490439415
1759584968120573400,2.924573486328125,-0.009695770218968391,0.021952170878648758,0.004728708881884813
1759584968130557400,2.934557373046875,-0.012968529015779495,0.030284402891993523,0.008053665049374104
1759584968140542500,2.94454248046875,-0.018135860562324524,0.006291984114795923,0.014231400564312935
1759584968150526500,2.9545263671875,-0.023875238373875618,-0.025440111756324768,0.015740348026156425
1759584968160510500,2.964510498046875,-0.026615099981427193,-0.0425431989133358,0.00845846626907587
1759584968170494500,2.974494384765625,-0.03224235773086548,-0.04249259829521179,0.002948652021586895
1759584968180479500,2.9844794921875,-0.03259949013590813,-0.03297286480665207,0.0027148264925926924
1759584968190463500,2.99446337890625,-0.025138109922409058,-0.010750914923846722,0.0019148128340020776
1759584968200447500,3.004447509765625,-0.018379272893071175,0.008329036645591259,0.005834719631820917
1759584968210431500,3.014431396484375,-0.018320683389902115,0.005331648513674736,0.007321029901504517
1759584968220416500,3.02441650390625,-0.023360982537269592,0.0035960664972662926,0.00962892547249794
1759584968230400500,3.034400390625,-0.025802303105592728,-0.0057479003444314,0.011028949171304703
1759584968240384500,3.044384521484375,-0.03316301479935646,-0.033001359552145004,0.012693424709141254
1759584968250369500,3.05436962890625,-0.043532032519578934,-0.03957910090684891,0.009759419597685337
1759584968260353500,3.064353515625,-0.05342540889978409,-0.015296930447220802,0.005137237720191479
1759584968270337500,3.074337646484375,-0.051117777824401855,-0.000019707391402334906,0.00012863067968282849
1759584968280321500,3.084321533203125,-0.038301847875118256,0.0006918892613612115,0.0013022858183830976
1759584968290306600,3.094306640625,-0.02388083189725876,-0.016336629167199135,0.013008209876716137
1759584968300290600,3.10429052734375,-0.0149800144135952,-0.032331839203834534,0.02004161849617958
1759584968310274600,3.114274658203125,-0.01501357089728117,-0.04243294522166252,0.022713035345077515
1759584968320259600,3.124259521484375,-0.02376418560743332,-0.045459892600774765,0.020002735778689384
1759584968330243600,3.13424365234375,-0.03579261898994446,-0.03368259593844414,0.019002718850970268
1759584968340227600,3.1442275390625,-0.031026892364025116,-0.030881216749548912,0.02250690758228302
1759584968350211600,3.154211669921875,-0.025007614865899086,-0.031433556228876114,0.033788323402404785
1759584968360196600,3.164196533203125,-0.018799787387251854,-0.028795162215828896,0.04388010501861572
1759584968370180600,3.1741806640625,-0.008921056985855103,-0.018684204667806625,0.043357592076063156
1759584968380164600,3.18416455078125,-0.0031353395897895098,-0.009090700186789036,0.04614778608083725
1759584968390148400,3.1941484375,0.002151301596313715,-0.01170326117426157,0.06789116561412811
1759584968400134400,3.204134521484375,0.01221751794219017,-0.04962720721960068,0.1006789430975914
1759584968410118100,3.2141181640625,0.01944214105606079,-0.06067133694887161,0.144241064786911
1759584968420102100,3.22410205078125,0.02551068551838398,-0.03729730471968651,0.1780453622341156
1759584968430087400,3.23408740234375,0.025464080274105072,-0.027516845613718033,0.20137518644332886
1759584968440071200,3.2440712890625,0.03477209433913231,-0.023434219881892204,0.2317514717578888
1759584968450055200,3.25405517578125,0.05060325562953949,-0.02244512178003788,0.27432316541671753
1759584968460039200,3.2640390625,0.0713287740945816,-0.04098045453429222,0.3272119462490082
1759584968470024200,3.274024169921875,0.10004431009292603,-0.049848783761262894,0.37432512640953064
1759584968480008200,3.28400830078125,0.12161538004875183,-0.04910922423005104,0.42509084939956665
1759584968489992200,3.2939921875,0.13900209963321686,-0.05393007770180702,0.47591647505760193
1759584968499977200,3.303977294921875,0.1473119556903839,-0.03755616396665573,0.5338152050971985
1759584968509961200,3.313961181640625,0.1610482782125473,-0.047685496509075165,0.5905525088310242
1759584968519945200,3.3239453125,0.18018202483654022,-0.038244057446718216,0.6477692127227783
1759584968529929200,3.33392919921875,0.1867709457874298,-0.02208852395415306,0.7139479517936707
1759584968539914200,3.343914306640625,0.20993246138095856,0.009786051698029041,0.7856284976005554
1759584968549898200,3.353898193359375,0.23399119079113007,0.05098328739404678,0.8446577787399292
1759584968559882200,3.36388232421875,0.2650303244590759,0.0575152225792408,0.8930526971817017
1759584968569866200,3.3738662109375,0.27968811988830566,0.049261823296546936,0.940994918346405
1759584968579851300,3.383851318359375,0.28089237213134766,0.011032144539058208,0.9840555787086487
1759584968589835300,3.393835205078125,0.2781836986541748,-0.013675598427653313,1.0243585109710693
1759584968599819300,3.4038193359375,0.2737226188182831,-0.015964319929480553,1.0773266553878784
1759584968609804000,3.413803955078125,0.2948726415634155,-0.033195238560438156,1.1196951866149902
1759584968619788300,3.423788330078125,0.3097674548625946,-0.01601092517375946,1.1630322933197021
1759584968629772300,3.433772216796875,0.3344661295413971,0.002763562137261033,1.2038239240646362
1759584968639756300,3.44375634765625,0.3571442663669586,0.03129853308200836,1.2471293210983276
1759584968649741000,3.453740966796875,0.3675694763660431,0.07985009253025055,1.3026173114776611
1759584968659725300,3.463725341796875,0.3713250756263733,0.07773713767528534,1.3774141073226929
1759584968669709300,3.473709228515625,0.3885014057159424,0.05940873175859451,1.456412434577942
1759584968679694000,3.483694091796875,0.390699565410614,0.08285760134458542,1.5395762920379639
1759584968689678000,3.493677978515625,0.3885488212108612,0.09741257131099701,1.6211007833480835
1759584968699662300,3.503662353515625,0.40461617708206177,0.1148349717259407,1.6864219903945923
1759584968709646300,3.513646240234375,0.45079007744789124,0.13372690975666046,1.7231067419052124
1759584968719631000,3.523631103515625,0.5040208101272583,0.14260642230510712,1.7360920906066895
1759584968729615000,3.533614990234375,0.5520874261856079,0.12917928397655487,1.7415627241134644
1759584968739599000,3.54359912109375,0.5933728218078613,0.10867108404636383,1.7621433734893799
1759584968749583400,3.553583251953125,0.6294580698013306,0.040771663188934326,1.8000411987304688
1759584968759568100,3.563568115234375,0.6386603713035583,0.012485165148973465,1.8463317155838013
1759584968769552100,3.57355224609375,0.658781111240387,0.02149011194705963,1.8674503564834595
1759584968779536100,3.5835361328125,0.6792674660682678,0.09461811929941177,1.8647115230560303
1759584968789521200,3.593521240234375,0.695461094379425,0.22749920189380646,1.8508747816085815
1759584968799505200,3.603505126953125,0.7124403119087219,0.41308078169822693,1.831327199935913
1759584968809489200,3.6134892578125,0.7518215775489807,0.5443066954612732,1.7916032075881958
1759584968819473200,3.62347314453125,0.7847805619239807,0.5609261989593506,1.7343873977661133
1759584968829458200,3.633458251953125,0.8043859601020813,0.5090174078941345,1.6633715629577637
1759584968839442200,3.643442138671875,0.7528055906295776,0.45301303267478943,1.585524082183838
1759584968849426200,3.65342626953125,0.6655234098434448,0.43096205592155457,1.5020811557769775
1759584968859410200,3.66341015625,0.613659143447876,0.42053815722465515,1.4131730794906616
1759584968869395200,3.673395263671875,0.6257400512695312,0.4368356466293335,1.321530818939209
1759584968879379200,3.683379150390625,0.6504555344581604,0.439523845911026,1.2671469449996948
1759584968889363200,3.69336328125,0.7030332684516907,0.41544991731643677,1.2325189113616943
1759584968899348200,3.70334814453125,0.765103816986084,0.2767961919307709,1.1787707805633545
1759584968909332200,3.713332275390625,0.7886708974838257,0.08439450711011887,1.0877900123596191
1759584968919316200,3.723316162109375,0.7575889229774475,-0.08595698326826096,0.9579257369041443
1759584968929300200,3.73330029296875,0.6663956046104431,-0.20629164576530457,0.845132052898407
1759584968939285200,3.74328515625,0.5818093419075012,-0.3472575545310974,0.7746387124061584
1759584968949269200,3.753269287109375,0.5268504619598389,-0.4504185616970062,0.739332377910614
1759584968959253200,3.763253173828125,0.5127913951873779,-0.5028117299079895,0.7115756273269653
1759584968969238300,3.77323828125,0.49342674016952515,-0.43746575713157654,0.6707863807678223
1759584968979222300,3.78322216796875,0.4413648843765259,-0.2724887728691101,0.6011095643043518
1759584968989206300,3.793206298828125,0.36120641231536865,-0.04114983230829239,0.5376922488212585
1759584968999190300,3.803190185546875,0.2946244478225708,0.15584366023540497,0.4900844991207123
1759584969009175300,3.81317529296875,0.28290945291519165,0.14279550313949585,0.4325495660305023
1759584969019159300,3.8231591796875,0.3029676079750061,-0.0658101737499237,0.3476399779319763
1759584969029143300,3.833143310546875,0.32154580950737,-0.3543793857097626,0.2290225327014923
1759584969039128300,3.84312841796875,0.31109103560447693,-0.5986841917037964,0.08650986105203629
1759584969049112300,3.8531123046875,0.23637525737285614,-0.7403502464294434,-0.0584728978574276
1759584969059096300,3.863096435546875,0.1397925168275833,-0.7488819360733032,-0.2040996104478836
1759584969069080000,3.873080078125,0.06841527670621872,-0.6967447400093079,-0.3554755449295044
1759584969079065300,3.8830654296875,-0.00905661191791296,-0.5820964574813843,-0.5014828443527222
1759584969089049000,3.893049072265625,-0.09538830071687698,-0.4234945476055145,-0.6547163128852844
1759584969099033000,3.903033203125,-0.18272852897644043,-0.31743094325065613,-0.8161816596984863
1759584969109017000,3.91301708984375,-0.25544294714927673,-0.3162442445755005,-0.9566705822944641
1759584969119002000,3.923002197265625,-0.30651333928108215,-0.41495245695114136,-1.0505409240722656
1759584969128986000,3.932986083984375,-0.3232076168060303,-0.5639115571975708,-1.0767226219177246
1759584969138970000,3.94297021484375,-0.3283744156360626,-0.6838558316230774,-1.0675371885299683
1759584969148955100,3.952955078125,-0.34357839822769165,-0.6877634525299072,-1.0875375270843506
1759584969158939100,3.962939208984375,-0.3816991448402405,-0.5933376550674438,-1.1678341627120972
1759584969168923100,3.972923095703125,-0.4749625325202942,-0.38116225600242615,-1.2757090330123901
1759584969178907100,3.9829072265625,-0.5887924432754517,-0.03735163435339928,-1.3880070447921753
1759584969188892200,3.99289208984375,-0.6579238176345825,0.3067399561405182,-1.4191229343414307
1759584969198876200,4.002876220703125,-0.7719321250915527,0.4718226492404938,-1.2214266061782837
1759584969208860200,4.012860107421875,-0.9710529446601868,0.5188516974449158,-0.8046786189079285
1759584969218845200,4.02284521484375,-0.9990617036819458,0.3727341592311859,-0.3793177604675293
1759584969228829200,4.0328291015625,-0.8629267811775208,0.2142249494791031,-0.041781533509492874
1759584969238813200,4.042813232421875,-0.5210045576095581,0.29531553387641907,0.17682777345180511
1759584969248797200,4.052797119140625,-0.1090516522526741,0.3417735695838928,0.22216036915779114
1759584969258782200,4.0627822265625,0.22378382086753845,0.3748015761375427,0.1394582986831665
1759584969268766200,4.07276611328125,0.4788784384727478,0.39596250653266907,0.036554280668497086
1759584969278750200,4.082750244140625,0.6610338687896729,0.2355818897485733,-0.06088012829422951
1759584969288734200,4.092734130859375,0.816959798336029,-0.11968246102333069,-0.1786016970872879
1759584969298719200,4.10271923828125,0.8972479701042175,-0.49008315801620483,-0.39692366123199463
1759584969308703200,4.112703125,0.8419602513313293,-0.6854201555252075,-0.7145362496376038
1759584969318687200,4.122687255859375,0.6371428966522217,-0.592804491519928,-1.0239659547805786
1759584969328672300,4.13267236328125,0.32436317205429077,-0.27750110626220703,-1.2333338260650635
1759584969338656300,4.14265625,-0.02052444964647293,0.1218705102801323,-1.3164575099945068
1759584969348640300,4.15264013671875,-0.2911341190338135,0.45999982953071594,-1.3110028505325317
1759584969358624300,4.162624267578125,-0.49548858404159546,0.5690911412239075,-1.3038935661315918
1759584969368609300,4.172609375,-0.6645771861076355,0.4432874321937561,-1.3768510818481445
1759584969378593300,4.18259326171875,-0.8208048939704895,0.21128134429454803,-1.5117058753967285
1759584969388577300,4.192577392578125,-0.9603617191314697,0.007158044259995222,-1.6015225648880005
1759584969398561800,4.202561767578125,-1.0604084730148315,-0.14100772142410278,-1.5584754943847656
1759584969408545800,4.2125458984375,-1.0828689336776733,-0.20328786969184875,-1.4311093091964722
1759584969418529800,4.22252978515625,-0.9975886940956116,-0.20080047845840454,-1.3218178749084473
1759584969428513800,4.232513671875,-0.8437056541442871,-0.17730207741260529,-1.3044573068618774
1759584969438498800,4.242498779296875,-0.6627888679504395,-0.12961445748806,-1.3590550422668457
1759584969448482800,4.25248291015625,-0.5080466866493225,-0.05164002627134323,-1.4522238969802856
1759584969458466800,4.262466796875,-0.4311751127243042,0.002177666872739792,-1.5602033138275146
1759584969468451800,4.272451904296875,-0.45797422528266907,0.004711132030934095,-1.6598161458969116
1759584969478435800,4.282435791015625,-0.5601682066917419,-0.029675336554646492,-1.7330312728881836
1759584969488419800,4.292419921875,-0.6792152523994446,-0.08768351376056671,-1.7839103937149048
1759584969498403800,4.30240380859375,-0.7687209248542786,-0.14486530423164368,-1.8085899353027344
1759584969508388900,4.312388916015625,-0.8216608166694641,-0.197029709815979,-1.8023083209991455
1759584969518372900,4.322372802734375,-0.8438737392425537,-0.2040892243385315,-1.7417304515838623
1759584969528356900,4.33235693359375,-0.8509427905082703,-0.20470601320266724,-1.6479771137237549
1759584969538340900,4.3423408203125,-0.8060661554336548,-0.21262066066265106,-1.5415692329406738
1759584969548326000,4.352325927734375,-0.7466214895248413,-0.22124557197093964,-1.4367791414260864
1759584969558310000,4.362309814453125,-0.7131854891777039,-0.24447259306907654,-1.3530309200286865
1759584969568294000,4.3722939453125,-0.6994715332984924,-0.23483806848526,-1.300838589668274
1759584969578278700,4.382278564453125,-0.7101028561592102,-0.19383125007152557,-1.257125735282898
1759584969588263000,4.392262939453125,-0.7164148092269897,-0.12286227196455002,-1.2206047773361206
1759584969598247000,4.402246826171875,-0.7008489370346069,-0.07292107492685318,-1.1892098188400269
1759584969608231000,4.41223095703125,-0.6712036728858948,-0.05426643416285515,-1.1535961627960205
1759584969618215700,4.422215576171875,-0.6376113891601562,-0.07934648543596268,-1.1166799068450928
1759584969628200000,4.432199951171875,-0.6350062489509583,-0.15937580168247223,-1.0769948959350586
1759584969638184000,4.442183837890625,-0.6508608460426331,-0.23147237300872803,-1.0390218496322632
1759584969648168700,4.452168701171875,-0.6582167744636536,-0.2633882164955139,-1.007564663887024
1759584969658152700,4.462152587890625,-0.6266830563545227,-0.27323418855667114,-0.976698100566864
1759584969668137000,4.472136962890625,-0.5377777218818665,-0.2893945276737213,-0.9482049345970154
1759584969678121000,4.482120849609375,-0.41800177097320557,-0.2993701994419098,-0.9200283885002136
1759584969688105700,4.492105712890625,-0.3109285831451416,-0.2742571234703064,-0.8751834630966187
1759584969698089700,4.50208984375,-0.2468705028295517,-0.23164202272891998,-0.8239231705665588
1759584969708073700,4.51207373046875,-0.21456369757652283,-0.20380745828151703,-0.7775998711585999
1759584969718058000,4.52205810546875,-0.2165709286928177,-0.19802705943584442,-0.7387440800666809
1759584969728042800,4.532042724609375,-0.23240235447883606,-0.2147783488035202,-0.6992973685264587
1759584969738026800,4.54202685546875,-0.24294953048229218,-0.24206297099590302,-0.6658666729927063
1759584969748010800,4.5520107421875,-0.23190806806087494,-0.2743071913719177,-0.6165161728858948
1759584969757995800,4.561995849609375,-0.17470256984233856,-0.2712804973125458,-0.5410587191581726
1759584969767979800,4.571979736328125,-0.10422626882791519,-0.2236940711736679,-0.4533744156360626
1759584969777963800,4.5819638671875,-0.03678278252482414,-0.1743616759777069,-0.3830485939979553
1759584969787947800,4.59194775390625,0.015210910700261593,-0.12650707364082336,-0.3287525773048401
1759584969797932800,4.601932861328125,0.03272731974720955,-0.08450262993574142,-0.2895388603210449
1759584969807916500,4.61191650390625,0.014156298711895943,-0.06979186087846756,-0.26449263095855713
1759584969817900500,4.621900634765625,-0.017650898545980453,-0.0990980863571167,-0.2561122179031372
1759584969827885800,4.6318857421875,-0.024540496990084648,-0.15038497745990753,-0.26135411858558655
1759584969837869600,4.64186962890625,0.00296303303912282,-0.18777282536029816,-0.2724059522151947
1759584969847853600,4.651853515625,0.0009361011325381696,-0.16209089756011963,-0.2736331522464752
1759584969857837600,4.661837646484375,-0.006374808494001627,-0.11711836606264114,-0.2630670368671417
1759584969867822600,4.671822509765625,-0.004311657976359129,-0.04845861345529556,-0.25161653757095337
1759584969877806600,4.681806640625,0.005516205448657274,-0.0121839614585042,-0.2484058141708374
1759584969887790600,4.69179052734375,0.019824305549263954,-0.04145503044128418,-0.2561982274055481
1759584969897775600,4.701775634765625,0.01082521677017212,-0.11902599036693573,-0.26835450530052185
1759584969907759600,4.711759521484375,-0.017599767073988914,-0.1667029708623886,-0.28391772508621216
1759584969917743600,4.72174365234375,-0.04953533038496971,-0.19604673981666565,-0.29543352127075195
1759584969927727600,4.7317275390625,-0.0683622807264328,-0.17486129701137543,-0.2906169295310974
1759584969937712600,4.741712646484375,-0.0628492683172226,-0.1052611768245697,-0.2744147777557373
1759584969947696600,4.751696533203125,-0.05325842648744583,-0.0024679512716829777,-0.2764992415904999
1759584969957680600,4.7616806640625,-0.03414012864232063,0.03863341361284256,-0.27897119522094727
1759584969967665700,4.771665771484375,-0.01733424887061119,0.020729513838887215,-0.27112019062042236
1759584969977649700,4.781649658203125,-0.013348562642931938,-0.03236166760325432,-0.26127099990844727
1759584969987633700,4.791633544921875,-0.024750620126724243,-0.11475800722837448,-0.25951945781707764
1759584969997617700,4.80161767578125,-0.04718935117125511,-0.19534818828105927,-0.2812380790710449
1759584970007602700,4.811602783203125,-0.08001706749200821,-0.17315900325775146,-0.3106287121772766
1759584970017586700,4.821586669921875,-0.0981723740696907,-0.08321606367826462,-0.31393182277679443
1759584970027570700,4.83157080078125,-0.1123795360326767,0.013077186420559883,-0.2898547351360321
1759584970037554700,4.8415546875,-0.12402714043855667,0.12086410075426102,-0.2533702254295349
1759584970047539700,4.851539794921875,-0.13293834030628204,0.20467697083950043,-0.21891024708747864
1759584970057523700,4.861523681640625,-0.14007534086704254,0.21411575376987457,-0.19253642857074738
1759584970067507700,4.8715078125,-0.1553347259759903,0.18460260331630707,-0.175718292593956
1759584970077492700,4.88149267578125,-0.18355783820152283,0.14907602965831757,-0.1683804839849472
1759584970087476700,4.891476806640625,-0.2090195268392563,0.08868672698736191,-0.17545278370380402
1759584970097460700,4.901460693359375,-0.22565868496894836,0.018514562398195267,-0.17893220484256744
1759584970107444700,4.91144482421875,-0.19597376883029938,-0.03434865176677704,-0.16865159571170807
1759584970117429800,4.9214296875,-0.14536438882350922,0.01077008992433548,-0.1550721377134323
1759584970127413800,4.931413818359375,-0.08725767582654953,0.04364548251032829,-0.12832202017307281
1759584970137397800,4.941397705078125,-0.06984832137823105,0.1201101616024971,-0.10830330103635788
1759584970147382800,4.9513828125,-0.08787073194980621,0.1693570762872696,-0.09547512233257294
1759584970157366800,4.96136669921875,-0.1102394238114357,0.18121692538261414,-0.09695131331682205
1759584970167350800,4.971350830078125,-0.138602614402771,0.19711945950984955,-0.10311253368854523
1759584970177334800,4.981334716796875,-0.191350519657135,0.20535901188850403,-0.11097365617752075
1759584970187319800,4.99131982421875,-0.22748374938964844,0.25838467478752136,-0.10161343961954117
1759584970197303800,5.0013037109375,-0.15073278546333313,0.26356425881385803,-0.07922318577766418
1759584970207287800,5.011287841796875,-0.039926376193761826,0.20208226144313812,-0.05849846452474594
1759584970217271800,5.021271728515625,0.03087509237229824,0.07078628987073898,-0.043721381574869156
1759584970227256800,5.0312568359375,0.06637156754732132,0.018311362713575363,-0.03292679041624069
1759584970237240800,5.04124072265625,0.04761625453829765,0.05439160391688347,-0.01631372608244419
1759584970247224800,5.051224853515625,-0.00013209278404247016,0.11105434596538544,-0.0021204089280217886
1759584970257209900,5.0612099609375,-0.03212384879589081,0.14768213033676147,-0.000461259507574141
1759584970267193900,5.07119384765625,-0.04000307619571686,0.16316016018390656,-0.005370797123759985
1759584970277177900,5.081177734375,-0.044677454978227615,0.16127970814704895,-0.005135640036314726
1759584970287163000,5.091162841796875,-0.041305895894765854,0.1516619622707367,-0.006739129312336445
1759584970297147000,5.10114697265625,-0.027479561045765877,0.1276271939277649,-0.006176935974508524
1759584970307131000,5.111130859375,0.00009853696246864274,0.08545178174972534,-0.00019494339358061552
1759584970317115000,5.121114990234375,0.02768702059984207,0.03285861387848854,0.010994594544172287
1759584970327100000,5.131099853515625,0.05169808119535446,-0.027467310428619385,0.02046665921807289
1759584970337084000,5.141083984375,0.059545353055000305,-0.045102495700120926,0.022458970546722412
1759584970347068000,5.15106787109375,0.044139765202999115,-0.026700319722294807,0.02558312378823757
1759584970357052000,5.161052001953125,0.021529527381062508,-0.006293049547821283,0.024100542068481445
1759584970367037000,5.171036865234375,0.0033835461363196373,0.009873935952782631,0.02003496140241623
1759584970377021000,5.18102099609375,0.005254683084785938,0.01823040284216404,0.02143285423517227
1759584970387005000,5.1910048828125,0.01702425628900528,-0.00008708536915946752,0.016581639647483826
1759584970396989700,5.20098974609375,0.020919928327202797,-0.03683684393763542,0.008012119680643082
1759584970406974000,5.210973876953125,0.017948906868696213,-0.08921536058187485,-0.0049153962172567844
1759584970416958000,5.2209580078125,0.018335331231355667,-0.09754333645105362,-0.008656072430312634
1759584970426942000,5.23094189453125,0.005166532471776009,-0.06649620085954666,-0.008056861348450184
1759584970436927000,5.240927001953125,-0.0017174725653603673,-0.03412548080086708,-0.002986735198646784
1759584970446911000,5.250910888671875,0.0021515677217394114,-0.01408465951681137,0.0010961571242660284
1759584970456895000,5.26089501953125,0.01991112343966961,-0.020312195643782616,0.009556753560900688
1759584970466880000,5.2708798828125,0.03754337877035141,-0.03214249014854431,0.011652661487460136
1759584970476863700,5.28086376953125,0.04035887494683266,-0.0468098483979702,0.010058759711682796
1759584970486848000,5.290847900390625,0.023815050721168518,-0.07065925747156143,0.013073990121483803
1759584970496832000,5.30083203125,0.002513491315767169,-0.08164745569229126,0.01667511649429798
1759584970506816800,5.310816650390625,-0.017899371683597565,-0.07450991868972778,0.021277857944369316
1759584970516800800,5.32080078125,-0.032212529331445694,-0.065770223736763,0.031123830005526543
1759584970526785000,5.330784912109375,-0.0305137000977993,-0.04971162974834442,0.03997724503278732
1759584970536769800,5.340769775390625,-0.013424995355308056,-0.0318245068192482,0.040591366589069366
1759584970546753800,5.35075390625,0.010953315533697605,-0.03842781484127045,0.038481079041957855
1759584970556737800,5.36073779296875,0.020266389474272728,-0.039318643510341644,0.033853039145469666
1759584970566721800,5.3707216796875,0.007503722794353962,-0.03669383376836777,0.03669170290231705
1759584970576706800,5.380706787109375,-0.009184177033603191,-0.035110849887132645,0.03440218046307564
1759584970586690800,5.39069091796875,-0.04254426434636116,-0.044202882796525955,0.02701111137866974
1759584970596674800,5.4006748046875,-0.05464034155011177,-0.03392281383275986,0.022973492741584778
1759584970606658800,5.410658935546875,-0.049912963062524796,-0.03156724572181702,0.01894519478082657
1759584970616643800,5.420643798828125,-0.05921538546681404,-0.04861467331647873,0.020618725568056107
1759584970626627800,5.4306279296875,-0.05162537842988968,-0.06941316276788712,0.028183434158563614
1759584970636611800,5.44061181640625,-0.028026308864355087,-0.05883295461535454,0.03901078179478645
1759584970646596900,5.450596923828125,-0.012865997850894928,-0.039151664823293686,0.04286197945475578
1759584970656580900,5.460580810546875,-0.015196263790130615,-0.011532552540302277,0.03266047313809395
1759584970666564900,5.47056494140625,-0.02100994437932968,0.020892499014735222,0.01338797714561224
1759584970676548900,5.480548828125,-0.018376611173152924,0.037394508719444275,0.002472212305292487
1759584970686534000,5.490533935546875,-0.01483300793915987,0.049558233469724655,0.003162237349897623
1759584970696518000,5.500517822265625,-0.011264106258749962,0.06723096966743469,0.0059934440068900585
1759584970706502000,5.510501953125,-0.0004266384057700634,0.06599126756191254,0.004736165516078472
1759584970716487000,5.52048681640625,0.01236079540103674,0.037820614874362946,0.0035212314687669277
1759584970726471000,5.530470947265625,0.016089487820863724,-0.0002711098059080541,-0.00036192359402775764
1759584970736455000,5.540454833984375,0.0027481159195303917,-0.026206037029623985,-0.003078614128753543
1759584970746439000,5.55043896484375,-0.015046593733131886,-0.024102672934532166,-0.0008868326549418271
1759584970756424000,5.560423828125,-0.026380740106105804,0.0023273364640772343,-0.0032522522378712893
1759584970766408000,5.570407958984375,-0.024700019508600235,0.014554974623024464,-0.004742557182908058
1759584970776392000,5.580391845703125,-0.007644603960216045,0.009987120516598225,-0.013339773751795292
1759584970786377000,5.590376953125,0.009953830391168594,-0.0015089471125975251,-0.026436934247612953
1759584970796361000,5.60036083984375,0.016866598278284073,0.0021939121652394533,-0.024871261790394783
1759584970806345000,5.610344970703125,0.019777433946728706,0.011514975689351559,-0.01529027335345745
1759584970816329000,5.620328857421875,0.01438133604824543,0.020534569397568703,-0.013796771876513958
1759584970826314000,5.63031396484375,0.007870705798268318,0.011915515176951885,-0.013029515743255615
1759584970836298000,5.640298095703125,-0.001555552356876433,-0.003620034782215953,-0.011884622275829315
1759584970846282000,5.650281982421875,-0.005347893573343754,-0.019695673137903214,-0.011330419220030308
1759584970856267000,5.66026708984375,-0.0037233654875308275,-0.04553020000457764,-0.004493019077926874
1759584970866251000,5.6702509765625,0.004671184346079826,-0.06380987167358398,0.00037523938226513565
1759584970876235000,5.680235107421875,0.0054509579204022884,-0.05782495066523552,0.0041433461010456085
1759584970886219000,5.690218994140625,0.0002311623829882592,-0.05919940769672394,0.007122890558093786
1759584970896204000,5.7002041015625,-0.00022796659322921187,-0.045527536422014236,0.010633203200995922
1759584970906188000,5.71018798828125,-0.008739962242543697,-0.023539148271083832,0.009561280719935894
1759584970916172000,5.720172119140625,-0.01443832740187645,-0.0089404983446002,0.013254286721348763
1759584970926157000,5.730156982421875,-0.016464194282889366,-0.005077582783997059,0.013731258921325207
1759584970936141000,5.74014111328125,-0.02480122074484825,-0.0006841660942882299,0.008718922734260559
1759584970946125000,5.750125,-0.02948864921927452,0.0025619608350098133,-0.0014945659786462784
1759584970956109000,5.760109130859375,-0.022276276722550392,-0.006520750001072884,-0.014712633565068245
1759584970966094000,5.770093994140625,-0.011920042335987091,-0.030478013679385185,-0.020007530227303505
1759584970976078000,5.780078125,-0.008658469654619694,-0.016018647700548172,-0.02231835573911667
1759584970986062000,5.79006201171875,-0.0015907060587778687,-0.012564794160425663,-0.022970296442508698
1759584970996046000,5.800046142578125,-0.003777960315346718,-0.004662395920604467,-0.020112724974751472
1759584971006031000,5.810031005859375,-0.004837365821003914,-0.021134313195943832,-0.01902109570801258
1759584971016015000,5.82001513671875,-0.013822338543832302,-0.054539673030376434,-0.01079592201858759
1759584971025999000,5.8299990234375,-0.011259312741458416,-0.06709541380405426,-0.007767641916871071
1759584971035984100,5.839984130859375,-0.009196161292493343,-0.04480928182601929,-0.006118878722190857
1759584971045968100,5.849968017578125,-0.008330900222063065,0.003680754918605089,-0.009106412529945374
1759584971055952100,5.8599521484375,-0.004443218000233173,0.04246943071484566,-0.013158146291971207
1759584971065936000,5.869935791015625,0.002579271560534835,0.04652462527155876,-0.019775569438934326
1759584971075921200,5.879921142578125,0.0024588967207819223,0.03351108729839325,-0.0215993020683527
1759584971085905200,5.8899052734375,-0.012073706835508347,0.012895292602479458,-0.020600616931915283
1759584971095889000,5.899888916015625,-0.025249430909752846,-0.0005030711181461811,-0.01931644044816494
1759584971105874200,5.909874267578125,-0.023811323568224907,0.0004394215648062527,-0.017731858417391777
1759584971115858200,5.919858154296875,-0.0160660520195961,0.019025355577468872,-0.018751583993434906
1759584971125842000,5.929842041015625,-0.006599845830351114,0.03671327233314514,-0.018572885543107986
1759584971135826000,5.939825927734375,0.007355384528636932,0.03454679250717163,-0.01925971545279026
1759584971145811200,5.949811279296875,0.02238333597779274,0.006676012184470892,-0.01600746251642704
1759584971155795000,5.959794921875,0.013627395033836365,-0.016891898587346077,-0.007494401652365923
1759584971165779000,5.969779052734375,-0.006750847212970257,-0.026021480560302734,-0.005528456065803766
1759584971175764000,5.979763916015625,-0.024562867358326912,-0.023484021425247192,-0.010958109050989151
1759584971185748000,5.989748046875,-0.027413249015808105,-0.020053336396813393,-0.02213646098971367
1759584971195732000,5.99973193359375,-0.02701883390545845,-0.009674465283751488,-0.026339195668697357
1759584971205716000,6.009716064453125,-0.01525778230279684,0.020541494712233543,-0.023930100724101067
1759584971215701000,6.019700927734375,-0.008926116861402988,0.061648450791835785,-0.017067667096853256
1759584971225685000,6.02968505859375,0.01338850986212492,0.06282050907611847,-0.006022206041961908
1759584971235669000,6.0396689453125,0.011815380305051804,0.03620700538158417,0.0075969332829117775
1759584971245653800,6.04965380859375,-0.0005009406013414264,0.0002247707889182493,0.018850119784474373
1759584971255637800,6.0596376953125,-0.017520403489470482,-0.009356483817100525,0.016829047352075577
1759584971265622000,6.0696220703125,-0.03500805050134659,-0.007331416010856628,0.0006831008358858526
1759584971275606000,6.07960595703125,-0.042756516486406326,0.0017736653098836541,-0.016889235004782677
1759584971285590800,6.0895908203125,-0.04306677728891373,0.009544236585497856,-0.01936890371143818
1759584971295574800,6.09957470703125,-0.06319068372249603,0.031022896990180016,-0.02038995921611786
1759584971305559000,6.10955908203125,-0.04926421865820885,0.06985018402338028,-0.01455843634903431
1759584971315543000,6.11954296875,-0.01080071646720171,0.040819600224494934,-0.007221694104373455
1759584971325527800,6.12952783203125,0.00159443449229002,-0.02249918319284916,-0.0008058725506998599
1759584971335511800,6.13951171875,-0.012804212048649788,-0.03287592530250549,0.006136988289654255
1759584971345496000,6.14949609375,-0.026492327451705933,-0.022723421454429626,0.0011147991754114628
1759584971355480800,6.159480712890625,-0.04838111624121666,-0.020553478971123695,0.01437947154045105
1759584971365464800,6.16946484375,-0.043772779405117035,-0.017670074477791786,-0.025005483999848366
1759584971375448800,6.17944873046875,-0.057069145143032074,-0.03437794744968414,-0.043418847024440765
1759584971385432800,6.189432861328125,-0.04138286039233208,-0.005555087700486183,-0.026152241975069046
1759584971395417900,6.19941796875,-0.011355718597769737,-0.0013217268278822303,-0.010646252892911434
1759584971405401900,6.20940185546875,-0.0016527577536180615,-0.03188043460249901,-0.0027265443932265043
1759584971415385900,6.2193857421875,0.003096723696216941,-0.06555797159671783,-0.0013859090395271778
1759584971425371000,6.229370849609375,-0.007357248570770025,-0.06630365550518036,-0.009492038749158382
1759584971435355000,6.23935498046875,-0.012148009613156319,-0.05866491049528122,-0.026337863877415657
1759584971445339000,6.2493388671875,-0.002238120650872588,-0.053227003663778305,-0.03527090698480606
1759584971455323000,6.259322998046875,0.004062652122229338,-0.040712274610996246,-0.03792154788970947
1759584971465308000,6.269307861328125,0.0032237565610557795,-0.014700116589665413,-0.026741066947579384
1759584971475292000,6.2792919921875,0.00965395849198103,0.0012775183422490954,-0.020656010136008263
1759584971485276000,6.28927587890625,0.002295911079272628,0.017617875710129738,-0.007523696403950453
1759584971495261000,6.299260986328125,-0.0059510995633900166,0.0049524144269526005,0.008557269349694252
1759584971505245000,6.309244873046875,-0.009767143055796623,0.006708502769470215,0.007488276343792677
