time,seconds_elapsed,z,y,x
1757768765232966100,42.56796606445312,1.7571943809509276,11.065102247619627,-1.7105074485778808
1757768765242923000,42.57792309570313,2.1601684478759764,10.808324119567873,-1.4112322410583495
1757768765252879000,42.58787915039063,2.6363153030395505,10.611999583435058,-0.8466495620727539
1757768765262836200,42.59783618164062,3.0705636291503904,10.367042826080322,-0.1212064590454101
1757768765272793000,42.60779296875,3.352630512237549,9.989507151794433,0.5114613296508789
1757768765282750200,42.61775024414062,3.42849677734375,9.545382743835448,0.9328408218383788
1757768765292706000,42.6277060546875,3.283946852111816,9.135226071929932,1.10462479095459
1757768765302663200,42.6376630859375,2.956689412689209,8.799888201904297,1.1079168182373047
1757768765312620300,42.64762036132812,2.3018752586364744,8.46499924468994,0.8607154968261719
1757768765322576100,42.657576171875,1.8091186294555663,8.211662781524657,0.5502174690246582
1757768765332533200,42.667533203125,1.424998900604248,8.046163591766357,0.2579752288818359
1757768765342490000,42.67748999023438,1.215506255340576,7.977479931640625,-0.0113724578857421
1757768765352447000,42.68744702148437,1.1706149742126464,7.920318367004394,-0.2638110954284667
1757768765362403000,42.697403076171874,1.261594637298584,7.826645227050781,-0.534355883026123
1757768765372360200,42.70736010742188,1.3150152618408202,7.707384056854248,-0.8019079185485839
1757768765382317000,42.71731713867187,1.3497311859130858,7.7593083053588865,-1.045667575073242
1757768765392273200,42.72727319335937,1.4475941787719726,7.952789727020263,-1.2158055305480957
1757768765402230000,42.73722998046875,1.3805565322875977,8.112153775024414,-1.471536195373535
1757768765412187100,42.74718725585937,1.282693539428711,8.283788106536864,-1.7028759307861328
1757768765422144300,42.75714428710938,1.1703156990051269,8.347084812927246,-1.9984101982116695
1757768765432100000,42.76710009765625,1.1475707832336426,8.38838479156494,-2.199074224853516
1757768765442057200,42.77705712890625,1.1430816551208496,8.538620945739746,-2.265214045715332
1757768765452014000,42.78701416015625,1.1251251426696776,8.658779941558837,-2.3671172538757324
1757768765461971000,42.79697094726563,1.2250830619812012,8.783278427886962,-2.463633508300781
1757768765471927000,42.80692700195313,1.3875894996643066,8.876502655029297,-2.533963182067871
1757768765481884000,42.8168837890625,1.616535033416748,8.875155916595459,-2.6460417472839355
1757768765491841000,42.82684106445313,1.9182044425964355,8.838644341278076,-2.761861252593994
1757768765501797000,42.83679711914063,2.083254719543457,8.734197293853759,-2.835333316040039
1757768765511754000,42.84675390625,2.282572007751465,8.665812908935546,-2.846256861114502
1757768765521711000,42.85671118164063,2.396745499420166,8.59892490005493,-2.7157728706359863
1757768765531668200,42.86666821289062,2.436549102020264,8.577676360321044,-2.4425346061706543
1757768765541624000,42.8766240234375,2.320729596710205,8.645761470031738,-2.086546746826172
1757768765551581200,42.886581298828126,2.429815409851074,8.986037380981445,-1.6252140144348144
1757768765561538300,42.89653833007812,2.4473230094909666,9.623643210601806,-1.0640730003356933
1757768765571494100,42.906494140625,2.386420504760742,10.4824134185791,-0.4502595497131347
1757768765581451300,42.916451171875,2.546083827972412,11.32547167816162,0.1599625984191894
1757768765591408000,42.926408203125,2.999785042572021,11.81807866973877,0.6603507453918457
1757768765601365000,42.93636499023437,3.4712931320190425,12.048969492340088,0.870142665863037
1757768765611321000,42.94632104492187,3.7783494949340817,12.274622998809814,0.9796773918151856
1757768765621278000,42.95627783203125,3.8070799148559566,12.45628304977417,1.0277110626220702
1757768765631235000,42.96623510742187,3.625719139099121,12.484265281677246,0.9310451705932616
1757768765641192200,42.97619213867188,3.332130160522461,12.328791811370849,0.6114192489624023
1757768765651148000,42.98614794921875,3.0002339553833006,12.121244454956054,0.2317886482238769
1757768765661105200,42.99610522460937,2.6273370468139645,11.85608662109375,-0.0885854614257812
1757768765671062300,43.006062255859376,2.297086855316162,11.443685385131836,-0.3299509162902831
1757768765681018000,43.01601806640625,2.1257517990112302,10.952724407196044,-0.4510077377319336
1757768765690975200,43.02597534179687,2.1062989105224608,10.484807620239255,-0.4100070343017578
1757768765700932000,43.03593212890625,2.248304996490478,10.154108515930176,-0.328753815460205
1757768765710889200,43.04588916015625,2.440140404510498,9.981277083587646,-0.2838625343322754
1757768765720845300,43.05584521484375,2.492513565826416,10.09350528640747,-0.3326443931579589
1757768765730802200,43.06580224609375,2.39420166015625,10.425251853942871,-0.4450222335815429
1757768765740759000,43.07575903320313,2.204461178588867,10.96783780517578,-0.5436334144592285
1757768765750715100,43.08571508789063,1.9161095161437989,11.438896981811522,-0.634014527130127
1757768765760672000,43.09567211914062,1.5753846923828123,11.726949369049072,-0.6536170532226562
1757768765770629000,43.10562915039063,1.43008657913208,11.87538987197876,-0.5316624061584473
1757768765780586000,43.1155859375,1.4178162956237792,11.863418863677978,-0.4287117347717284
1757768765790542000,43.1255419921875,1.5484499237060545,11.943175706481933,-0.2681505859374999
1757768765800499200,43.135499267578126,1.6952444129943849,12.095357149505617,-0.1292868896484375
1757768765810456000,43.1454560546875,1.7090110725402832,11.941978605651856,-0.1080383499145507
1757768765820412200,43.155412109375,1.6792331893920898,11.50398933944702,-0.2109890213012695
1757768765830369300,43.165369384765626,1.7459715606689452,10.844087506866456,-0.2941875289916992
1757768765840326100,43.175326171875,1.8376994117736816,10.173860679626465,-0.2097919204711913
1757768765850283300,43.185283203125,1.8891747474670408,9.539995790100097,0.0697311233520507
1757768765860239000,43.19523901367187,1.9274819740295408,8.912415679931641,0.3684077804565429
1757768765870196200,43.2051962890625,1.8598457771301269,8.091803060913085,0.5452794281005859
1757768765880153000,43.21515307617187,1.5491981117248534,7.211485037994384,0.6241384452819824
1757768765890109200,43.22510913085937,1.2201450210571287,6.688501612854004,0.6136638130187988
1757768765900066000,43.235066162109376,1.0666168395996094,6.551134292602539,0.5786486137390137
1757768765910023200,43.24502319335937,0.9060556907653808,6.506991199493408,0.4520552009582519
1757768765919980000,43.25497998046875,0.7131728195190429,6.488735411834717,0.2498947982788086
1757768765929935000,43.26493505859375,0.5213374114990235,6.555773058319091,0.0849941589355468
1757768765939892000,43.27489208984375,0.4480149856567382,6.719177321624756,-0.0623988807678222
1757768765949849000,43.28484912109375,0.5023334358215332,7.010671373748779,-0.225354231262207
1757768765959805000,43.29480493164063,0.594959112548828,7.318924837493896,-0.4332008628845215
1757768765969762000,43.30476196289062,0.6947673942565917,7.615506568145752,-0.5989993278503417
1757768765979719200,43.31471923828125,0.6904279037475586,7.843404638671874,-0.7824550300598144
1757768765989676000,43.32467602539062,0.6299743118286133,7.96131907043457,-0.9718962364196776
1757768765999632100,43.33463208007812,0.591218172454834,7.982567610168457,-1.181688156890869
1757768766009589200,43.34458935546875,0.6757634185791015,8.043919027709961,-1.3268366325378418
1757768766019546000,43.35454614257812,0.7221510757446289,8.231265307617187,-1.4814122772216796
1757768766029502200,43.36450219726562,0.790385823059082,8.482806119537353,-1.6461632789611815
1757768766039459000,43.374458984375,0.8839093254089355,8.773551983642578,-1.8118121063232424
1757768766049416200,43.38441625976562,1.0019733947753906,8.902689235687255,-2.021304751586914
1757768766059373000,43.394373046875,1.150413897705078,9.068338063049316,-2.1262007118225097
1757768766069329000,43.40432885742187,1.338209090423584,9.374047687530515,-2.155679319763184
1757768766079286000,43.4142861328125,1.460313375091553,9.775824653625488,-2.0965724662780763
1757768766089243100,43.4242431640625,1.6247651016235352,10.08737014465332,-2.0513819099426267
1757768766099199000,43.43419897460937,1.8288707931518555,10.249876582336425,-2.0343232231140136
1757768766109156000,43.44415600585938,2.1452046875,10.204985301208495,-2.0459949562072755
1757768766119113000,43.45411303710937,2.6032453926086423,10.004620549774168,-2.0376152503967284
1757768766129070000,43.464070068359376,2.9939491760253905,9.859621711730956,-2.020706201171875
1757768766139026200,43.47402612304688,3.244292887115478,9.772083713531494,-2.000804399871826
1757768766148983000,43.48398315429687,3.3680431854248045,9.880421338653564,-2.033575035095214
1757768766158940200,43.49394018554688,3.3906384635925293,10.362703335571288,-2.033126122283936
1757768766168896000,43.50389599609375,3.2607530235290527,11.301828936767578,-2.069787335205078
1757768766178853000,43.51385302734375,2.864063735961914,12.297966464996335,-2.302324171447754
1757768766188810000,43.52381005859375,2.3108535148620604,12.723236534881591,-2.7105355545043945
1757768766198766000,43.53376611328125,1.8504186080932616,12.440122188568116,-3.0150480781555173
1757768766208723000,43.54372290039063,1.7193360671997069,12.028768415832518,-3.0328549530029294
1757768766218680000,43.55368017578125,1.811213555908203,12.160599144744872,-2.7808652282714843
1757768766228637000,43.56363696289063,1.8116624687194824,12.5762924079895,-2.563890702819824
1757768766238593000,43.573593017578126,1.7450737350463863,12.505962734222411,-2.481590020751953
1757768766248550100,43.58355004882812,1.7890671905517577,11.749095734405516,-2.418143676757812
1757768766258507000,43.593507080078126,2.0979192047119137,10.580575686645508,-2.201169151306152
1757768766268463000,43.603463134765626,2.54084651184082,9.473107781219484,-1.790713204193115
1757768766278420000,43.613419921875,2.9028198753356933,8.645162919616698,-1.259050798034668
1757768766288377000,43.623377197265626,3.114557084655761,8.226027991485596,-0.7278373046875
1757768766298334200,43.63333422851562,3.0635306617736813,8.233659509277343,-0.2415150924682617
1757768766308290000,43.6432900390625,2.861819171905517,8.658331028747558,0.1107318267822265
1757768766318247200,43.6532470703125,2.517951958465576,9.317933586120605,0.1521814430236816
1757768766328204000,43.6632041015625,2.0962731910705563,10.076147324371338,-0.048482583618164
1757768766338160000,43.67316015625,1.6865654319763184,10.677540853881837,-0.4074631950378418
1757768766348117000,43.68311694335937,1.4437036010742186,11.046547184753416,-0.783352855682373
1757768766358074000,43.69307421875,1.389235513305664,11.117924321746823,-1.0793360359191897
1757768766368031000,43.70303100585937,1.5560814414978026,11.011232710266112,-1.2822446266174317
1757768766377987000,43.71298706054687,1.833659196472168,10.846631346130373,-1.3060370056152344
1757768766387944000,43.72294384765625,2.117222455596924,10.5858130027771,-1.2173019065856934
1757768766397901000,43.73290112304687,2.2948422912597657,10.184484949493408,-1.0232219345092772
1757768766407857200,43.74285717773437,2.334196981048584,9.695319622802732,-0.828693049621582
1757768766417814000,43.75281396484375,2.213289797210693,9.191489810943605,-0.6676829879760742
1757768766427771100,43.76277124023437,2.012925045776367,8.68242268295288,-0.5835866546630859
1757768766437727000,43.77272705078125,1.7797896591186522,8.19759684677124,-0.5629366653442383
1757768766447684000,43.78268408203125,1.534832901763916,7.846846303558349,-0.5641337661743163
1757768766457641200,43.79264111328125,1.291671795654297,7.491307357025146,-0.6602011077880859
1757768766467598000,43.80259814453125,1.127519344329834,7.206098084259032,-0.7927800247192383
1757768766477554200,43.81255419921875,1.090558856201172,7.069628589630127,-0.9328408218383788
1757768766487511000,43.822510986328126,1.1857283721923828,7.141305001831054,-1.024718310546875
1757768766497468000,43.83246801757812,1.260247898864746,7.334487148284912,-1.0603320602416992
1757768766507424000,43.84242407226562,1.298555125427246,7.458087808990478,-1.2204442962646485
1757768766517381000,43.852381103515626,1.3201029403686522,7.570764924621582,-1.3970166687011718
1757768766527338000,43.862337890625,1.3175591011047365,7.800608283996581,-1.5140332748413086
1757768766537295000,43.872295166015626,1.2961609237670897,8.148366075134277,-1.5925930168151854
1757768766547251000,43.8822509765625,1.2783540489196776,8.407688042449951,-1.648557480621338
1757768766557208000,43.8922080078125,1.1704653366088866,8.5800705619812,-1.7290625114440916
1757768766567165200,43.902165283203125,1.2205939338684082,8.743025912475586,-1.791461392211914
1757768766577121000,43.91212109375,1.3839981971740722,8.93112038040161,-1.774253067779541
1757768766587078100,43.922078125,1.454327870941162,8.998906214904785,-1.8302175315856928
1757768766597035300,43.93203515625,1.6820763038635254,8.964788841247557,-1.9385551567077637
1757768766606991000,43.9419912109375,1.8960580772399904,8.930821105194092,-1.9774609336853024
1757768766616948200,43.9519482421875,2.117372093200684,8.89924757080078,-1.9891326667785645
1757768766626905000,43.96190502929687,2.3273136512756345,8.836699052429198,-2.019958013153076
1757768766636862000,43.97186206054688,2.303521272277832,8.725518312835693,-2.053027923583984
1757768766646818000,43.981818115234375,2.275539040374756,8.630199159240723,-2.0260931549072265
1757768766656775000,43.99177490234375,2.270900274658203,8.605359317016601,-1.9071312599182129
1757768766666732000,44.00173193359375,2.316240468597412,8.656535377502442,-1.7615338714599609
1757768766676688100,44.01168823242188,2.3892636192321777,8.86153889465332,-1.5472528228759763
1757768766686645000,44.02164501953125,2.446425183868408,9.223661895751952,-1.2701239807128906
1757768766696602000,44.03160205078125,2.6038439430236813,9.848548529052731,-0.8680477394104004
1757768766706558000,44.04155786132812,2.6599580444335937,10.500818843841552,-0.4185363777160644
1757768766716515000,44.05151513671875,2.820519193267822,11.17239240951538,-0.0073322425842285
1757768766726472200,44.06147216796875,2.953846298217773,11.800720707702636,0.2970306434631347
1757768766736429000,44.071428955078126,3.008912936401367,12.273874810791014,0.5452794281005859
1757768766746385200,44.08138525390625,3.036146980285644,12.581230448913573,0.7300818687438965
1757768766756342300,44.09134228515625,3.021781770324707,12.80643504257202,0.79801734085083
1757768766766299100,44.101299072265626,2.964919480895996,13.04854868545532,0.7668927192687988
1757768766776255200,44.111255126953125,2.929754644012451,13.14596276550293,0.6675333503723144
1757768766786211800,44.1212119140625,2.860921346282959,12.893075215148926,0.522235237121582
1757768766796169000,44.1311689453125,2.928258267974853,12.236764685058594,0.4680664245605468
1757768766806125000,44.141125,3.0705636291503904,11.368118395233154,0.4061164566040038
1757768766816082000,44.15108203125,3.243843974304199,10.600627125549316,0.316633169555664
1757768766826039000,44.1610390625,3.4100913520812988,10.001777435302731,0.1438017372131347
1757768766835996200,44.17099609375,3.4362779327392574,9.65865840988159,-0.0046387657165527
1757768766845952000,44.18095190429688,3.317764950561523,9.630975453186034,-0.1378162330627441
1757768766855909000,44.1909091796875,3.0602386344909664,9.911845235443115,-0.1268926879882812
1757768766865866200,44.2008662109375,2.678812382507324,10.335768566894531,-0.0314238967895507
1757768766875822000,44.210822021484375,2.2905028007507324,10.82179150390625,0.1056441482543945
1757768766885779200,44.220779296875,2.0216040267944333,11.27594163131714,0.2741360900878906
1757768766895736000,44.230736083984375,1.9470845001220705,11.50488716506958,0.3637690147399902
1757768766905692200,44.24069213867188,2.0376152503967284,11.629834564208984,0.4206313041687011
1757768766915649300,44.25064916992188,2.2272060943603518,11.623849060058593,0.3404255485534668
1757768766925606700,44.26060668945313,2.431012510681152,11.538555625915526,0.2289455337524414
1757768766935563500,44.2705634765625,2.5200468849182127,11.546486418914794,0.1837549774169921
1757768766945519600,44.28051953125,2.593967861175537,11.445032123565673,0.1776198356628417
1757768766955476500,44.2904765625,2.562843239593506,11.152640245819091,0.1963245361328124
1757768766965433600,44.30043359375,2.3882161560058592,10.586411553192136,0.1714846939086914
1757768766975389700,44.3103896484375,2.1721394561767577,9.98531729888916,0.0724246002197265
1757768766985346600,44.3203466796875,2.060958716583252,9.445873737335203,-0.0496796844482421
1757768766995303700,44.3303037109375,1.9960159965515136,8.905681987762451,-0.1023521209716796
1757768767005260800,44.3402607421875,1.6202759735107422,8.388085516357421,-0.143652099609375
1757768767015216600,44.35021655273437,1.369483349609375,7.986009275054931,-0.1964741737365722
1757768767025173800,44.360173828125,1.2301707405090332,7.6470801025390625,-0.2729389892578124
1757768767035130600,44.37013061523437,1.1149497856140136,7.389853061676025,-0.3227683113098144
1757768767045086700,44.38008666992187,1.0326491035461425,7.177666939544677,-0.3972878379821777
1757768767055043600,44.39004370117188,1.12377840423584,7.002890218353271,-0.462230558013916
1757768767065000400,44.40000048828125,1.1703156990051269,6.92657504043579,-0.5729623847961426
1757768767074956500,44.40995654296875,1.2081740127563476,6.943184814453125,-0.6842927619934082
1757768767084913700,44.41991357421875,1.25770405960083,7.023689845275879,-0.8138789268493651
1757768767094870500,44.42987060546875,1.2141595169067383,7.033865202331542,-0.9843161575317382
1757768767104827600,44.43982763671875,1.1975497428894042,7.062894897460937,-1.1448773063659667
1757768767114783500,44.44978344726562,1.1092635566711424,6.941389163208007,-1.30229606552124
1757768767124740600,44.45974072265625,1.121683477783203,6.832303350067138,-1.3685855239868163
1757768767134697700,44.46969775390625,1.216852993774414,6.858041017913818,-1.4324807807922362
1757768767144653600,44.47965356445312,1.2578536972045895,6.855197903442383,-1.4841057540893554
1757768767154610700,44.48961059570313,1.2798504249572753,6.960542776489257,-1.5671546241760252
1757768767164567800,44.49956787109375,1.418115570831299,7.182904255676269,-1.6490063934326171
1757768767174523600,44.50952368164062,1.389983701324463,7.503876915740967,-1.7839795120239257
1757768767184480800,44.51948071289063,1.527051746368408,7.957278855133056,-1.919850456237793
1757768767194437400,44.52943725585938,1.7124527374267575,8.721328459930419,-2.0163667106628416
1757768767204394500,44.53939453125,1.8939631507873531,9.67227543182373,-2.185157927703857
1757768767214350600,44.5493505859375,1.9898808547973632,10.491990225219729,-2.455253802490234
1757768767224307500,44.55930737304688,2.13278476638794,10.78872159347534,-2.851045264434814
1757768767234264600,44.5692646484375,2.385373041534424,10.618733275604248,-3.1051299156188965
1757768767244220700,44.579220703125,2.706345701599121,10.194510668945313,-3.01923793106079
1757768767254177500,44.58917749023438,3.1274259185791013,9.803208335113524,-2.7908909477233883
1757768767264134700,44.599134765625,3.5085528953552245,9.579799392700195,-2.5942671363830563
1757768767274090500,44.60909057617187,3.789123402404785,9.591171850585935,-2.4774001678466795
1757768767284047600,44.61904760742188,3.8798037902832023,10.03529625854492,-2.420088965606689
1757768767294004700,44.62900463867187,3.822642225646972,10.816554187774658,-2.481590020751953
1757768767303961600,44.63896166992188,3.556736203765869,11.595118640136718,-2.6683377502441403
1757768767313917700,44.648917724609376,3.1262288177490234,12.003330023193358,-3.037643356323242
1757768767323874800,44.65887475585937,2.8459575859069823,12.10493395614624,-3.3062428550720213
1757768767333831400,44.66883154296875,2.693476867675781,12.375179468536375,-3.3647511581420897
1757768767343787800,44.67878784179688,2.52139362335205,12.790423818969726,-3.3756747032165526
1757768767353744400,44.68874438476563,2.3151930053710936,12.784587952423095,-3.3592145668029785
1757768767363701500,44.69870141601562,2.2183774757385253,11.77318738861084,-3.2390555709838864
1757768767373658600,44.70865869140625,2.448220835113525,10.23341644592285,-2.8975825592041016
1757768767383614500,44.71861450195313,2.91763399810791,8.872911352539061,-2.3714567443847656
1757768767393571600,44.72857153320312,3.3086370567321777,7.998279558563232,-1.6885107208251953
1757768767403528700,44.73852880859375,3.453186981964111,7.6614453125,-0.9548375495910644
1757768767413484500,44.74848461914063,3.356221814727783,7.809885815429687,-0.3172317199707031
1757768767423441700,44.75844165039062,3.0633810241699218,8.473827863311767,0.0351648368835449
1757768767433398800,44.76839868164063,2.8206688308715817,9.401730644226074,-0.007631517791748
1757768767443354600,44.778354736328126,2.4429835189819333,10.537928969573974,-0.3781342247009277
1757768767453311700,44.78831176757812,1.995118170928955,11.485733551788329,-0.9578303016662596
1757768767463268600,44.7982685546875,1.5409680435180664,11.799822882080075,-1.553387964630127
1757768767473225500,44.8082255859375,1.3563152404785157,11.563395468139648,-1.9557634811401363
1757768767483181800,44.81818188476562,1.460762287902832,11.23598839111328,-2.0082862800598145
1757768767493138400,44.82813842773437,1.785176612854004,11.067945362091065,-1.8101660926818848
1757768767503095600,44.83809545898438,2.150890916442871,10.834959613037109,-1.512536898803711
1757768767513051400,44.84805151367188,2.4307132354736325,10.480468129730223,-1.160738892364502
1757768767523008500,44.85800854492187,2.633023275756836,10.01778865890503,-0.8713397666931152
1757768767532965600,44.86796557617188,2.68120658416748,9.518447975158692,-0.6742670425415038
1757768767542922800,44.8779228515625,2.593369310760498,9.044545684051512,-0.51714755859375
1757768767552878600,44.88787866210937,2.360832474517822,8.628702783203124,-0.4800374328613281
1757768767562835700,44.897835693359376,2.0591630653381348,8.335712355041503,-0.5078700271606446
1757768767572792600,44.90779248046875,1.6837223175048828,8.086266469573975,-0.6622960342407226
1757768767582748700,44.91774877929687,1.3652934967041015,7.849390142822265,-0.9195230751037596
1757768767592705800,44.92770581054688,1.2069769119262694,7.732223899078368,-1.183034895324707
1757768767602662700,44.93766259765625,1.1650783828735352,7.65501089553833,-1.4969745880126952
1757768767612619500,44.94761962890625,1.3148656242370604,7.678354361724853,-1.7326538139343262
1757768767622575600,44.95757568359375,1.5173253021240234,7.947552410888671,-1.8037316757202144
1757768767632532500,44.96753247070313,1.695094775390625,8.118438554382324,-1.859247226715088
1757768767642489600,44.97748950195312,1.913266401672363,8.168866426849364,-1.913416039276123
1757768767652445400,44.98744555664062,2.026841342926025,8.251316746520995,-2.0444985801696776
1757768767662402600,44.99740258789063,2.0024504135131838,8.423699266052246,-2.127248175048828
1757768767672359700,45.00735961914062,1.9984101982116695,8.602067289733887,-2.204461178588867
1757768767682315500,45.0173154296875,2.015468885040283,8.763825539398193,-2.2723966506958004
1757768767692272600,45.027272705078126,1.8849848945617675,8.817545439147949,-2.314295179748535
1757768767702229800,45.03722973632812,1.898003366088867,8.806621894073485,-2.3403321228027343
1757768767712186600,45.0471865234375,2.0986673927307127,8.73943460998535,-2.2839187461853028
1757768767722142700,45.057142822265625,2.179621336364746,8.656535377502442,-2.1920412574768067
1757768767732099600,45.067099609375,2.36247848815918,8.595183959960938,-2.1158757171630858
1757768767742056700,45.077056640625,2.5082255142211918,8.555829270172119,-2.014870334625244
1757768767752012800,45.0870126953125,2.590825471496582,8.521711896514892,-1.90279176940918
1757768767761969700,45.0969697265625,2.6560674667358395,8.51018980102539,-1.872116060638428
1757768767771926500,45.10692651367187,2.663998259735107,8.525303199005126,-1.7892168281555174
1757768767781883600,45.11688354492188,2.615066763305664,8.526350662231446,-1.7000328163146972
1757768767791839500,45.126839599609376,2.620752992248535,8.596231423187255,-1.518672040557861
1757768767801796600,45.13679663085937,2.711283742523193,8.744971201324462,-1.2753612968444823
1757768767811753500,45.14675341796875,2.749890244293213,9.09721812057495,-0.9771335525512694
1757768767821709600,45.15670947265625,2.8089970977783203,9.664643914031982,-0.6720224784851074
1757768767831666700,45.16666674804687,2.91763399810791,10.294019675445556,-0.3562871345520019
1757768767841623600,45.17662353515625,3.1393969268798827,10.740538285064696,-0.1168669685363769
1757768767851580700,45.18658056640625,3.394977954101562,11.05028812484741,-0.0585083030700683
1757768767861536500,45.19653662109375,3.5761890922546384,11.343577828216551,-0.0311246215820312
1757768767871493600,45.20649365234375,3.6127006675720215,11.678466785430908,0.0059855041503906
1757768767881450800,45.21645068359375,3.554491639709473,12.013655017852782,-0.0453401939392089
1757768767891407600,45.22640771484375,3.437475033569336,12.163292621612548,-0.1761234596252441
1757768767901363700,45.23636376953125,3.2570120834350584,12.096554250335693,-0.194678522491455
1757768767911320600,45.24632055664063,3.1000422370910643,11.872995670318604,-0.0996586441040039
1757768767921277400,45.25627734375,3.014898440551758,11.4278237991333,0.1370680450439453
1757768767931233800,45.26623388671875,2.970007159423828,10.870872637939453,0.4511573753356933
1757768767941191000,45.27619091796875,3.039439007568359,10.277110626220702,0.7390601249694824
1757768767951148000,45.28614794921875,3.2261867370605466,9.757868141174315,0.8740332435607909
1757768767961104000,45.29610375976562,3.469048567962646,9.484031326293945,0.8542810798645019
1757768767971061000,45.30606103515625,3.5998318336486816,9.572616787719726,0.7312789695739745
1757768767981018000,45.31601806640625,3.535188388824462,9.926360083007811,0.598251139831543
1757768767990975000,45.32597509765625,3.215562467193603,10.365995362854004,0.4661211357116699
1757768768000931000,45.33593115234375,2.843563384246826,10.704625260162352,0.3348889572143554
1757768768010888000,45.34588793945313,2.533963182067871,10.997166775512694,0.2720411636352539
1757768768020845000,45.35584497070312,2.383278115081787,11.128249316406247,0.245106394958496
1757768768030802000,45.36580200195313,2.395698036193848,11.097573607635498,0.2436100189208984
1757768768040758000,45.37575805664063,2.4343045379638677,11.208006159210203,0.2549824768066406
1757768768050715000,45.38571484375,2.562543964385986,11.448473788452148,0.2005143890380859
1757768768060672000,45.39567211914063,2.7263971405029297,11.666944689941406,0.1108814643859863
1757768768070627800,45.4056279296875,2.7234043884277344,11.725602630615231,-0.0742202514648437
1757768768080585000,45.4155849609375,2.723105113220215,11.60035595626831,-0.2216132911682128
1757768768090541800,45.42554174804688,2.583044316101074,11.243769546508789,-0.3839700912475586
1757768768100499000,45.4354990234375,2.456001990509033,10.645967319488523,-0.5559036979675293
1757768768110455000,45.445455078125,2.4269722953796387,9.950002824401857,-0.6790554458618163
1757768768120412000,45.455411865234375,2.2711995498657225,9.325265828704833,-0.699705435180664
1757768768130369000,45.465369140625,1.974617819213867,8.79090994567871,-0.7133224571228027
1757768768140325000,45.4753251953125,1.5966332321166992,8.332569965362548,-0.778265177154541
1757768768150282000,45.485281982421874,1.2810475257873537,7.96760384979248,-0.840813695526123
1757768768160239000,45.49523901367188,1.0305541770935058,7.675211972045898,-0.903362213897705
1757768768170196000,45.505196044921874,0.8608651344299316,7.3943421897888175,-0.939125601196289
1757768768180152000,45.515152099609374,0.8313865264892578,7.196371640014648,-0.9687538467407226
1757768768190109000,45.52510888671875,0.9003694618225098,7.10539197692871,-1.0030208580017088
1757768768200065800,45.53506567382812,1.0335469291687012,7.023240932464599,-1.0443208366394043
1757768768210022000,45.54502197265625,1.0479121391296389,6.974159798431396,-1.0874164665222168
1757768768219979000,45.55497900390625,1.0166378799438476,6.934954746246338,-1.1611878051757811
1757768768229935900,45.56493579101563,1.0919055946350098,6.823923644256592,-1.2702736183166503
1757768768239893000,45.57489306640625,1.190666413116455,6.830058786010742,-1.3271359077453613
1757768768249848800,45.58484887695312,1.269076517486572,6.819584153747559,-1.3869909492492676
1757768768259806000,45.59480590820313,1.3829507339477538,6.80551821899414,-1.4778209747314452
1757768768269763000,45.60476318359375,1.3801076194763182,6.746710640716552,-1.662473777770996
1757768768279720200,45.61472021484375,1.4706383697509764,6.729801591491698,-1.8543091857910157
1757768768289676000,45.62467602539063,1.462557939147949,6.787412068939209,-1.9786580345153808
1757768768299633200,45.634633056640624,1.3904326141357422,6.970568495941162,-2.121412308502197
1757768768309589800,45.64458984375,1.541117681121826,7.361721192169189,-2.2815245445251464
1757768768319546000,45.65454614257813,1.7185878791809082,8.053795109558106,-2.4166473007202147
1757768768329503000,45.6645029296875,1.870918959808349,8.924087413024901,-2.5918729347229004
1757768768339459800,45.6744599609375,2.025793879699707,9.763554370117188,-2.850446714019775
1757768768349417000,45.6844169921875,2.2164321868896484,10.295366413879394,-3.180696905517578
1757768768359372800,45.69437280273438,2.442085693359375,10.34175407104492,-3.440467785644531
1757768768369330000,45.70432983398437,2.7268460533142087,10.001627797698974,-3.462913426208496
1757768768379287000,45.714287109375,3.047369800567626,9.632920742034912,-3.3451486320495603
1757768768389243000,45.72424291992188,3.3475428337097166,9.426570486450196,-3.3180642257690427
1757768768399200000,45.734199951171874,3.6221278366088874,9.510966094970705,-3.3833062210083007
1757768768409157000,45.7441572265625,3.725677058410645,9.97274774017334,-3.5377322280883785
1757768768419114000,45.754114013671874,3.713257137298584,10.707917287445069,-3.739593355560303
1757768768429070000,45.76407006835937,3.531896361541748,11.54888062057495,-3.970633815765381
1757768768439027000,45.77402685546875,3.193565739440918,12.044779639434816,-4.221725714874268
1757768768448983800,45.78398388671875,2.858227869415283,12.080842301940915,-4.32243182220459
1757768768458940000,45.79393994140625,2.6144682128906247,12.199056008911132,-4.229656507873535
1757768768468896800,45.803896728515625,2.3870190551757813,12.81930387649536,-4.183119213104248
1757768768478854000,45.81385400390625,2.0211551139831543,13.156587035369872,-4.292205026245117
1757768768488811000,45.82381103515625,1.6979378898620603,12.16957740097046,-4.371363318634033
1757768768498766800,45.83376684570312,1.734599102783203,10.29835916595459,-4.101716356658935
1757768768508724000,45.84372387695313,2.1513398292541503,8.827571158599852,-3.538929328918457
1757768768518681000,45.85368115234375,2.5866356185913086,8.151358827209473,-2.839822444152832
1757768768528638000,45.86363793945313,2.71352830657959,8.099584216308592,-2.1019594200134275
1757768768538594000,45.87359399414063,2.542193250274658,8.575731071472168,-1.504606105804443
1757768768548551000,45.883551025390624,2.2206220397949217,9.41011035003662,-1.208473287963867
1757768768558508000,45.89350805664063,1.8468273056030275,10.35626891860962,-1.2065279991149902
1757768768568464100,45.90346411132813,1.463904677581787,11.136030471801757,-1.4113818786621093
1757768768578421000,45.9134208984375,1.1999439445495603,11.47181725463867,-1.7504606887817382
1757768768588377900,45.9233779296875,1.1987468437194824,11.310059004974365,-2.0198083755493164
1757768768598335000,45.9333349609375,1.276259122467041,10.990881996154783,-2.038662713623047
1757768768608290800,45.94329077148438,1.5058032066345215,10.746972702026367,-1.750011775970459
1757768768618248000,45.953248046875,1.85131643371582,10.53388875427246,-1.3091793952941897
1757768768628205000,45.963205078125,2.2254104431152344,10.301501555633545,-0.8072948722839355
1757768768638162000,45.97316186523437,2.5062802253723144,9.963021295928954,-0.378583137512207
1757768768648118000,45.983117919921874,2.766200743103027,9.53745195083618,-0.1925835960388183
1757768768658075000,45.99307495117188,2.7645547294616697,9.100210872650146,-0.1868973670959472
1757768768668032000,46.003031982421874,2.664896085357666,8.718036432647704,-0.2832639839172363
1757768768677988000,46.01298803710937,2.3235727111816407,8.423399990844725,-0.4531026641845703
1757768768687945000,46.02294506835938,1.9551649307250976,8.194005544281005,-0.6429927833557129
1757768768697902000,46.03290209960937,1.678335363769531,8.084919731140136,-0.8010100929260253
1757768768707859000,46.04285888671875,1.5536872398376464,8.041973738861083,-0.9124901077270507
1757768768717815000,46.05281494140625,1.5004162528991698,7.998878108978271,-1.0365396812438965
1757768768727772000,46.06277197265625,1.49383219833374,8.096142551422119,-1.1694178733825682
1757768768737728800,46.07272875976562,1.5524901390075685,8.26732797012329,-1.3027449783325196
1757768768747684900,46.08268481445312,1.5480010108947753,8.379556172943115,-1.4776713371276855
1757768768757642000,46.09264208984375,1.5286977600097655,8.445247080993651,-1.6578350120544432
1757768768767598800,46.10259887695312,1.4191630340576171,8.522609722137451,-1.820940000152588
1757768768777556000,46.11255590820313,1.3124714225769043,8.642619080352782,-1.9297265380859372
1757768768787512000,46.12251196289063,1.1821370697021485,8.731952729797364,-2.02354931564331
1757768768797469000,46.13246899414062,1.100584575653076,8.837596878051757,-2.020406925964356
1757768768807426000,46.14242602539063,1.016787517547607,8.794351610565185,-2.053027923583984
1757768768817383200,46.15238305664062,0.992097312927246,8.74601866455078,-2.117372093200684
1757768768827339000,46.16233911132812,1.2057798110961913,8.716988969421386,-2.108543474578857
1757768768837296000,46.172296142578126,1.3564648780822752,8.71384657974243,-2.149394540405273
1757768768847252700,46.18225268554688,1.499069514465332,8.694244053649902,-2.2034137153625486
1757768768857209000,46.192208984375,1.6766893501281737,8.65159733657837,-2.292597727203369
1757768768867166000,46.202166015625,1.8017863868713375,8.61269155960083,-2.392256371307373
1757768768877122800,46.21212280273438,1.8736124366760247,8.67598826599121,-2.504334936523437
1757768768887080000,46.22207983398437,1.9090765487670895,8.716988969421386,-2.6038439430236813
1757768768897035800,46.232035888671874,1.971625067138672,8.729708165740966,-2.678213832092285
1757768768906993000,46.24199291992188,2.2212205902099607,8.733598743438721,-2.6405051559448243
1757768768916950000,46.25194995117187,2.3397335723876957,8.833706300354004,-2.4064719436645507
1757768768926905300,46.2619052734375,2.6123732864379883,9.248501737976074,-2.0910358749389646
1757768768936862500,46.271862548828125,2.883815899658203,9.891195246124267,-1.7949030570983886
1757768768946819300,46.2818193359375,3.1821932815551754,10.58476553955078,-1.5345336265563965
1757768768956776400,46.2917763671875,3.5571851165771484,11.067945362091065,-1.4446014266967773
1757768768966732300,46.30173217773437,3.980509897613525,11.22491520843506,-1.496525675201416
1757768768976689400,46.311689453125,4.323030372619629,11.380089403533937,-1.520168416595459
1757768768986646500,46.321646484375,4.30941335067749,11.70255843963623,-1.3648445838928225
1757768768996603100,46.33160302734375,4.0261493667602535,11.782913832855224,-1.1243769546508788
1757768769006559500,46.3415595703125,3.6743513603210447,11.550077721405028,-0.9521440727233886
1757768769016516400,46.35151635742187,3.424606199645996,11.25603983001709,-0.7691372833251953
1757768769026473200,46.36147314453125,3.306542130279541,11.054627615356443,-0.5897217964172363
1757768769036429300,46.37142919921875,3.1753099517822263,10.800692601776122,-0.493504817199707
1757768769046386400,46.38138647460938,2.963423104858398,10.357765294647216,-0.4487631736755371
1757768769056343300,46.39134326171875,2.817526441192627,9.81936919631958,-0.3945943611145019
1757768769066300400,46.40130053710938,2.737919235992432,9.324517640686034,-0.3845686416625976
1757768769076256300,46.41125634765625,2.762609440612793,8.932766394042968,-0.4447229583740234
1757768769086213400,46.42121337890625,2.8458079483032224,8.74646757736206,-0.5150526321411133
1757768769096170500,46.43117041015625,2.8465561363220213,8.908674739837647,-0.6040870063781738
1757768769106127400,46.44112744140625,2.742857276916504,9.407865785980224,-0.6654384239196777
1757768769116083500,46.45108349609375,2.5739164222717283,9.998934320831298,-0.6670844375610351
1757768769126040600,46.46104052734375,2.383128477478027,10.4954318901062,-0.6664858871459961
1757768769135997200,46.4709970703125,2.2589292663574216,10.80233861541748,-0.6736684921264648
1757768769145953500,46.48095361328125,2.229151383209228,10.946289990234376,-0.6660369743347168
1757768769155910100,46.49091015625,2.2375310890197757,11.089343539428713,-0.6459855354309082
1757768769165867300,46.5008671875,2.2946926536560057,11.321431462860106,-0.6066308456420898
1757768769175824400,46.51082446289063,2.309207501220703,11.49261688156128,-0.6263830093383789
1757768769185780200,46.5207802734375,2.306214749145508,11.623400147247311,-0.6893804405212401
1757768769195737300,46.5307373046875,2.240074928283691,11.48034659805298,-0.8001122673034667
1757768769205694500,46.54069458007813,2.216731462097168,11.00629466934204,-0.9708487731933592
1757768769215651300,46.5506513671875,2.0108301193237303,10.68188034439087,-0.914884309387207
1757768769225607400,46.560607421875,1.8294693435668945,10.295665689086912,-0.8249521095275878
1757768769235564500,46.570564453125,1.946485949707031,9.906458281707764,-0.5910685348510741
1757768769245521400,46.580521484375,1.8369512237548824,9.217377116394042,-0.4150947128295898
1757768769255477500,46.5904775390625,1.649604943847656,8.513481828308105,-0.3477577911376953
1757768769265434400,46.60043432617187,1.3904326141357422,8.033594033050537,-0.3329436683654785
1757768769275391200,46.61039111328125,1.2336124053955078,7.793874591827392,-0.3417722869873046
1757768769285348400,46.62034838867187,1.0875661041259763,7.74374599456787,-0.3312976547241211
1757768769295304200,46.63030419921875,0.8584709327697754,7.808987989807129,-0.2950853546142578
1757768769305261300,46.64026123046875,0.6925228302001952,7.9035589553833,-0.2621650817871093
1757768769315218400,46.65021850585938,0.6325181510925293,7.989750215148925,-0.2575263160705566
1757768769325174300,46.66017431640625,0.7811082916259765,8.061426627349853,-0.2174234382629394
1757768769335131400,46.67013134765625,0.9632172554016112,8.059331700897216,-0.3054103492736816
1757768769345088500,46.68008862304688,1.1363479629516602,8.001122673034667,-0.505625463104248
1757768769355045400,46.69004541015625,1.2119149528503417,7.904307143402099,-0.7679401824951172
1757768769365001500,46.70000146484375,1.1842319961547851,7.719953615570068,-1.0330980163574215
1757768769374958300,46.709958251953125,1.1553519386291504,7.563881594848632,-1.274912384033203
1757768769384915500,46.71991552734375,1.0592845970153808,7.461978386688232,-1.4691419937133787
1757768769394871600,46.72987158203125,0.9427169036865234,7.370250535583495,-1.6148890197753905
1757768769404828400,46.73982836914063,0.9002198242187499,7.285555651855469,-1.746869386291504
1757768769414785300,46.74978540039063,0.9293991569519042,7.216722354125976,-1.8372504989624023
1757768769424742400,46.75974243164063,1.0281599754333497,7.311442957305908,-1.8691233085632324
1757768769434698200,46.7696982421875,1.1299135459899905,7.653364881896972,-1.9167080665588376
1757768769444655400,46.7796552734375,1.2798504249572753,8.192209893035889,-2.026242792510986
1757768769454612200,46.7896123046875,1.4887445198059082,9.069535163879394,-2.161066273498535
1757768769464569300,46.7995693359375,1.7613842338562011,10.032453144073486,-2.3225252479553222
1757768769474525400,46.809525390625,1.8279729675292968,10.587159741210938,-2.6357167526245115
1757768769484482300,46.819482421875,1.9542671051025389,10.558578958892822,-2.9556419494628905
1757768769494439400,46.829439453125,2.1440075866699217,10.390984842681885,-2.971054622650146
1757768769504395500,46.8393955078125,2.38791688079834,10.277709176635742,-2.7240029388427733
1757768769514352400,46.84935229492187,2.6382605918884274,10.180444734191894,-2.4947581298828125
1757768769524309500,46.8593095703125,2.807351084136963,10.005368737792969,-2.1781249603271484
1757768769534266400,46.86926635742188,3.0072669227600097,10.070610733032224,-1.710357810974121
1757768769544222500,46.87922241210938,3.1893758865356445,10.884340022277833,-1.173458088684082
1757768769554179300,46.889179443359374,3.041683571624756,12.181698046875,-0.969801309967041
1757768769564136200,46.89913623046875,2.787748558044433,13.052289625549315,-1.2816460762023925
1757768769574093300,46.90909326171875,2.805555432891845,13.217639177703855,-1.763928073120117
1757768769584049400,46.91904931640625,2.968061870574951,13.388375683593749,-2.046892781829834
1757768769594006300,46.92900634765625,2.983923456573486,13.760374766540526,-2.306364386749268
1757768769603963400,46.93896337890625,2.73866742401123,13.499257147979735,-2.702455123901367
1757768769613919200,46.94891918945312,2.485031685638428,11.9771434425354,-2.8760347442626952
1757768769623876400,46.95887646484375,2.535309920501709,10.073154572296142,-2.489221538543701
1757768769633833500,46.96883349609375,2.787598920440673,8.754248732757567,-1.843834553527832
1757768769643790600,46.97879052734375,3.059490446472168,8.034491858673094,-1.1561001266479491
1757768769653746400,46.98874633789063,3.0912136184692383,7.869890494537353,-0.5704185455322265
1757768769663703600,46.99870361328125,2.869151414489746,8.398859423828124,-0.2410661796569824
1757768769673660200,47.00866015625,2.4938603042602536,9.535955574798583,-0.3230675865173339
1757768769683616500,47.01861645507813,1.942146459197998,10.916212831878662,-0.8755296195983886
1757768769693573400,47.02857348632813,1.2997522262573242,11.924620643615722,-1.7446248222351073
1757768769703530200,47.0385302734375,0.7263409286499023,12.16852993774414,-2.626439221191406
1757768769713487400,47.0484873046875,0.3914519714355468,11.88706160507202,-3.234865718078613
1757768769723443200,47.058443115234375,0.3136404174804687,11.560253078460692,-3.560177868652344
1757768769733400300,47.068400390625,0.4046200805664062,11.32577095336914,-3.695001349639893
1757768769743357400,47.078357421875,0.6829460235595702,11.0194627784729,-3.7012861289978023
1757768769753313300,47.08831323242188,1.0013748443603514,10.604517703247067,-3.631255730438232
1757768769763270400,47.0982705078125,1.316362000274658,10.062829577636718,-3.571849601745605
1757768769773227500,47.1082275390625,1.5146318252563475,9.479242922973633,-3.4178725074768064
1757768769783184400,47.11818432617188,1.500865165710449,8.951171819305419,-3.2351649932861326
1757768769793140500,47.12814038085938,1.3766659545898436,8.44629454421997,-3.1111154197692867
1757768769803097600,47.13809765625,1.2589011604309082,7.979425220489501,-3.0195372062683106
1757768769813054200,47.14805419921875,1.188721124267578,7.639897497558593,-2.9052140769958497
1757768769823010600,47.15801049804688,1.1550526634216307,7.397185304260254,-2.73298119506836
1757768769832967200,47.16796728515625,1.0977414611816405,7.29079296798706,-2.546832015991211
1757768769842924300,47.17792431640625,1.1409867286682127,7.241113283538818,-2.415150924682617
1757768769852881400,47.18788134765625,1.2541127571105957,7.232883215332031,-2.251148110961914
1757768769862837200,47.19783715820312,1.3367127143859865,7.329848382568359,-2.0979192047119137
1757768769872794400,47.20779443359375,1.5547347030639649,7.6294228652954095,-1.857152300262451
1757768769882751500,47.21775146484375,1.828571517944336,7.9390230674743645,-1.617133583831787
1757768769892707300,47.22770727539063,2.053776111602783,7.931541187286377,-1.486948868560791
1757768769902664400,47.23766455078125,2.258031440734863,8.060229526519775,-1.2943652725219723
1757768769912621300,47.24762133789063,2.314744092559814,8.291419624328613,-1.045667575073242
1757768769922578400,47.257578369140624,2.28556475982666,8.421454701995849,-0.960823053741455
1757768769932534800,47.26753466796875,2.456001990509033,8.633790461730957,-0.7797615531921386
1757768769942491600,47.27749169921875,2.582296128082276,8.789263932037352,-0.6292261238098145
1757768769952448500,47.28744848632813,2.454355976867676,8.8872765625,-0.5936123741149902
1757768769962404600,47.29740454101562,2.601749016571045,9.056367054748534,-0.586729044342041
1757768769972361500,47.30736157226563,2.749590969085693,9.070432989501953,-0.6783072578430175
1757768769982318600,47.31731860351562,2.794482250213623,9.017910190582274,-0.911741919708252
1757768769992275500,47.327275390625,2.7793688522338864,8.979902239227295,-1.301248602294922
1757768770002231600,47.3372314453125,2.5866356185913086,8.876801930236816,-1.8691233085632324
1757768770012188700,47.34718872070312,2.551919694519043,8.795997624206542,-2.4452280830383297
1757768770022145500,47.3571455078125,2.5279776779174803,8.73285055541992,-2.914341970825195
1757768770032101600,47.3671015625,2.5450363647460934,8.76651901626587,-3.0735563812255857
1757768770042058500,47.37705859375,2.577358087158203,8.970774345397949,-3.061435735321045
1757768770052015600,47.387015625,2.734477571105957,9.323320539855956,-2.8393735313415527
1757768770061972700,47.39697265625,2.908057191467285,9.862764101409912,-2.373850946044921
1757768770071928600,47.40692846679688,3.2427965110778807,10.52191774597168,-1.6716016716003417
1757768770081885700,47.4168857421875,3.650558981323242,11.149946768951416,-0.8877999031066894
1757768770091842600,47.42684252929688,3.9921816307067863,11.61906065673828,-0.2774281173706054
1757768770101798700,47.43679858398438,4.172644580841064,11.77917289276123,0.1592144104003906
1757768770111755500,47.44675561523437,4.260182579040527,11.825859825134277,0.4267664459228515
1757768770121712600,47.45671264648438,4.145260899353027,11.884966678619383,0.5925649108886718
1757768770131668500,47.46666845703125,3.902249430847168,12.0024321975708,0.723348176574707
1757768770141625600,47.47662548828125,3.589207563781738,12.139200967407223,0.7429507026672363
1757768770151582500,47.48658251953125,3.2679356285095214,12.039093410491942,0.6177040283203125
1757768770161539600,47.49653955078125,3.080589348602295,11.614272253417967,0.3703530693054199
1757768770171495700,47.50649560546875,3.042282122039795,10.99402438583374,0.0656909080505371
1757768770181452500,47.51645263671875,3.0889690544128414,10.320056618499756,-0.2645592834472656
1757768770191409700,47.52640966796875,3.1280244689941403,9.670030867767334,-0.6479308242797851
1757768770201365500,47.53636547851563,3.0946552833557126,9.113378981781006,-0.9837176071166992
1757768770211322600,47.54632250976562,3.008314385986328,8.8359508644104,-1.2216413970947264
1757768770221279700,47.55627978515625,2.877980033111572,8.98888049545288,-1.2925696212768554
