time,seconds_elapsed,z,y,x
1757863877281899500,0.0108994140625,0.05338309705257416,-0.05746244266629219,0.010757362470030785
1757863877291885300,0.02088525390625,0.08403237164020538,-0.04057248309254646,0.020095204934477806
1757863877301871400,0.030871337890625,0.09826216846704483,-0.07706019282341003,0.039403121918439865
1757863877311856400,0.0408564453125,0.09973355382680893,-0.07090288400650024,0.04080873727798462
1757863877321842400,0.050842529296875,0.06958950310945511,-0.017978684976696968,0.030980342999100685
1757863877331827500,0.060827392578125,0.0520421639084816,-0.043559372425079346,0.020655138418078423
1757863877341813200,0.070813232421875,0.06453664600849152,-0.10440967977046967,0.006971017457544804
1757863877351798300,0.08079833984375,0.06636765599250793,-0.1588437706232071,-0.0043112048879265785
1757863877361784600,0.09078466796875,0.050907738506793976,-0.17092199623584747,-0.012765410356223583
1757863877371769300,0.100769287109375,0.024619264528155327,-0.12462927401065826,-0.024790506809949875
1757863877381755400,0.11075537109375,-0.021737847477197647,-0.0445815771818161,-0.03624449670314789
1757863877391740400,0.120740478515625,-0.05825703591108322,0.009189793840050697,-0.02206690050661564
1757863877401726500,0.1307265625,-0.053162675350904465,0.03790000081062317,0.006379920989274979
1757863877411711500,0.14071142578125,-0.030100436881184578,0.018887780606746674,0.01960291527211666
1757863877421697300,0.150697265625,-0.003913043066859245,-0.025230146944522858,0.018794912844896317
1757863877431682300,0.160682373046875,0.013289203867316246,-0.03881669417023659,0.005885249935090542
1757863877441668600,0.170668701171875,0.013570699840784073,0.013071270659565926,-0.01631193235516548
1757863877451654400,0.180654296875,-0.0036732337903231382,0.04559626057744026,-0.015215786173939705
1757863877461639400,0.190639404296875,0.024691563099622726,0.028993047773838043,0.012428623624145985
1757863877471625200,0.200625244140625,0.05940186232328415,0.029523659497499466,0.02375597134232521
1757863877481610200,0.2106103515625,0.058594390749931335,-0.014119426719844341,0.02610381506383419
1757863877491596500,0.220596435546875,0.04990609735250473,-0.061717040836811066,0.013258855789899826
1757863877501581300,0.230581298828125,0.0423232764005661,-0.04622676223516464,-0.004335584584623575
1757863877511567400,0.2405673828125,0.05677046626806259,-0.019413815811276436,0.0010996698401868343
1757863877521552400,0.250552490234375,0.07393267005681992,-0.05193766951560974,0.01985018700361252
1757863877531538400,0.260538330078125,0.07671257853507996,-0.08147937059402466,0.03841868042945862
1757863877541523500,0.2705234375,0.0755157545208931,-0.057650212198495865,0.03283323347568512
1757863877551509500,0.280509521484375,0.062485355883836746,-0.003820546669885516,0.013435699976980686
1757863877561494300,0.290494384765625,0.0293084979057312,0.06674310564994812,-0.005439453758299351
1757863877571480600,0.30048046875,-0.01096650306135416,0.16112789511680603,-0.016937512904405594
1757863877581465600,0.310465576171875,-0.050731491297483444,0.2267814725637436,-0.01240081712603569
1757863877591451400,0.320451416015625,-0.07681306451559067,0.26160261034965515,0.001932576997205615
1757863877601436400,0.3304365234375,-0.06405279040336609,0.22094093263149261,0.0191243477165699
1757863877611422200,0.340422119140625,-0.021712012588977814,0.12367118149995804,0.035570964217185974
1757863877621408500,0.350408447265625,0.01065258402377367,0.023230597376823425,0.03301539272069931
1757863877631393500,0.3603935546875,0.013017126359045506,-0.02379109337925911,0.024942560121417046
1757863877641379300,0.37037939453125,-0.022765105590224266,0.010969017632305622,0.02225889265537262
1757863877651364400,0.3803642578125,-0.04886947572231293,0.07557588815689087,0.023280614987015724
1757863877661350400,0.390350341796875,-0.020416259765625,0.13078507781028748,0.0274061169475317
1757863877671335400,0.40033544921875,0.03191059082746506,0.10094170272350311,0.03752080351114273
1757863877681321500,0.410321533203125,0.06492873281240463,0.026753755286335945,0.04409614950418472
1757863877691306200,0.42030615234375,0.08103259652853012,0.008065661415457726,0.03500663861632347
1757863877701292500,0.43029248046875,0.07315736263990402,0.03242453187704086,0.016029484570026398
1757863877711277600,0.440277587890625,0.045792024582624435,0.04716862738132477,0.0020954308565706015
1757863877721263400,0.450263427734375,0.03867072984576225,0.03310926631093025,-0.003235951531678438
1757863877731248400,0.460248291015625,0.031423453241586685,0.0009346245788037777,-0.004154211841523647
1757863877741234200,0.470234130859375,0.017819229513406754,-0.034079816192388535,-0.004768336191773415
1757863877751219500,0.480219482421875,-0.01267203874886036,-0.0048696501180529594,-0.00045468169264495373
1757863877761205500,0.49020556640625,-0.04858290031552315,0.026584146544337273,0.003721687477082014
1757863877771190500,0.5001904296875,-0.04027283936738968,0.029202215373516083,0.0034123617224395275
1757863877781176300,0.51017626953125,-0.0059630656614899635,-0.019106196239590645,0.002485848031938076
1757863877791161300,0.520161376953125,0.027107708156108856,-0.08322344720363617,0.0006426793988794088
1757863877801147400,0.5301474609375,0.04495701193809509,-0.10840336233377457,0.0024088877253234386
1757863877811133400,0.540133544921875,0.033117130398750305,-0.08853138983249664,0.0038754907436668873
1757863877821118500,0.550118408203125,-0.005439911503344774,-0.03892077878117561,0.005601352546364069
1757863877831104500,0.5601044921875,-0.04186355695128441,0.0020187629852443933,0.012293610721826553
1757863877841089500,0.570089599609375,-0.027268104255199432,-0.014389504678547382,0.022403502836823463
1757863877851075300,0.580075439453125,0.019623177126049995,-0.06135699152946472,0.027096783742308617
1757863877861060400,0.590060302734375,0.05016643553972244,-0.1339118778705597,0.02049800381064415
1757863877871046400,0.60004638671875,0.06657954305410385,-0.15041160583496094,0.008894475176930428
1757863877881031400,0.610031494140625,0.06026226282119751,-0.10194554179906845,-0.0034348960034549236
1757863877891017500,0.620017578125,0.020954115316271782,-0.02145056240260601,-0.005225200206041336
1757863877901002500,0.63000244140625,-0.026372654363512993,0.053246576339006424,-0.004177512601017952
1757863877910988300,0.63998828125,-0.03978873789310455,0.05668558180332184,-0.0014825195539742708
1757863877920973300,0.649973388671875,-0.019404903054237366,0.016037486493587494,0.0014285817742347717
1757863877930959400,0.65995947265625,-0.007940290495753288,-0.0346018448472023,0.005248882807791233
1757863877940944400,0.6699443359375,-0.007539485115557909,-0.06239832192659378,0.013699092902243137
1757863877950930400,0.679930419921875,-0.007761781103909016,-0.033267855644226074,0.0013040766352787614
1757863877960915200,0.689915283203125,-0.006912232842296362,0.009106233716011047,-0.016435770317912102
1757863877970901500,0.699901611328125,0.005399937741458416,0.03662411868572235,-0.01974528469145298
1757863877980887300,0.70988720703125,0.009642353281378746,0.02747988887131214,-0.009412753395736217
1757863877990872300,0.719872314453125,0.0007637502276338637,0.018091687932610512,-0.0020549739710986614
1757863878000858400,0.7298583984375,-0.010322457179427147,0.030566202476620674,-0.005171138793230057
1757863878010843400,0.739843505859375,-0.029278773814439774,0.07089293748140335,-0.02001653052866459
1757863878020829400,0.749829345703125,-0.035432543605566025,0.09138515591621399,-0.03321835398674011
1757863878030814500,0.759814453125,-0.021390384063124657,0.08904315531253815,-0.04000941663980484
1757863878040800300,0.76980029296875,-0.006776286289095879,0.06595195084810257,-0.03362235799431801
1757863878050785300,0.779785400390625,0.0038255546241998672,0.010285735130310059,-0.020357944071292877
1757863878060771600,0.789771484375,0.008307654410600662,-0.023671166971325874,-0.008043220266699791
1757863878070756400,0.79975634765625,0.0020997636020183563,-0.030860453844070435,-0.0021790722385048866
1757863878080742400,0.809742431640625,-0.013321003876626492,-0.018060237169265747,-0.00034282286651432514
1757863878090727400,0.8197275390625,-0.02082081139087677,0.00656227208673954,-0.005887392908334732
1757863878100713500,0.82971337890625,-0.017770692706108093,0.028806591406464577,-0.013539719395339489
1757863878110698500,0.839698486328125,-0.010493556968867779,0.02530043013393879,-0.015383029356598854
1757863878120684300,0.849684326171875,-0.0002374571340624243,0.01699349842965603,-0.017123404890298843
1757863878130669300,0.85966943359375,0.005021454766392708,0.008075514808297157,-0.0178962592035532
1757863878140655600,0.869655517578125,0.017516208812594414,-0.02850273624062538,-0.015276240184903145
1757863878150641400,0.879641357421875,0.01503982488065958,-0.061091791838407516,-0.008531257510185242
1757863878160626400,0.88962646484375,-0.0029429045971482992,-0.05901345983147621,-0.00114231719635427
1757863878170612200,0.8996123046875,-0.028674911707639694,-0.0056419894099235535,0.004718516953289509
1757863878180597200,0.90959716796875,-0.03479405865073204,0.05034191533923149,0.006940658204257488
1757863878190583600,0.91958349609375,-0.018234064802527428,0.06814220547676086,0.005808147601783276
1757863878200568300,0.929568359375,-0.003951000981032848,0.047025736421346664,0.003282938152551651
1757863878210554400,0.939554443359375,0.006768910214304924,0.03248729929327965,-0.004201340489089489
1757863878220539400,0.949539306640625,0.003997358493506908,0.03834838420152664,-0.014515764079988003
1757863878230526000,0.95952587890625,-0.005021277815103531,0.056687310338020325,-0.013683130964636803
1757863878240511200,0.96951123046875,-0.0013157556531950831,0.04418270289897919,-0.005833198316395283
1757863878250497000,0.9794970703125,-0.00938370916992426,0.017535585910081863,0.0006711771711707115
1757863878260482000,0.98948193359375,-0.019939148798584938,0.0022250732872635126,-0.001717145787551999
1757863878270468000,0.999468017578125,-0.0309077687561512,0.024181975051760674,-0.012740110047161579
1757863878280452900,1.009452880859375,-0.045796435326337814,0.05659104883670807,-0.02294560894370079
1757863878290439200,1.019439208984375,-0.05718708783388138,0.08820074796676636,-0.01744098588824272
1757863878300424200,1.029424072265625,-0.047673746943473816,0.07435284554958344,0.005895229056477547
1757863878310410000,1.039409912109375,0.001127913361415267,0.04458681493997574,0.03120511583983898
1757863878320396300,1.049396240234375,0.0410873144865036,-0.003979390487074852,0.030683137476444244
1757863878330381000,1.059381103515625,0.06902553886175156,-0.051978256553411484,0.014039045199751854
1757863878340367000,1.0693671875,0.07738280296325684,-0.042961858212947845,-0.005576200783252716
1757863878350352100,1.07935205078125,0.07076185941696167,-0.008057878352701664,-0.0029334279242902994
1757863878360338000,1.089337890625,0.03759884834289551,0.019105032086372375,0.007069671526551247
1757863878370323200,1.0993232421875,-0.005503591615706682,0.03635707497596741,0.017269989475607872
1757863878380309000,1.10930908203125,-0.04493701830506325,0.04732397198677063,0.006150758825242519
1757863878390294000,1.1192939453125,-0.06866363435983658,0.08135616779327393,-0.015520978718996048
1757863878400280000,1.129280029296875,-0.08046649396419525,0.12924326956272125,-0.027647150680422783
1757863878410265000,1.13926513671875,-0.065615713596344,0.14013658463954926,-0.019091611728072166
1757863878420251100,1.149251220703125,-0.012355686165392399,0.07715015113353729,0.014630666002631187
1757863878430236200,1.159236083984375,0.051396895200014114,-0.007081329822540283,0.0333312526345253
1757863878440222000,1.169221923828125,0.08724118024110794,-0.0835886225104332,0.03213682398200035
1757863878450207000,1.17920703125,0.08288319408893585,-0.09123782068490982,0.005780587438493967
1757863878460193300,1.189193359375,0.04375816509127617,-0.01879718154668808,-0.019652601331472397
1757863878470178000,1.199177978515625,0.009304224513471127,0.06259413808584213,-0.02705179527401924
1757863878480164000,1.2091640625,-0.0011473508784547448,0.10161744058132172,-0.013491779565811157
1757863878490149000,1.219149169921875,-0.008047929033637047,0.08487842977046967,0.007008959539234638
1757863878500135200,1.22913525390625,-0.008684691041707993,0.04244095832109451,0.00813600979745388
1757863878510121200,1.239121337890625,-0.0051297941245138645,0.012841122224926949,-0.008239629678428173
1757863878520106000,1.24910595703125,-0.021543653681874275,0.02181464247405529,-0.02130403183400631
1757863878530092000,1.259092041015625,-0.05092640221118927,0.04312931373715401,-0.015044941566884518
1757863878540077000,1.2690771484375,-0.041270580142736435,0.037162765860557556,0.0031734774820506573
1757863878550063000,1.27906298828125,-0.019257865846157074,0.020194483920931816,0.007562095299363136
1757863878560048000,1.289048095703125,-0.006564174313098192,-0.008421181701123714,-0.002974168863147497
1757863878570034000,1.299033935546875,0.0011503314599394798,-0.010548719204962254,-0.01865844987332821
1757863878580019000,1.30901904296875,-0.01476977951824665,0.022995391860604286,-0.02654619887471199
1757863878590005200,1.319005126953125,-0.023704010993242264,0.023157674819231033,-0.017423540353775024
1757863878599990000,1.328989990234375,-0.0019481155322864652,-0.01680651865899563,-0.007737623527646065
1757863878609976000,1.33897607421875,0.022381262853741646,-0.071300208568573,-0.0008360324427485466
1757863878619961000,1.348961181640625,0.027801860123872757,-0.0874038115143776,0.0030047784093767405
1757863878629947100,1.358947021484375,0.003763597458600998,-0.026455454528331757,0.004000653978437185
1757863878639932200,1.36893212890625,-0.02186213620007038,0.05240846797823906,0.0011342938523739576
1757863878649918000,1.37891796875,-0.024176456034183502,0.0656856968998909,-0.001421670662239194
1757863878659903000,1.388903076171875,-0.012724597007036209,0.017680352553725243,-0.0014349864795804024
1757863878669889000,1.398888916015625,0.0027890189085155725,-0.02559046819806099,-0.0017327230889350176
1757863878679875000,1.408875,0.000012673379387706518,-0.022503333166241646,-0.005196430720388889
1757863878689860000,1.418860107421875,-0.02715166099369526,0.04147874563932419,-0.0027205010410398245
1757863878699846100,1.42884619140625,-0.044106144458055496,0.09772150963544846,0.0029046277049928904
1757863878709831000,1.438830810546875,-0.017635153606534004,0.07604874670505524,0.008241473697125912
1757863878719817200,1.448817138671875,0.026400215923786163,-0.010628626681864262,0.015864240005612373
1757863878729802200,1.45880224609375,0.049154624342918396,-0.0854984000325203,0.014221206307411194
1757863878739788000,1.4687880859375,0.047765519469976425,-0.09295125305652618,0.004625570494681597
1757863878749773000,1.47877294921875,0.022389495745301247,-0.051227450370788574,-0.010545795783400536
1757863878759759000,1.488759033203125,-0.014859339222311974,0.004040597006678581,-0.018172556534409523
1757863878769744100,1.498744140625,-0.04956457391381264,0.056544478982686996,-0.023902079090476036
1757863878779730200,1.508730224609375,-0.08037814497947693,0.0982290729880333,-0.014447856694459915
1757863878789715000,1.51871484375,-0.0858960971236229,0.11970353871583939,0.007842941209673882
1757863878799701000,1.528700927734375,-0.07065962255001068,0.10412058234214783,0.019351791590452194
1757863878809686300,1.538686279296875,-0.046894822269678116,0.057436179369688034,0.010314221493899822
1757863878819672000,1.548672119140625,-0.018132418394088745,0.026415150612592697,-0.007557452656328678
1757863878829657000,1.558656982421875,0.001933001447468996,0.021926436573266983,-0.01368352584540844
1757863878839643000,1.568642822265625,-0.0015698543284088373,0.03889689967036247,-0.009946046397089958
1757863878849629200,1.578629150390625,-0.021460063755512238,0.0662568211555481,0.00770204933360219
1757863878859614200,1.5886142578125,-0.013063382357358932,0.0660586804151535,0.030206026509404182
1757863878869600000,1.59860009765625,0.028323737904429436,0.021686052903532982,0.0348733551800251
1757863878879585000,1.6085849609375,0.05163252353668213,-0.03189195320010185,0.03330155834555626
1757863878889571000,1.618571044921875,0.05928550660610199,-0.06272213160991669,0.021380716934800148
1757863878899556000,1.62855615234375,0.06080137938261032,-0.06348859518766403,0.004677903838455677
1757863878909542100,1.638542236328125,0.050475381314754486,-0.05702090635895729,-0.0071290950290858746
1757863878919527200,1.648527099609375,0.022622976452112198,-0.041705068200826645,-0.008665738627314568
1757863878929513000,1.658512939453125,-0.018239721655845642,-0.009175567887723446,-0.004467792809009552
1757863878939498200,1.668498291015625,-0.055202268064022064,0.034182824194431305,0.006640519015491009
1757863878949484000,1.678484130859375,-0.07236217707395554,0.08242205530405045,0.016677571460604668
1757863878959469000,1.688468994140625,-0.060246121138334274,0.11470649391412735,0.014269806444644928
1757863878969455000,1.698455078125,-0.020374825224280357,0.08667261898517609,0.0046508656814694405
1757863878979439900,1.70843994140625,0.029597528278827667,0.0028706579469144344,-0.005991125945001841
1757863878989426200,1.71842626953125,0.0682004764676094,-0.10725662112236023,-0.004558342508971691
1757863878999411200,1.7284111328125,0.08166861534118652,-0.1716366708278656,-0.0010845153592526913
1757863879009397000,1.73839697265625,0.06892610341310501,-0.13924449682235718,0.012582301162183285
1757863879019382000,1.748382080078125,0.02781408466398716,-0.09236114472150803,0.012507732957601547
1757863879029368000,1.7583681640625,-0.004810982383787632,-0.040484718978405,0.007005232386291027
1757863879039354000,1.76835400390625,-0.02925214171409607,0.01738550327718258,0.0033825342543423176
1757863879049339100,1.778339111328125,-0.030075861141085625,0.028827402740716934,0.007510575000196695
1757863879059325000,1.788324951171875,-0.001023436663672328,0.002093259710818529,0.010098368860781193
1757863879069310200,1.798310302734375,0.025411540642380714,-0.025534845888614655,0.010754435323178768
1757863879079296000,1.8082958984375,0.02910747565329075,-0.03211125731468201,0.005069119390100241
1757863879089281000,1.818281005859375,0.013006551191210747,-0.009027581661939621,-0.005483121611177921
1757863879099267000,1.82826708984375,-0.009427384473383427,0.01956970803439617,-0.0038484735414385796
1757863879109252000,1.838252197265625,-0.021909354254603386,0.03146525099873543,-0.0022114282473921776
1757863879119238100,1.848238037109375,-0.025995176285505295,0.02220863476395607,-0.0014212685637176037
1757863879129223200,1.85822314453125,-0.021240195259451866,0.012625575065612793,-0.004396955482661724
1757863879139209000,1.868208984375,-0.006839684210717678,0.011219958774745464,-0.010017290711402893
1757863879149194000,1.878194091796875,0.013210581615567207,0.010217715054750443,-0.013700975105166435
1757863879159180300,1.88818017578125,0.02196199633181095,-0.00272045424208045,-0.007937096059322357
1757863879169165000,1.8981650390625,0.020111175253987312,-0.016684725880622864,0.002967085223644972
1757863879179151000,1.908151123046875,0.004768439568579197,-0.017192590981721878,0.0070720817893743515
1757863879189136100,1.91813623046875,-0.008593720383942127,-0.014323229901492596,0.005657674744725227
1757863879199122200,1.9281220703125,-0.018368320539593697,-0.014822307042777538,0.0006472037639468908
1757863879209108200,1.938108154296875,-0.02779676392674446,-0.010940744541585445,-0.0019467053934931755
1757863879219093000,1.948093017578125,-0.03368314728140831,0.014093768782913685,0.005722399801015854
1757863879229078300,1.958078369140625,-0.008985722437500954,0.0028000245802104473,0.023637209087610245
1757863879239063300,1.968063232421875,0.02653099223971367,-0.03700677677989006,0.0333513543009758
1757863879249049000,1.978049072265625,0.053423140197992325,-0.059631384909152985,0.029824133962392807
1757863879259034400,1.988034423828125,0.06961222738027573,-0.05928304046392441,0.01774057373404503
1757863879269020400,1.9980205078125,0.0554162934422493,-0.04277395084500313,0.010994650423526764
1757863879279005200,2.008005126953125,0.02329298108816147,-0.0004576512146741152,0.009433239698410034
1757863879288991200,2.0179912109375,-0.01432296447455883,0.045682620257139206,0.014001218602061272
1757863879298976300,2.027976318359375,-0.02028684690594673,0.03951447084546089,0.02439740113914013
1757863879308962300,2.03796240234375,-0.0013299973215907812,0.012659335508942604,0.03774289786815643
1757863879318947300,2.047947265625,0.010440375655889511,-0.01954573765397072,0.04770871251821518
1757863879328933000,2.05793310546875,0.020540963858366013,-0.030277658253908157,0.049005553126335144
1757863879338918100,2.067918212890625,0.026944801211357117,-0.0162220261991024,0.04664412885904312
1757863879348904400,2.077904541015625,0.02309396117925644,0.0016607751604169607,0.05255674943327904
1757863879358889200,2.08788916015625,0.012799246236681938,0.018813397735357285,0.06430767476558685
1757863879368875300,2.097875244140625,0.005732799880206585,0.02804531529545784,0.07307320833206177
1757863879378861300,2.107861328125,0.02812332659959793,0.003406815230846405,0.08689448237419128
1757863879388846300,2.117846435546875,0.06457335501909256,-0.02248300611972809,0.09551779925823212
1757863879398832400,2.127832275390625,0.08077655732631683,-0.06081068888306618,0.09504774957895279
1757863879408817400,2.1378173828125,0.07971514761447906,-0.06603670120239258,0.08830302953720093
1757863879418803200,2.14780322265625,0.06604433804750443,-0.03374961018562317,0.08055882155895233
1757863879428788200,2.157788330078125,0.04088402912020683,0.003917830064892769,0.07606926560401917
1757863879438774300,2.167774169921875,0.03082766756415367,0.0020482910331338644,0.07729565352201462
1757863879448759300,2.17775927734375,0.039943207055330276,-0.007957548834383488,0.07922697067260742
1757863879458745300,2.187745361328125,0.04969277232885361,-0.03055952861905098,0.08504730463027954
1757863879468730000,2.197730224609375,0.06041291728615761,-0.05649508908390999,0.0829644426703453
1757863879478716400,2.20771630859375,0.06712914258241653,-0.05270913988351822,0.0740513801574707
1757863879488701400,2.217701416015625,0.055750273168087006,-0.03660960495471954,0.07096824049949646
1757863879498687200,2.227687255859375,0.04037158191204071,-0.03153574839234352,0.0712239071726799
1757863879508672300,2.23767236328125,0.03197488188743591,-0.028498977422714233,0.06569025665521622
1757863879518658300,2.247658203125,0.0272538959980011,-0.034892428666353226,0.05760516971349716
1757863879528643300,2.257643310546875,0.03234410658478737,-0.04905317351222038,0.05236072838306427
1757863879538629400,2.26762939453125,0.02898453176021576,-0.05079993978142738,0.04761284589767456
1757863879548614100,2.2776142578125,0.008789499290287495,-0.04290982708334923,0.04139876738190651
1757863879558600200,2.28760009765625,-0.027575699612498283,0.00006639957427978516,0.029936520382761955
1757863879568586200,2.297586181640625,-0.06509140133857727,0.031222259625792503,0.012215577997267246
1757863879578571300,2.3075712890625,-0.06950505822896957,0.011862676590681076,-0.00002723955549299717
1757863879588557300,2.317557373046875,-0.0460999570786953,-0.012163769453763962,-0.012691505253314972
1757863879598542300,2.327542236328125,-0.006025508977472782,-0.016392337158322334,-0.03767142444849014
1757863879608528400,2.3375283203125,0.03201686963438988,0.0189917404204607,-0.07024841010570526
1757863879618513400,2.347513427734375,0.04815695807337761,0.08116377145051956,-0.09428609907627106
1757863879628499200,2.357499267578125,0.028755294159054756,0.13030217587947845,-0.1118718758225441
1757863879638484200,2.367484130859375,-0.011025141924619675,0.15870904922485352,-0.1196373850107193
1757863879648470500,2.377470458984375,-0.06761925667524338,0.19345104694366455,-0.11364274471998215
1757863879658455300,2.387455322265625,-0.14283224940299988,0.1878698617219925,-0.09949923306703568
1757863879668441300,2.39744140625,-0.2180083692073822,0.1430831104516983,-0.08233223110437393
1757863879678426400,2.40742626953125,-0.24972635507583618,0.12411075830459595,-0.0439949631690979
1757863879688412200,2.417412109375,-0.23027454316616058,0.1414269059896469,0.026058025658130646
1757863879698397400,2.4273974609375,-0.13748255372047424,0.22857218980789185,0.14795756340026855
1757863879708383200,2.43738330078125,-0.0010475454619154334,0.3241519033908844,0.2732045650482178
1757863879718368300,2.4473681640625,0.14892758429050446,0.3813355565071106,0.37800583243370056
1757863879728354300,2.457354248046875,0.2792590856552124,0.36360931396484375,0.4589264988899231
1757863879738340400,2.46734033203125,0.3813638985157013,0.31591981649398804,0.535968005657196
1757863879748325400,2.477325439453125,0.4539211094379425,0.2957041263580322,0.6198591589927673
1757863879758311200,2.487311279296875,0.4827045798301697,0.3181425929069519,0.6954724192619324
1757863879768296200,2.497296142578125,0.4481711685657501,0.405011385679245,0.7787293791770935
1757863879778282500,2.507282470703125,0.3829444944858551,0.5485823750495911,0.8665657639503479
1757863879788267300,2.517267333984375,0.324961394071579,0.6784116625785828,0.932039737701416
1757863879798253300,2.52725341796875,0.32025453448295593,0.6914651393890381,0.963123619556427
1757863879808238300,2.53723828125,0.36640024185180664,0.5651629567146301,0.9581646919250488
1757863879818224000,2.54722412109375,0.44951456785202026,0.3493395745754242,0.942981481552124
1757863879828209400,2.55720947265625,0.5052719116210938,0.1377784013748169,0.9286652207374573
1757863879838195200,2.5671953125,0.5096280574798584,0.031171537935733795,0.9198000431060791
1757863879848180200,2.57718017578125,0.4899826645851135,0.030493605881929398,0.910634458065033
1757863879858166300,2.587166259765625,0.45345234870910645,0.04982682317495346,0.9005882143974304
1757863879868151300,2.5971513671875,0.420480340719223,0.06450393050909042,0.9084957242012024
1757863879878137300,2.607137451171875,0.3923512399196625,0.07385002821683884,0.9147352576255798
1757863879888123400,2.617123291015625,0.37202492356300354,0.07319118082523346,0.9172667264938354
1757863879898108200,2.627108154296875,0.35096094012260437,0.0769323855638504,0.9203100204467773
1757863879908094500,2.637094482421875,0.3516041338443756,0.06226136535406113,0.9175407886505127
1757863879918079500,2.64707958984375,0.33423978090286255,0.040058061480522156,0.9215890765190125
1757863879928065300,2.657065185546875,0.32609105110168457,0.07774578034877777,0.9450008869171143
1757863879938050300,2.66705029296875,0.29486921429634094,0.11992891877889633,0.9817607998847961
1757863879948036000,2.6770361328125,0.24122220277786255,0.17680369317531586,1.0075137615203857
1757863879958021400,2.687021484375,0.1852225810289383,0.2540492117404938,1.0222623348236084
1757863879968007400,2.69700732421875,0.1564449816942215,0.31166526675224304,1.0316826105117798
1757863879977992200,2.7069921875,0.15582554042339325,0.31198564171791077,1.0374739170074463
1757863879987978200,2.716978271484375,0.1815108060836792,0.2766955494880676,1.0440497398376465
1757863879997963300,2.72696337890625,0.26243841648101807,0.17934875190258026,1.0618417263031006
1757863880007949300,2.73694921875,0.38150253891944885,0.08013622462749481,1.086809515953064
1757863880017934300,2.746934326171875,0.49914130568504333,0.0036334593314677477,1.1224175691604614
1757863880027920100,2.756920166015625,0.6009490489959717,-0.03579125925898552,1.164746642112732
1757863880037905200,2.7669052734375,0.7012439370155334,-0.008982282131910324,1.1952365636825562
1757863880047891500,2.776891357421875,0.7677401304244995,0.06534308195114136,1.2285234928131104
1757863880057877200,2.786877197265625,0.7891100645065308,0.11618714034557343,1.269092082977295
1757863880067862300,2.7968623046875,0.8001807332038879,0.16358338296413422,1.3173894882202148
1757863880077848300,2.806848388671875,0.8385113477706909,0.27669209241867065,1.3390780687332153
1757863880087833300,2.816833251953125,0.899995744228363,0.3583994507789612,1.3332692384719849
1757863880097819400,2.8268193359375,1.0035617351531982,0.32478663325309753,1.3347446918487549
1757863880107804400,2.836804443359375,1.142494797706604,0.17203040421009064,1.353560447692871
1757863880117790200,2.846790283203125,1.2805941104888916,-0.10678764432668686,1.4174566268920898
1757863880127775200,2.856775146484375,1.3806908130645752,-0.3661733567714691,1.531685709953308
1757863880137761300,2.86676123046875,1.374361515045166,-0.41176852583885193,1.6438473463058472
1757863880147746300,2.876746337890625,1.2168036699295044,-0.25742343068122864,1.732151985168457
1757863880157732400,2.886732421875,0.9903689622879028,0.06238198280334473,1.7737053632736206
1757863880167717000,2.896717041015625,0.851341187953949,0.3181953430175781,1.7383602857589722
1757863880177703400,2.906703369140625,0.853949785232544,0.4192900061607361,1.6595669984817505
1757863880187688400,2.9166884765625,0.9674698710441589,0.28983211517333984,1.6019268035888672
1757863880197674200,2.92667431640625,1.1522480249404907,0.10476666688919067,1.601730227470398
1757863880207659300,2.9366591796875,1.3033931255340576,-0.06304043531417847,1.6458815336227417
1757863880217645300,2.946645263671875,1.2687450647354126,-0.06275973469018936,1.7203768491744995
1757863880227631000,2.956631103515625,1.056922435760498,0.28109946846961975,1.75824773311615
1757863880237617200,2.9666171875,0.7549612522125244,0.9867924451828003,1.749810814857483
1757863880247603200,2.976603271484375,0.46859464049339294,1.5096781253814697,1.57693350315094
1757863880257588200,2.986588134765625,0.27400919795036316,1.6615723371505737,1.3410290479660034
1757863880267574000,2.996573974609375,0.18696501851081848,1.444539189338684,1.1461595296859741
1757863880277559300,3.006559326171875,0.17728443443775177,1.0190321207046509,1.021982192993164
1757863880287545000,3.016545166015625,0.1906142681837082,0.6570473909378052,0.9678102135658264
1757863880297530000,3.026530029296875,0.11796297132968903,0.467372864484787,0.9597514867782593
1757863880307516200,3.03651611328125,-0.005731198936700821,0.34913170337677,0.9476425647735596
1757863880317501200,3.046501220703125,-0.10546817630529404,0.23223596811294556,0.9130430221557617
1757863880327487200,3.0564873046875,-0.07744033634662628,0.11561595648527145,0.887100875377655
1757863880337472300,3.06647216796875,0.09399612993001938,-0.06105228140950203,0.8689282536506653
1757863880347458000,3.0764580078125,0.2829650342464447,-0.28741511702537537,0.8580508828163147
1757863880357443000,3.086443115234375,0.45042699575424194,-0.4702179431915283,0.8541190028190613
1757863880367429400,3.096429443359375,0.5085364580154419,-0.4714806377887726,0.8288463354110718
1757863880377414100,3.1064140625,0.45623141527175903,-0.44982966780662537,0.7059518098831177
1757863880387400200,3.116400146484375,0.32876476645469666,-0.39362677931785583,0.5575622916221619
1757863880397386000,3.126385986328125,0.23056763410568237,-0.36538606882095337,0.44711190462112427
1757863880407371000,3.13637109375,0.20876674354076385,-0.32478418946266174,0.3793155550956726
1757863880417357300,3.146357421875,0.21015718579292297,-0.326186865568161,0.33794334530830383
1757863880427342000,3.156342041015625,0.20856145024299622,-0.3457348644733429,0.2951468825340271
1757863880437328100,3.166328125,0.23878487944602966,-0.3623892068862915,0.22995483875274658
1757863880447313200,3.176313232421875,0.27389103174209595,-0.27199989557266235,0.13407863676548004
1757863880457299200,3.18629931640625,0.19411709904670715,-0.20764780044555664,0.008771839551627636
1757863880467284200,3.1962841796875,0.025105105713009834,-0.1157698929309845,-0.0932510644197464
1757863880477270000,3.20627001953125,-0.20454245805740356,0.09684757143259048,-0.13675539195537567
1757863880487255000,3.216255126953125,-0.43460339307785034,0.361684113740921,-0.16043782234191895
1757863880497241300,3.226241455078125,-0.5722706913948059,0.5309450626373291,-0.21632824838161469
1757863880507226000,3.23622607421875,-0.589356005191803,0.5497822761535645,-0.28902295231819153
1757863880517212200,3.246212158203125,-0.5278361439704895,0.4503214657306671,-0.34672459959983826
1757863880527197200,3.256197265625,-0.4559415578842163,0.28968119621276855,-0.3643408715724945
1757863880537183000,3.266182861328125,-0.40290018916130066,0.1560693234205246,-0.35171616077423096
1757863880547168300,3.276168212890625,-0.36527615785598755,0.047276269644498825,-0.3443847596645355
1757863880557154300,3.286154296875,-0.3204716742038727,-0.006456200964748859,-0.3525180518627167
1757863880567139000,3.29613916015625,-0.3321807086467743,-0.07418623566627502,-0.3833676874637604
1757863880577125000,3.306125,-0.398102730512619,-0.1951454132795334,-0.4648556113243103
1757863880587111200,3.316111083984375,-0.4101342260837555,-0.22820356488227844,-0.5714693069458008
1757863880597096200,3.32609619140625,-0.38357239961624146,-0.21952857077121735,-0.6797773838043213
1757863880607082200,3.336082275390625,-0.3427412211894989,-0.18304282426834106,-0.7673937678337097
1757863880617067000,3.34606689453125,-0.32292917370796204,-0.21760587394237518,-0.8165860772132874
1757863880627053300,3.35605322265625,-0.31301653385162354,-0.3125561475753784,-0.8319125175476074
1757863880637038300,3.366038330078125,-0.32768309116363525,-0.42877277731895447,-0.8462498784065247
1757863880647024000,3.376024169921875,-0.37976276874542236,-0.5185235738754272,-0.8852121829986572
1757863880657009200,3.386009033203125,-0.47250813245773315,-0.5149759650230408,-0.9382104277610779
1757863880666995000,3.395994873046875,-0.5950584411621094,-0.4472745954990387,-0.9937968254089355
1757863880676980200,3.405980224609375,-0.6625648140907288,-0.3880786597728729,-1.0450557470321655
1757863880686966300,3.41596630859375,-0.5580843091011047,-0.38697218894958496,-1.0890320539474487
1757863880696951000,3.425950927734375,-0.4070263206958771,-0.4244990646839142,-1.1197007894515991
1757863880706937000,3.43593701171875,-0.34681954979896545,-0.5003914833068848,-1.1303497552871704
1757863880716922000,3.445922119140625,-0.3380984961986542,-0.5837071537971497,-1.1585832834243774
1757863880726908200,3.455908203125,-0.36655911803245544,-0.5668972134590149,-1.206636667251587
1757863880736894200,3.465894287109375,-0.42750582098960876,-0.4806898534297943,-1.2681457996368408
1757863880746879000,3.47587890625,-0.5021095871925354,-0.4214664697647095,-1.3257496356964111
1757863880756865300,3.485865234375,-0.5835272073745728,-0.3941299319267273,-1.3560879230499268
1757863880766850300,3.495850341796875,-0.6491103768348694,-0.3985891044139862,-1.3519295454025269
1757863880776836000,3.505836181640625,-0.6670448780059814,-0.42456477880477905,-1.311099648475647
1757863880786821000,3.515821044921875,-0.6233232021331787,-0.4672328531742096,-1.251103401184082
1757863880796807200,3.52580712890625,-0.5354652404785156,-0.5096905827522278,-1.1953328847885132
1757863880806792200,3.535792236328125,-0.4578835964202881,-0.5570164322853088,-1.145990014076233
1757863880816778200,3.5457783203125,-0.40874215960502625,-0.5994980931282043,-1.1227627992630005
1757863880826763300,3.55576318359375,-0.3660051226615906,-0.5892128348350525,-1.1223233938217163
1757863880836749000,3.5657490234375,-0.3423549234867096,-0.5577776432037354,-1.1321735382080078
1757863880846734000,3.575734130859375,-0.3503677248954773,-0.5422068238258362,-1.1394859552383423
1757863880856720100,3.58572021484375,-0.35301706194877625,-0.5386679768562317,-1.138081431388855
1757863880866705200,3.595705078125,-0.30883705615997314,-0.5431362986564636,-1.121842384338379
1757863880876691200,3.605691162109375,-0.26036036014556885,-0.5359569787979126,-1.09181547164917
1757863880886676000,3.615676025390625,-0.22917714715003967,-0.5040716528892517,-1.0504733324050903
1757863880896662300,3.625662353515625,-0.20950332283973694,-0.4398060739040375,-1.0204579830169678
1757863880906648000,3.63564794921875,-0.19329391419887543,-0.33817344903945923,-1.0031554698944092
1757863880916633000,3.645633056640625,-0.20278754830360413,-0.28510570526123047,-1.0036548376083374
1757863880926619100,3.655619140625,-0.23212669789791107,-0.2672865390777588,-1.0119335651397705
1757863880936604200,3.665604248046875,-0.26529717445373535,-0.28089529275894165,-1.0169051885604858
1757863880946590200,3.675590087890625,-0.25063416361808777,-0.316895067691803,-1.022148847579956
1757863880956575200,3.6855751953125,-0.21096505224704742,-0.37875229120254517,-1.023800015449524
1757863880966561000,3.69556103515625,-0.17393741011619568,-0.42447134852409363,-1.0293172597885132
1757863880976546000,3.705546142578125,-0.1629316359758377,-0.4421651363372803,-1.0231059789657593
1757863880986532000,3.715531982421875,-0.21414364874362946,-0.3857700824737549,-1.0013121366500854
1757863880996517000,3.72551708984375,-0.300422340631485,-0.2911034822463989,-0.9813317656517029
1757863881006503200,3.735503173828125,-0.3719711899757385,-0.18569207191467285,-0.9588693976402283
1757863881016488200,3.74548828125,-0.3973620533943176,-0.127924382686615,-0.9443431496620178
1757863881026474200,3.75547412109375,-0.37811243534088135,-0.13715782761573792,-0.9366580843925476
1757863881036459300,3.765459228515625,-0.32266730070114136,-0.18707478046417236,-0.9347025156021118
1757863881046445000,3.775445068359375,-0.2524649202823639,-0.24030378460884094,-0.9402009844779968
1757863881056430000,3.78543017578125,-0.18842709064483643,-0.2826075553894043,-0.9511433839797974
1757863881066416400,3.79541650390625,-0.1610831618309021,-0.2847549617290497,-0.9581913352012634
1757863881076402200,3.805402099609375,-0.1967913657426834,-0.21820175647735596,-0.9422211647033691
1757863881086387200,3.81538720703125,-0.27302709221839905,-0.10570398718118668,-0.9056792259216309
1757863881096373000,3.825373046875,-0.34567785263061523,0.016953224316239357,-0.8568706512451172
1757863881106358000,3.83535791015625,-0.37852662801742554,0.12054593116044998,-0.7981101274490356
1757863881116344300,3.84534423828125,-0.3849855661392212,0.15211796760559082,-0.7515628933906555
1757863881126329000,3.8553291015625,-0.3652437925338745,0.15786664187908173,-0.7042313814163208
1757863881136315100,3.865315185546875,-0.3210744559764862,0.136572003364563,-0.6581552028656006
1757863881146300200,3.875300048828125,-0.2706039845943451,0.10607809573411942,-0.6021759510040283
1757863881156286200,3.8852861328125,-0.23495328426361084,0.07732287794351578,-0.5336293578147888
1757863881166271200,3.895271240234375,-0.22344352304935455,0.06855140626430511,-0.4609578251838684
1757863881176257000,3.905257080078125,-0.22657406330108643,0.040528554469347,-0.40632814168930054
1757863881186242000,3.915241943359375,-0.22405703365802765,0.00419772369787097,-0.3703348636627197
1757863881196228400,3.925228271484375,-0.20118288695812225,-0.03639843687415123,-0.35444486141204834
1757863881206213000,3.935213134765625,-0.161590576171875,-0.10532520711421967,-0.356938898563385
1757863881216199200,3.94519921875,-0.11683855950832367,-0.18130414187908173,-0.3743453323841095
1757863881226184200,3.95518408203125,-0.09819567948579788,-0.2331179529428482,-0.4073835611343384
1757863881236169700,3.965169677734375,-0.13395820558071136,-0.22078725695610046,-0.4333246052265167
1757863881246155800,3.97515576171875,-0.21403677761554718,-0.1495983600616455,-0.4692527651786804
1757863881256140800,3.985140869140625,-0.2962816059589386,-0.07527966052293777,-0.5161779522895813
1757863881266126800,3.995126953125,-0.3649638891220093,-0.010480407625436783,-0.5645269155502319
1757863881276112000,4.00511181640625,-0.3936264216899872,-0.008014320395886898,-0.5948086977005005
1757863881286097700,4.01509765625,-0.3745006322860718,-0.0580805242061615,-0.6077430248260498
1757863881296082700,4.025082763671875,-0.343330442905426,-0.09041529893875122,-0.6050492525100708
1757863881306069000,4.035069091796875,-0.33505162596702576,-0.07919873297214508,-0.584017276763916
1757863881316053800,4.0450537109375,-0.3461650013923645,-0.05870597064495087,-0.5753676295280457
1757863881326039800,4.055039794921875,-0.3508621156215668,0.018312742933630943,-0.5644870400428772
1757863881336024800,4.06502490234375,-0.3435618579387665,0.07094399631023407,-0.5500905513763428
1757863881346010600,4.0750107421875,-0.3212205171585083,0.0720801129937172,-0.5203090310096741
1757863881355996000,4.084995849609375,-0.28011515736579895,0.04430094733834267,-0.4680895209312439
1757863881365981700,4.094981689453125,-0.22869250178337097,0.006665371358394623,-0.39900684356689453
1757863881375966700,4.104966796875,-0.17452727258205414,-0.05823053792119026,-0.3292469382286072
1757863881385952800,4.114952880859375,-0.12839052081108093,-0.11951155215501785,-0.2754514813423157
1757863881395937800,4.124937744140625,-0.09910345822572708,-0.13561807572841644,-0.2353096604347229
1757863881405923800,4.134923828125,-0.07902520149946213,-0.09949813783168793,-0.2077973335981369
1757863881415910000,4.144909912109375,-0.07095582038164139,-0.035217683762311935,-0.18613918125629425
1757863881425894700,4.154894775390625,-0.051721516996622086,0.03600309416651726,-0.16559277474880219
1757863881435881000,4.164880859375,0.007731690537184477,0.08718079328536987,-0.14524409174919128
1757863881445866000,4.174865966796875,0.07853095233440399,0.09378355741500854,-0.12461138516664505
1757863881455851800,4.184851806640625,0.1333414614200592,0.08655014634132385,-0.10161391645669937
1757863881465836800,4.1948369140625,0.155098557472229,0.06913686543703079,-0.0752924233675003
1757863881475822600,4.204822509765625,0.13275942206382751,0.05105826258659363,-0.05337860435247421
1757863881485807900,4.214807861328125,0.08841917663812637,0.055550478398799896,-0.030077554285526276
1757863881495794000,4.2247939453125,0.053404998034238815,0.10095337778329849,-0.013365151360630989
1757863881505778700,4.23477880859375,0.031038952991366386,0.13821814954280853,-0.008674919605255127
1757863881515764700,4.2447646484375,0.028131315484642982,0.18465302884578705,-0.017219139263033867
1757863881525749800,4.254749755859375,0.046620938926935196,0.21736015379428864,-0.03667460009455681
1757863881535735800,4.26473583984375,0.08086039870977402,0.22629612684249878,-0.05667946860194206
1757863881545720800,4.274720947265625,0.10519353300333023,0.19987495243549347,-0.05735138803720474
1757863881555706600,4.28470654296875,0.09842218458652496,0.1617416888475418,-0.04891635850071907
1757863881565691600,4.294691650390625,0.07044751942157745,0.15582357347011566,-0.036148760467767715
1757863881575678000,4.304677978515625,0.01572408899664879,0.1672392189502716,-0.028009604662656784
1757863881585663700,4.314663818359375,-0.04352699965238571,0.19320110976696014,-0.021417217329144478
1757863881595648800,4.324648681640625,-0.07579758763313293,0.2181863635778427,-0.014604585245251656
1757863881605634800,4.334634765625,-0.07253462076187134,0.22820034623146057,-0.015116170980036259
1757863881615619800,4.344619873046875,-0.0675790086388588,0.22816254198551178,-0.024882517755031586
1757863881625606000,4.35460595703125,-0.024322647601366043,0.20702633261680603,-0.02712211385369301
1757863881635591000,4.3645908203125,0.015515046194195747,0.1745661348104477,-0.02092600241303444
1757863881645576700,4.37457666015625,0.03216434270143509,0.141643688082695,-0.0031410036608576775
1757863881655561700,4.384561767578125,0.032204557210206985,0.13795095682144165,0.012836365029215813
1757863881665547800,4.3945478515625,0.01328760664910078,0.13703502714633942,0.01648835837841034
1757863881675532800,4.40453271484375,0.01687062345445156,0.13935570418834686,0.027608653530478477
1757863881685518800,4.414518798828125,0.04831547662615776,0.15183764696121216,0.03519626706838608
1757863881695503600,4.424503662109375,0.07550048828125,0.15538550913333893,0.041865088045597076
1757863881705490000,4.434489990234375,0.08879373967647552,0.14314058423042297,0.05047015845775604
1757863881715475000,4.444474853515625,0.1001952663064003,0.11176001280546188,0.0654110312461853
1757863881725460700,4.454460693359375,0.10467737168073654,0.09011022746562958,0.07845132052898407
1757863881735445800,4.46444580078125,0.09764555841684341,0.06508449465036392,0.08713588863611221
1757863881745431800,4.474431884765625,0.10292202979326248,0.007901478558778763,0.0977921262383461
1757863881755417900,4.48441796875,0.10283840447664261,-0.04773808270692825,0.11095985770225525
1757863881765403000,4.49440283203125,0.09115058928728104,-0.0415789894759655,0.1256786286830902
1757863881775388700,4.504388671875,0.08577366918325424,0.007818387821316719,0.13479410111904144
1757863881785373700,4.514373779296875,0.0946555957198143,0.06694741547107697,0.1247880607843399
1757863881795359700,4.52435986328125,0.11745598167181015,0.08594480901956558,0.10485216975212097
1757863881805344800,4.5343447265625,0.14924080669879913,0.07507272064685822,0.09392841905355453
1757863881815330800,4.544330810546875,0.1634780615568161,0.05196766555309296,0.09022662043571472
1757863881825315800,4.55431591796875,0.14312852919101715,0.031261079013347626,0.09906618297100067
1757863881835302000,4.564302001953125,0.10096295922994614,0.04189135506749153,0.10646071285009384
1757863881845287000,4.574286865234375,0.07202207297086716,0.09458199888467789,0.10457786917686462
1757863881855272700,4.584272705078125,0.05382309854030609,0.11831343173980713,0.08570192009210587
1757863881865257700,4.5942578125,0.04604411497712135,0.11582760512828827,0.068377785384655
1757863881875243800,4.604243896484375,0.04464462399482727,0.11091860383749008,0.06758709251880646
1757863881885228800,4.614228759765625,0.04545709118247032,0.08544351905584335,0.07329278439283371
1757863881895214800,4.62421484375,0.046507976949214935,0.047606125473976135,0.07732108235359192
1757863881905199900,4.634199951171875,0.05977343022823334,0.013128913007676601,0.07869366556406021
1757863881915185700,4.644185546875,0.06940902024507523,-0.031592220067977905,0.07564088702201843
1757863881925172000,4.654171875,0.06341132521629333,-0.06259803473949432,0.07152403146028519
1757863881935156700,4.66415673828125,0.06045015528798103,-0.05909891054034233,0.06681982427835464
1757863881945142800,4.674142822265625,0.05327511206269264,-0.04044821113348007,0.0593736357986927
1757863881955127800,4.6841279296875,0.03634513169527054,-0.01600838080048561,0.05027281492948532
1757863881965113900,4.69411376953125,0.025465868413448334,-0.010387320071458817,0.04003429412841797
1757863881975099000,4.704098876953125,0.022514553740620613,-0.010924478992819786,0.035138338804244995
1757863881985084700,4.714084716796875,0.013062321580946445,-0.00776260532438755,0.03415722772479057
1757863881995069700,4.724069580078125,-0.002069493057206273,-0.013800256885588169,0.042772285640239716
1757863882005056000,4.734055908203125,-0.004896798636764288,-0.02385602705180645,0.04939356818795204
1757863882015040800,4.744040771484375,-0.001793683273717761,-0.0362652949988842,0.04563984274864197
1757863882025026800,4.75402685546875,0.008092878386378288,-0.04603176936507225,0.03789444640278816
1757863882035011800,4.76401171875,0.02850707434117794,-0.06375297158956528,0.030979814007878304
1757863882044997600,4.77399755859375,0.033076055347919464,-0.06725973635911942,0.026862431317567825
1757863882054983000,4.78398291015625,0.020261989906430244,-0.06693323701620102,0.027057642117142677
1757863882064968700,4.79396875,-0.005775203462690115,-0.04991883412003517,0.02881026826798916
1757863882074953700,4.80395361328125,-0.032615337520837784,-0.025512827560305595,0.022294579073786736
1757863882084939800,4.813939697265625,-0.06157192215323448,0.01812763325870037,0.015703393146395683
1757863882094925800,4.82392578125,-0.07761534303426743,0.03936314582824707,0.011660980060696602
1757863882104910800,4.833910888671875,-0.07254712283611298,0.04820133000612259,0.010487586259841919
1757863882114897000,4.84389697265625,-0.053454384207725525,0.02046583779156208,0.01097015105187893
1757863882124881700,4.853881591796875,-0.02124895341694355,-0.026251021772623062,0.007346915081143379
1757863882134868000,4.863867919921875,0.00270990957506001,-0.05501742288470268,0.0008400134975090623
1757863882144853000,4.87385302734375,-0.002834463492035866,-0.05061124265193939,-0.007604596205055714
1757863882154838800,4.8838388671875,-0.02037670463323593,-0.041480593383312225,-0.011449667625129223
1757863882164823800,4.89382373046875,-0.04065271466970444,-0.014618744142353535,-0.013978608883917332
1757863882174809600,4.9038095703125,-0.053099531680345535,0.016221193596720695,-0.012980989180505276
1757863882184795000,4.913794921875,-0.05614367872476578,0.01895250752568245,-0.0048831189051270485
1757863882194781000,4.923781005859375,-0.047766439616680145,0.010072728618979454,-0.001914493041113019
1757863882204765700,4.933765625,-0.030098026618361473,-0.006643484812229872,-0.0017084968276321888
1757863882214751700,4.943751708984375,-0.01305059902369976,-0.013120025396347046,0.002134444657713175
1757863882224736800,4.95373681640625,-0.008576315827667713,-0.0168724674731493,0.001332571730017662
1757863882234723000,4.96372314453125,-0.015337282791733742,-0.027181563898921013,-0.002111960668116808
1757863882244708000,4.9737080078125,-0.019653594121336937,-0.031090985983610153,-0.0032278245780617
1757863882254694000,4.98369384765625,-0.025798838585615158,-0.015595917589962482,-0.002406239276751876
1757863882264679000,4.993678955078125,-0.03878210857510567,0.00442418921738863,-0.002367227105423808
1757863882274665200,5.003665283203125,-0.04493454471230507,0.024461548775434494,-0.006689803674817085
1757863882284651000,5.013651123046875,-0.045493099838495255,0.03734811022877693,-0.0062744878232479095
1757863882294636000,5.023635986328125,-0.04630749672651291,0.04361346364021301,-0.0026073146145790815
1757863882304621800,5.033621826171875,-0.03542259708046913,0.03159138560295105,-0.005994461011141539
1757863882314607000,5.043607177734375,-0.01778341457247734,-0.002459526527673006,-0.014913920313119888
1757863882324593200,5.05359326171875,-0.003913747146725655,-0.0309970173984766,-0.019370179623365402
1757863882334578000,5.063577880859375,0.00694609060883522,-0.02045196294784546,-0.021245045587420464
1757863882344564000,5.07356396484375,0.01295427605509758,-0.008653152734041214,-0.020843837410211563
1757863882354549000,5.083549072265625,0.010254363529384136,0.004848540760576725,-0.02371872030198574
1757863882364535000,5.09353515625,0.0052310931496322155,0.01670500636100769,-0.02088005840778351
1757863882374520000,5.10352001953125,-0.00261031836271286,0.027267368510365486,-0.023166915401816368
1757863882384506000,5.113506103515625,-0.018451692536473274,0.03368644788861275,-0.03138609975576401
1757863882394491000,5.123490966796875,-0.035854388028383255,0.029448557645082474,-0.039846695959568024
1757863882404477200,5.133477294921875,-0.04262235760688782,0.03092968836426735,-0.043447814881801605
1757863882414462200,5.143462158203125,-0.04064974933862686,0.03314384073019028,-0.04021287336945534
1757863882424448000,5.153447998046875,-0.023010868579149246,0.019952282309532166,-0.03662985935807228
1757863882434434000,5.16343408203125,-0.010222901590168476,0.010087667964398861,-0.03398773819208145
1757863882444419000,5.173419189453125,-0.0016023272182792425,0.00658772885799408,-0.03118329867720604
1757863882454405000,5.183405029296875,0.006081957835704088,0.01435537077486515,-0.032538846135139465
1757863882464390100,5.19339013671875,-0.003056648885831237,0.025049416348338127,-0.027601076290011406
1757863882474376000,5.2033759765625,-0.023428233340382576,0.02963218279182911,-0.0210595540702343
1757863882484361000,5.21336083984375,-0.03732650354504585,0.03837175667285919,-0.017439255490899086
1757863882494347000,5.223346923828125,-0.030059002339839935,0.04207967594265938,-0.01650129072368145
1757863882504332000,5.23333203125,-0.01698017306625843,0.04797489941120148,-0.022491799667477608
1757863882514318000,5.243318115234375,-0.0018302485113963485,0.039782483130693436,-0.025167478248476982
1757863882524302800,5.253302734375,0.01867314800620079,0.03431535139679909,-0.02184997871518135
1757863882534289200,5.2632890625,0.021693704649806023,0.020357724279165268,-0.01571512222290039
1757863882544274200,5.273274169921875,0.011211487464606762,0.01922568678855896,-0.012151814065873623
1757863882554260000,5.283260009765625,-0.004697437398135662,0.049521274864673615,-0.011598941870033741
1757863882564245000,5.293244873046875,-0.01631699688732624,0.06366933137178421,-0.010998263955116272
1757863882574231000,5.30323095703125,-0.011663923040032387,0.054069697856903076,-0.013463019393384457
1757863882584216000,5.313216064453125,-0.0007412347476929426,0.04220995306968689,-0.019754081964492798
1757863882594202000,5.3232021484375,0.007604845333844423,0.02397235855460167,-0.027538232505321503
1757863882604188000,5.33318798828125,0.013833181001245975,-0.004415339790284634,-0.02836327999830246
1757863882614173000,5.3431728515625,0.018890593200922012,-0.025390328839421272,-0.02148791402578354
1757863882624159000,5.353158935546875,0.023730412125587463,-0.012946448288857937,-0.012146353721618652
1757863882634144000,5.36314404296875,0.012502792291343212,0.007537255063652992,-0.003274298971518874
1757863882644130000,5.373130126953125,0.00865236297249794,0.030438454821705818,-0.004613340832293034
1757863882654115000,5.383114990234375,0.0025795558467507362,0.05380343273282051,-0.009929276071488857
1757863882664101000,5.39310107421875,-0.005619035102427006,0.07421624660491943,-0.012178055942058563
1757863882674086100,5.403086181640625,-0.01439894549548626,0.06686752289533615,-0.020004021003842354
1757863882684072000,5.413072021484375,-0.012760723009705544,0.04261520504951477,-0.024249883368611336
1757863882694057000,5.423056884765625,-0.014994049444794655,0.039394110441207886,-0.02115289494395256
1757863882704043300,5.433043212890625,-0.025557616725564003,0.029972389340400696,-0.013486063107848167
1757863882714028000,5.443028076171875,-0.034961774945259094,0.034605223685503006,-0.007744819391518831
1757863882724014000,5.45301416015625,-0.042214423418045044,0.05131104215979576,-0.006983679253607988
1757863882733999000,5.4629990234375,-0.05122948810458183,0.06402178108692169,-0.007810591254383326
1757863882743985000,5.47298486328125,-0.053243521600961685,0.076628178358078,-0.003040996380150318
1757863882753970200,5.48297021484375,-0.09114962071180344,0.07140838354825974,-0.0038207699544727802
1757863882763956000,5.4929560546875,-0.11229748278856277,0.10910166800022125,0.004940626211464405
1757863882773941000,5.50294091796875,-0.12077724933624268,0.16098962724208832,0.036872994154691696
1757863882783927000,5.512927001953125,-0.028523610904812813,0.07864196598529816,-0.02536442130804062
1757863882793913000,5.5229130859375,0.04079074785113335,-0.004675033036619425,-0.024011002853512764
1757863882803898000,5.532898193359375,0.07395370304584503,-0.06674008816480637,-0.002941271523013711
1757863882813884000,5.5428837890625,0.06793735176324844,-0.07420998811721802,0.015386869199573994
1757863882823869000,5.552868896484375,0.0264748465269804,-0.044716738164424896,0.024008585140109062
1757863882833855200,5.562855224609375,-0.007199226412922144,0.015478160232305527,0.013155138120055199
1757863882843840000,5.572840087890625,-0.014205284416675568,0.039745032787323,0.00163510930724442
1757863882853826000,5.582825927734375,0.005352437496185303,0.028126724064350128,-0.0016195399221032858
1757863882863811000,5.59281103515625,0.04791874438524246,-0.026703478768467903,0.009615263901650906
1757863882873796900,5.602796875,0.06288278102874756,-0.07817891985177994,0.020532360300421715
