time,seconds_elapsed,z,y,x
1757859047923659800,34.96065966796875,3.490147470092773,9.464428800201416,-0.5351040710449219
1757859047933643800,34.97064379882813,3.7427357452392576,10.297012427520752,-0.5787982513427734
1757859047943626800,34.980626708984374,4.070442097473144,11.004798293304445,-0.8074445098876952
1757859047953610800,34.99061083984375,4.154987343597412,11.710339595031735,-0.9745897132873534
1757859047963593700,35.00059375,4.273799600982666,12.326696884918212,-0.8019079185485839
1757859047973577700,35.01057763671875,4.190002542877197,12.649465196228029,-0.3497030799865722
1757859047983560700,35.020560791015626,3.8877345832824703,12.69286010131836,0.2703951499938964
1757859047993544700,35.030544677734376,3.305943579864502,12.061539051055908,0.8456020988464354
1757859048003529000,35.04052905273438,2.3246201744079587,10.933570793914797,1.036090768432617
1757859048013511700,35.05051171875,2.007388454437256,10.45802248916626,1.010652375793457
1757859048023495700,35.06049560546875,2.5980080764770506,10.771064356231689,1.0474632263183594
1757859048033478700,35.07047875976563,3.6789901260375975,11.669787804412842,0.6091746849060058
1757859048043462700,35.08046264648438,4.352209705352783,12.638990563964844,-0.2724900764465331
1757859048053446000,35.09044580078125,3.8525697463989257,13.134739945220948,-1.1168950744628905
1757859048063430000,35.100429931640626,2.84086990737915,12.70542966003418,-1.357961254119873
1757859048073412600,35.11041259765625,2.048239520263672,11.651831291961669,-0.7429507026672363
1757859048083396600,35.12039672851562,1.467047067260742,10.561272435760497,0.2980781066894531
1757859048093379800,35.1303798828125,1.2310685661315917,9.61376712875366,1.253214931488037
1757859048103363800,35.14036376953125,1.2517185554504393,8.824279131317137,1.9557634811401363
1757859048113346800,35.150346923828124,1.2880804931640624,8.298751866912841,2.3127988037109373
1757859048123330800,35.160330810546874,1.248127252960205,8.097489289855957,2.185307565307617
1757859048133314800,35.170314697265624,1.0676643028259276,8.262988479614258,1.5373767410278318
1757859048143297800,35.1802978515625,1.175852290344238,8.93800371017456,0.9873089096069336
1757859048153281800,35.19028173828125,1.4649521408081054,10.097395864105223,0.8460510116577148
1757859048163264800,35.2002646484375,1.6090531532287595,11.244966647338869,0.8339303657531738
1757859048173248800,35.21024877929688,1.6690578323364256,11.988066987609862,0.8873509902954101
1757859048183231700,35.22023168945312,1.700781004333496,12.147730310821531,0.9534908111572266
1757859048193215700,35.2302158203125,1.756446192932129,11.856984446716307,1.121084927368164
1757859048203198700,35.24019873046875,1.5764321556091307,11.074379779052734,0.9445125549316404
1757859048213182700,35.2501826171875,1.6907552848815917,10.613047046661377,1.1866261978149413
1757859048223165700,35.260165771484374,2.0415058280944822,10.619032550811768,1.7151462142944336
1757859048233149700,35.270149658203124,2.249651734924316,10.477325740051269,1.8543091857910157
1757859048243133000,35.2801328125,2.314744092559814,9.992799179077148,1.802833850097656
1757859048253117000,35.29011694335937,1.914014589691162,8.988132307434082,0.9925462257385254
1757859048263100700,35.3001005859375,1.68551796875,8.110507761383056,0.2852092727661132
1757859048273083600,35.310083740234376,1.732055263519287,7.447463539123535,-0.0656909080505371
1757859048283067600,35.320067626953126,1.9168577041625976,6.903979762268066,-0.295534267425537
1757859048293051000,35.33005078125,1.9122189384460448,6.544400600433349,-0.3488052543640136
1757859048303035000,35.340034912109374,2.078915229034424,6.227318518066406,-0.2524386375427246
1757859048313017900,35.35001782226563,1.9092261863708493,5.957222643280029,-0.420032753753662
1757859048323001600,35.36000170898438,1.8477251312255856,5.736207902526855,-0.680551821899414
1757859048332984600,35.369984619140624,1.8751088127136228,5.506514180755615,-0.9356839363098144
1757859048342968600,35.379968505859374,1.9987094734191893,5.389796849822997,-1.1341033988952636
1757859048352951800,35.38995190429687,2.043451116943359,5.4029649589538575,-1.0682628532409668
1757859048362935800,35.39993579101562,1.97267253036499,5.463418550872802,-0.7966706024169922
1757859048372918800,35.409918701171875,2.0632032806396485,5.662436563873291,-0.4914098907470703
1757859048382902500,35.419902587890626,2.1848586524963376,6.127510236358642,-0.3636193771362304
1757859048392886500,35.429886474609376,2.4072201316833493,6.775141785430908,-0.2801215942382812
1757859048402869800,35.439869873046874,2.500294721221924,7.434295429992676,-0.5250783515930175
1757859048412853800,35.449853759765624,2.377741523742676,8.078186038970946,-0.8385691314697266
1757859048422836700,35.45983666992188,2.3644237770080565,8.595483235168457,-1.0537480056762694
1757859048432820700,35.46982080078125,2.3964462242126463,8.985289192962647,-1.1701660614013671
1757859048442803700,35.4798037109375,2.467075173187256,9.394099126434323,-1.0535983680725096
1757859048452787700,35.48978759765625,2.562543964385986,9.733028298950195,-0.8035539321899413
1757859048462770700,35.49977075195312,2.650979788208008,9.79946739501953,-0.4580407051086425
1757859048472754700,35.50975463867187,2.690334477996826,9.680655137634275,-0.1544260070800781
1757859048482737700,35.519737548828125,2.712031930541992,9.720608377838134,0.1011550201416015
1757859048492722000,35.52972192382813,2.810343836212158,9.929352835083009,0.2415150924682617
1757859048502704600,35.53970458984375,2.792985874176025,10.254814623260495,0.1150713172912597
1757859048512688600,35.549688720703124,2.693476867675781,10.746224514007569,-0.2337339370727539
1757859048522672600,35.559672607421874,2.7768250129699705,11.2232691947937,-0.5865794067382812
1757859048532655600,35.56965551757813,2.689586289978027,11.799523606872558,-1.143380930328369
1757859048542639600,35.5796396484375,2.7207109115600585,12.422464951324462,-1.5544354278564452
1757859048552623400,35.58962329101563,2.620304079437256,12.905644773864744,-1.523909356689453
1757859048562607400,35.599607421875,2.382679564666748,12.95906539840698,-1.3174094635009763
1757859048572590300,35.60959033203125,2.356642621612549,12.65993982849121,-0.7647977928161621
1757859048582574300,35.61957421875,2.283020920562744,12.41109249343872,-0.2952349922180176
1757859048592557300,35.62955737304687,2.506729138183593,12.154912915802,-0.3495534423828125
1757859048602541300,35.63954125976562,2.836680054473877,12.25083061981201,-0.8001122673034667
1757859048612524300,35.649524169921875,3.372831588745117,12.874969065093993,-1.2657844902038573
1757859048622508300,35.65950830078125,3.2426468734741207,13.689446542358398,-1.5816694717407225
1757859048632491300,35.6694912109375,2.652027251434326,13.971812700653077,-1.6593313880920408
1757859048642475300,35.67947534179687,1.811213555908203,13.620313969421384,-1.608155327606201
1757859048652459300,35.689459228515624,1.3109750465393066,12.85880820388794,-1.2556091331481931
1757859048662442200,35.69944213867188,1.0721534309387206,11.97100830078125,-1.0654197387695312
1757859048672426200,35.70942626953125,0.7248445526123046,10.938658472442626,-1.246630876922607
1757859048682409200,35.7194091796875,0.4777928688049316,9.841665199279785,-1.390582251739502
1757859048692393200,35.729393310546875,0.3634697395324707,9.007585195922852,-1.3729250144958496
1757859048702376400,35.73937646484375,0.2657563842773437,8.694244053649902,-1.168968960571289
1757859048712360400,35.7493603515625,0.414346524810791,8.756942209625244,-1.1502642601013182
1757859048722343200,35.75934326171875,0.5027823486328125,9.355342987060546,-1.250072541809082
1757859048732327200,35.7693271484375,0.4944026428222656,10.0740523979187,-1.1315595596313477
1757859048742310400,35.77931030273437,0.2835632591247558,10.690708963012694,-0.9072527915954588
1757859048752294400,35.78929443359375,-0.0266354934692382,11.154286259460449,-0.7733271362304687
1757859048762278400,35.7992783203125,-0.2247556808471679,11.608137111663815,-0.6163572898864745
1757859048772261400,35.80926147460937,-0.1463455764770507,11.965920622253416,-0.4765957679748535
1757859048782245400,35.81924536132812,0.1340752929687499,12.234969033813476,-0.3450643142700195
1757859048792228000,35.82922802734375,0.2133832229614257,12.052560794830322,-0.485873299407959
1757859048802212400,35.83921240234375,0.5856815811157227,12.285097631072995,-0.1666962905883789
1757859048812195300,35.8491953125,1.1685200477600095,12.150723062896729,0.0915782135009765
1757859048822179300,35.85917944335937,1.1023802268981933,11.090391002655029,-0.2314893730163574
1757859048832162300,35.86916235351563,0.916829598236084,10.002076710510254,-0.6542156036376953
1757859048842146300,35.87914624023438,1.1508628105163574,8.965985942077635,-0.9460089309692382
1757859048852129300,35.88912939453125,1.1935095275878906,8.302492807006836,-0.9469067565917968
1757859048862113300,35.89911328125,1.101183126068115,7.700650364685058,-0.8123825508117676
1757859048872097300,35.90909716796875,1.084124439239502,6.957849299621581,-0.6299743118286133
1757859048882080300,35.91908032226563,0.9322422714233398,6.35226591720581,-0.3315969299316406
1757859048892064300,35.92906420898437,0.8530839790344238,5.914725563812255,0.0417488914489746
1757859048902047500,35.93904760742188,0.8632593360900879,5.703287629699707,0.3417722869873046
1757859048912031500,35.94903149414063,0.8687959274291992,5.641636936950683,0.3857657424926757
1757859048922014200,35.95901416015625,0.8880991783142089,5.604826086425781,0.2917933273315429
1757859048931998200,35.96899829101562,1.0723030685424804,5.618892021179199,0.0924760391235351
1757859048941981400,35.9789814453125,1.1894693122863769,5.945401272583007,-0.0987608184814453
1757859048951965400,35.98896533203125,1.4196119468688964,6.332813028717041,-0.3751414726257324
1757859048961948400,35.998948486328125,1.612644455718994,6.621613603973389,-0.8265981231689452
1757859048971932400,36.008932373046875,1.7573440185546874,6.836792478179931,-1.1109095703125
1757859048981915100,36.0189150390625,2.166004314422607,6.883030497741699,-1.0640730003356933
1757859048991899100,36.02889916992188,2.4130559982299804,6.8970964324951165,-0.7261912910461426
1757859049001883400,36.03888330078125,2.441337505340576,6.859687031555176,-0.4236240562438965
1757859049011866400,36.04886645507813,2.309806051635742,6.849362036895752,-0.1827075141906738
1757859049021850400,36.05885034179688,2.1054010848999023,7.046584398651123,-0.1994669258117675
1757859049031833300,36.06883325195312,1.982847887420654,7.555352251434326,-0.455197590637207
1757859049041817300,36.0788173828125,2.268805348205566,8.333467790985107,-0.4381389038085937
1757859049051800300,36.08880029296875,2.7263971405029297,8.916755170440673,-0.3488052543640136
1757859049061784300,36.09878442382813,3.0144495277404784,9.157671712493896,-0.4231751434326171
1757859049071767300,36.108767333984375,3.205536747741699,9.247903187561034,-0.5491700057983399
1757859049081751300,36.118751220703125,3.2046389221191403,9.325116191101074,-0.6385036552429199
1757859049091734500,36.12873461914062,3.319261326599121,9.624690673828123,-0.5987000526428222
1757859049101718500,36.13871850585937,3.447051840209961,10.323498283386227,-0.3693056060791015
1757859049111702300,36.14870239257812,3.60102893447876,11.148450392913816,-0.1702875930786132
1757859049121685200,36.158685302734376,3.748272336578369,11.896937686920165,-0.0565630142211914
1757859049131669200,36.16866918945313,3.976320044708252,12.484414919281004,0.0100257194519042
1757859049141652200,36.17865234375,4.248211570739746,12.83277126083374,0.1891419311523437
1757859049151636500,36.188636474609375,4.29025973739624,12.720393420410156,0.3124433166503906
1757859049161619500,36.19861938476563,3.543867369842529,11.933898175048828,0.058059390258789
1757859049171603200,36.20860327148438,2.831891651153564,11.029338860321044,-0.093822777557373
1757859049181586200,36.218586181640624,2.779069577026367,10.905438924407958,0.0046387657165527
1757859049191570200,36.228570068359375,3.0359973426818847,11.46583175048828,-0.0073322425842285
1757859049201553400,36.23855346679687,3.6559459350585937,12.44311494064331,-0.1108814643859863
1757859049211537400,36.24853735351562,3.8177041847229,13.29829384613037,-0.3253121505737305
1757859049221520400,36.25852026367188,3.399167807006836,13.498808235168456,-0.601992079925537
1757859049231504100,36.26850415039063,2.427870121002197,12.996325161743163,-0.5834370170593262
1757859049241488100,36.278488037109376,1.7549498168945312,11.940781504821777,0.0381575889587402
1757859049251471400,36.28847143554688,1.6141408317565915,10.839598378753662,0.8111854499816894
1757859049261455400,36.298455322265625,1.81330848236084,9.854534033203125,1.3973159439086913
1757859049271438300,36.30843823242188,1.8632874420166012,9.00803410873413,1.6178817718505858
1757859049281422300,36.31842236328125,1.5578770927429195,8.353668867492676,1.6074071395874023
1757859049291405300,36.3284052734375,1.2339116806030272,7.828291240692138,1.335964526367187
1757859049301389300,36.33838940429688,1.011250926208496,7.652018143463135,1.123030216217041
1757859049311372300,36.34837231445312,0.7707832969665527,7.977629569244384,0.9976339042663572
1757859049321356300,36.35835620117187,0.9829694190979004,8.627206407165527,0.9721955116271972
1757859049331339300,36.36833935546875,1.2750620216369628,9.61421604156494,1.0048165092468262
1757859049341323300,36.3783232421875,1.5611691200256346,10.656890864562987,1.0363900436401368
1757859049351307500,36.3883076171875,1.850717883300781,11.465083562469482,0.9600748657226562
1757859049361290200,36.39829028320312,1.857152300262451,11.974001052856444,0.730381143951416
1757859049371274200,36.408274169921874,1.7184382415771484,12.011111178588866,0.8071452346801757
1757859049381257200,36.41825732421875,1.5752350547790526,11.80999823913574,0.914285758972168
1757859049391241200,36.4282412109375,1.444152513885498,11.450867990112304,0.9765350021362303
1757859049401224400,36.438224365234376,1.336862351989746,10.603021327209472,1.0977414611816405
1757859049411208400,36.44820849609375,1.269675067901611,9.712079034423828,1.064970825958252
1757859049421191200,36.45819116210937,1.4061445625305176,8.939500086212158,0.8836100502014159
1757859049431175200,36.46817504882812,1.69823716506958,8.264634493255615,0.5225345123291015
1757859049441158400,36.47815844726563,1.895010614013672,7.700051814270019,0.0115220954895019
1757859049451142400,36.48814233398438,2.016217073059082,7.180360416412353,-0.4441244079589843
1757859049461125400,36.49812548828125,2.0802619674682616,6.732943981170654,-0.7755717002868652
1757859049471109400,36.508109375,1.9838953506469723,6.2846297203063965,-1.1209352897644045
1757859049481093400,36.51809326171875,2.0569185012817384,5.999570085144042,-1.1857283721923828
1757859049491076400,36.52807641601562,1.811961743927002,5.956175180053711,-1.107018992614746
1757859049501060400,36.53806030273437,1.887079821014404,5.830928505706787,-0.9494505958557128
1757859049511043300,36.54804321289063,1.8816928672790527,5.74563507156372,-0.7359177352905273
1757859049521027300,36.55802734375,2.0136732337951657,5.845892266082763,-0.469263525390625
1757859049531010300,36.56801025390625,1.990629042816162,5.878513263702392,-0.5699696327209473
1757859049540994300,36.57799438476562,2.2252608055114744,6.083067868041992,-0.848445213317871
1757859049550976800,36.58797680664063,2.2744915771484373,6.509535038757324,-1.0945990715026854
1757859049560960800,36.597960693359376,2.3870190551757813,6.961590239715576,-1.240495735168457
1757859049570943700,36.60794384765625,2.291250988769531,7.4405802093505855,-1.2261305252075194
1757859049580927700,36.617927734375,2.1513398292541503,7.7130702857971185,-0.996586441040039
1757859049590911700,36.62791186523437,1.93451494140625,7.950395525360107,-0.7133224571228027
1757859049600895000,36.63789501953125,1.7910124794006346,8.21645118484497,-0.4394856422424316
1757859049610878700,36.64787866210938,1.8501193328857424,8.51677385559082,-0.1916857704162597
1757859049620861700,36.65786181640625,2.04315184173584,8.98214680328369,-0.0525227989196777
1757859049630845700,36.667845703125,2.2082021186828613,9.46742155227661,-0.1836053398132324
1757859049640829000,36.67782885742187,2.354098782348633,9.813084416961669,-0.5380968231201172
1757859049650813000,36.68781298828125,2.4220342544555664,10.0617821144104,-0.656310530090332
1757859049660796000,36.6977958984375,2.325966912841797,10.11954222946167,-0.591816722869873
1757859049670779600,36.707779541015626,2.124255422973633,10.193163930511474,-0.3538929328918457
1757859049680763000,36.71776293945312,2.1115362266540525,10.382605136871335,0.0019452888488769
1757859049690747000,36.727746826171874,2.1715409057617188,10.645069493865966,0.1071405242919921
1757859049700731000,36.73773095703125,2.1335329544067383,11.095029768371582,-0.0719756874084472
1757859049710713900,36.7477138671875,2.114528978729248,11.72814646987915,-0.4454711463928222
1757859049720697900,36.75769775390625,2.255786876678467,12.389245403289792,-0.9162310478210448
1757859049730680800,36.767680908203126,2.36247848815918,12.917765419769289,-1.251868193054199
1757859049740664800,36.77766479492188,2.4275708457946776,13.141024724578855,-1.226429800415039
1757859049750647800,36.78764770507812,2.3828292022705075,13.022661380004882,-1.188870761871338
1757859049760631800,36.7976318359375,2.4046762924194334,12.804789028930664,-1.1671733093261718
1757859049770614800,36.80761474609375,2.618209152984619,12.89517014160156,-1.1233294914245604
1757859049780598800,36.81759887695313,2.7564742988586426,13.529783219146728,-0.8716390419006347
1757859049790581800,36.827581787109374,2.6487352241516118,14.312238249206542,-0.5728127471923827
1757859049800565800,36.83756567382813,2.121262670898437,14.776114820861816,-0.5559036979675293
1757859049810549800,36.8475498046875,1.4118307914733883,14.640094239044188,-0.5117606048583984
1757859049820532700,36.85753271484375,0.6877344268798827,13.811850102233883,-0.5428852264404297
1757859049830516700,36.86751684570312,-0.0432452674865722,12.247688230133056,-0.9036614891052246
1757859049840500000,36.8775,-0.1360205818176269,11.01916350326538,-1.3157634498596191
1757859049850484000,36.88748388671875,0.0302267959594726,10.376170719909668,-1.3747206657409667
1757859049860466700,36.897466796875,0.2398690788269042,9.998934320831298,-1.292270346069336
1757859049870450700,36.90745068359375,0.5225345123291015,9.676016371917724,-1.2904746948242187
1757859049880434000,36.91743383789063,0.8307879760742187,9.591770401000977,-1.1192892761230469
1757859049890418000,36.92741796875,1.0588356842041016,9.866505041503906,-0.7821557548522948
1757859049900401000,36.93740087890625,1.2605471740722656,10.342951171875,-0.5693710823059082
1757859049910385000,36.947385009765625,1.1870751106262207,10.90439146118164,-0.632667788696289
1757859049920367600,36.95736767578125,0.9006687370300293,11.527781718444825,-0.7528267845153808
1757859049930351600,36.9673515625,0.7634510543823242,11.97040975036621,-0.6573579933166503
1757859049940335900,36.9773359375,0.4490624488830566,12.14952596206665,-0.3767874862670898
1757859049950318800,36.98731884765625,0.5461772537231445,12.145336109161375,-0.1759738220214843
1757859049960302800,36.997302734375,0.9262567672729493,12.07859773788452,0.0206499893188476
1757859049970285800,37.00728588867187,1.170764611816406,11.675324395751952,-0.0559644638061523
1757859049980269800,37.01726977539062,1.2825439018249511,10.922497611236572,-0.4320037620544433
1757859049990252800,37.02725268554688,1.3407529296874998,10.033500607299803,-0.8321347145080565
1757859050000236800,37.03723681640625,1.356913790893555,9.163507579040528,-0.9879074600219726
1757859050010219800,37.0472197265625,1.1822867073059082,8.423549628448486,-1.0206780952453611
1757859050020203800,37.05720385742188,0.98311905670166,7.734917375946044,-0.9288006065368652
1757859050030187000,37.06718701171875,1.020229182434082,7.115118421173095,-0.6453869850158691
1757859050040171000,37.0771708984375,1.0491092399597168,6.680121907043457,-0.2817676078796386
1757859050050155000,37.08715502929687,1.0922048698425293,6.412719509124756,0.0876876358032226
1757859050060137700,37.0971376953125,1.2068272743225097,6.272957987213134,0.526125814819336
1757859050070121700,37.10712182617188,1.2835913650512694,6.152948628997803,0.8119336380004882
1757859050080104700,37.11710473632812,1.0940005210876464,6.138583419036864,0.8080430603027343
1757859050090089000,37.1270888671875,1.107767180633545,6.130502988433838,0.5737105728149414
1757859050100072000,37.13707202148437,1.4827590156555177,6.124068571472168,0.0824503196716308
1757859050110056000,37.14705590820312,1.6231190879821775,6.406285092163086,-0.4165910888671875
1757859050120038700,37.15703857421875,1.71739077835083,6.6717422012329095,-0.7674912696838379
1757859050130022700,37.167022705078125,2.0624550926208496,6.826317845916748,-1.0030208580017088
1757859050140006000,37.177005859375,2.4830863967895507,6.977302188110351,-0.8698433906555175
1757859050149990000,37.18698999023437,2.695422156524658,7.104793426513671,-0.6995557975769042
1757859050159974000,37.19697387695312,2.900126398468017,7.155670211791992,-0.4626794708251953
1757859050169956900,37.20695678710938,2.8368296920776364,7.331045483398437,-0.1306336280822753
1757859050179940900,37.21694091796875,3.0352491546630858,7.357680976867675,-0.0163104988098144
1757859050189923800,37.226923828125,3.235314630889893,7.422623696899413,-0.1240495735168457
1757859050199907800,37.236907958984375,3.388693174743652,7.693617397308349,-0.2874538368225097
1757859050209890800,37.24689086914063,3.706673082733154,7.962067258453368,-0.3544914833068847
1757859050219874800,37.25687475585938,3.961655559539795,8.014141144561767,-0.3699041564941406
1757859050229858000,37.26685815429688,3.908833485412597,7.950395525360107,-0.5187935722351074
1757859050239842000,37.27684204101563,3.809773391723633,7.930792999267577,-0.4625298332214355
1757859050249824800,37.28682470703125,4.007893579101562,8.060229526519775,-0.2139817733764648
1757859050259808800,37.29680883789062,4.431816910552978,8.615983586883544,-0.0190039756774902
1757859050269792800,37.30679272460937,4.832696051025391,9.472658868408203,0.0543184501647949
1757859050279775700,37.31677563476563,5.0939633071899415,10.162188946533202,0.0932242271423339
1757859050289760000,37.32676000976563,5.248538951873779,10.684274546051023,0.2109890213012695
1757859050299743000,37.33674291992188,5.3883004737854,11.071686302185055,0.428412459564209
1757859050309726700,37.34672680664063,5.315426960754394,11.230302162170409,0.733523533630371
1757859050319709700,37.35670971679688,4.910058692169189,11.149797131347656,1.1207856521606443
1757859050329693700,37.36669360351563,4.405331054687499,10.50785181121826,1.2285247268676758
1757859050339677000,37.37667700195313,3.706673082733154,9.727342070007325,1.0547954689025878
1757859050349661000,37.38666088867188,3.551049974822998,9.661950437164306,1.0051157844543457
1757859050359644000,37.39664379882812,3.961655559539795,10.26648635635376,0.8803180229187011
1757859050369627600,37.40662768554687,4.750993919372558,11.384428894042967,0.4613327323913574
1757859050379611600,37.41661157226562,5.319916088867188,12.280009952545166,0.0760159027099609
1757859050389595000,37.42659497070313,5.045331085968018,12.388946128082274,-0.1354220314025878
1757859050399579000,37.43657885742188,4.263324968719482,11.834089893341064,-0.0026934768676757
1757859050409561900,37.446561767578125,3.910329861450195,11.039813492584228,0.6651391487121582
1757859050419545900,37.4565458984375,3.5078047073364256,10.026168364715575,1.4836568412780762
1757859050429528800,37.46652880859375,3.092261081695556,9.402478832244872,2.2111948707580567
1757859050439512800,37.47651293945312,2.9792846908569333,8.93770443496704,2.5713725830078125
1757859050449495800,37.486495849609376,3.0353987922668457,8.539818046569824,2.3306056785583493
1757859050459479800,37.496479736328126,3.024026334381104,8.41472100982666,1.749862138366699
1757859050469463800,37.5064638671875,2.953397385406494,8.5157263923645,1.2714707191467285
1757859050479446800,37.51644677734375,3.01968684387207,9.146149617004394,1.361103643798828
1757859050489430800,37.5264306640625,3.050362552642822,9.815328981018066,1.5925930168151854
1757859050499413800,37.53641381835938,3.2071827613830566,10.267084906768796,1.6747440612792968
1757859050509397800,37.54639770507813,3.2302269523620604,10.60526589126587,1.7398364189147948
1757859050519380700,37.55638061523437,3.1765070526123047,10.773308920288086,1.577778894042969
1757859050529364700,37.56636474609375,3.252074042510986,10.660182891845702,1.3953706550598144
1757859050539348000,37.57634790039062,3.2130186279296877,10.181641835021972,1.236156244659424
1757859050549332000,37.58633203125,3.0111575004577635,9.51291138381958,1.1773486663818358
1757859050559315000,37.59631494140625,2.839972081756592,8.914959519195556,1.27685767288208
1757859050569299000,37.606298828125,2.724900764465332,8.397363047790527,1.4423568626403809
1757859050579283000,37.61628295898438,2.666242823791504,7.956530667114257,1.4217068733215332
1757859050589266200,37.62626611328125,2.562543964385986,7.625382649993896,1.107767180633545
1757859050599250000,37.63625,2.4254759193420408,7.328501644134521,0.6795043586730957
1757859050609233000,37.64623291015625,2.394949848175049,7.091625317382812,0.1042974098205566
1757859050619217000,37.656216796875,2.3642741394042965,6.798185976409911,-0.436043977355957
1757859050629200000,37.66619995117188,2.384175940704345,6.508188300323486,-0.755220986175537
1757859050639184000,37.67618383789063,2.314145542144775,6.247070681762695,-0.8430582595825195
1757859050649167000,37.6861669921875,2.4492682983398435,6.134543203735351,-0.3604769874572753
1757859050659150800,37.69615087890625,2.470217562866211,6.232705471801758,0.2341828498840331
1757859050669134800,37.706134765625,2.4703672004699704,6.394613359069824,0.5942109245300292
1757859050679117800,37.71611791992188,2.507178050994873,6.48664048538208,0.5430348640441894
1757859050689101800,37.72610180664063,2.4899697265625,6.6141317237854,0.2674023979187011
1757859050699085000,37.7360849609375,2.574215697479248,6.747758103942871,-0.065092357635498
1757859050709069000,37.74606909179688,2.510320440673828,6.859387756347656,-0.2516904495239258
1757859050719051800,37.7560517578125,2.618059515380859,6.929268517303466,-0.1045966850280761
1757859050729035800,37.76603588867187,2.587234169006348,7.1887401222229,0.18510171585083
1757859050739019000,37.77601904296875,2.6617536956787107,7.466916427612304,0.397736750793457
1757859050749003000,37.7860029296875,2.8188731796264648,7.754819177246094,0.4827309097290039
1757859050758986000,37.79598608398437,2.957886513519287,8.240243563842773,0.4771943183898925
1757859050768970000,37.80596997070312,3.09031579284668,8.750956705474852,0.3562871345520019
1757859050778954000,37.8159541015625,3.258807734680176,9.235333628845217,0.2774281173706054
1757859050788937000,37.82593701171875,3.5090018081665035,9.380182829284667,0.043394905090332
1757859050798921000,37.8359208984375,3.271377293395996,9.20540610809326,-0.0647930824279785
1757859050808904000,37.845904052734376,3.1757588645935058,8.815151237487793,0.1028010337829589
1757859050818888000,37.855887939453126,3.14104294052124,8.448988021087645,0.2442085693359375
1757859050828871000,37.86587084960937,3.135955261993408,8.505102122497558,0.3274070770263672
1757859050838855000,37.87585498046875,3.339761678314209,8.965985942077635,0.49155952835083
1757859050848838000,37.885837890625,3.40919352645874,9.676166009521484,0.5939116493225097
1757859050858822000,37.89582177734375,3.387795349121093,10.41896707458496,0.4308066612243652
1757859050868806000,37.90580590820313,3.177105603027344,11.138275035858154,-0.1669955657958984
1757859050878788900,37.915788818359374,3.4105402648925778,11.910255433654784,-0.6194996795654296
1757859050888772900,37.92577294921875,3.3457471824645992,12.518831568145751,-1.0359411308288573
1757859050898756000,37.93575610351562,3.2785598983764648,12.51209787597656,-0.9536404487609864
1757859050908740000,37.94573999023437,3.268234903717041,11.991359014892575,-0.5708674583435058
1757859050918722800,37.95572290039063,3.180846543121337,11.518504187011718,-0.2479495094299316
1757859050928706800,37.965706787109376,3.377470354461669,11.343877103424072,0.0942716903686523
1757859050938690000,37.97568994140625,3.518279339599609,11.921927166748048,0.3672106796264648
1757859050948674000,37.98567407226562,3.671508245849609,13.040019342041017,0.514603719329834
1757859050958658000,37.99565795898437,3.5058594184875487,13.766809183502197,0.2264016944885253
1757859050968641000,38.00564111328125,2.777722838592529,13.731195433807372,-0.4996399589538574
1757859050978625000,38.015625,2.3069629371643066,14.154819490051269,-0.5864297691345215
1757859050988608000,38.02560791015625,1.9310732765197756,14.289343695831295,-0.5960065757751465
1757859050998592000,38.035592041015626,1.5863082374572752,12.986748355102538,-0.6958148574829102
1757859051008575000,38.04557495117187,1.3527239379882812,11.55411793670654,-0.9347861106872558
1757859051018559000,38.05555908203125,1.4893430702209471,10.788123043060304,-0.8999205490112304
1757859051028542000,38.0655419921875,1.60231946105957,10.273519323730468,-0.9274538681030272
1757859051038526000,38.07552587890625,1.5346832641601562,10.218751960754394,-1.0498574279785156
1757859051048509000,38.08550903320312,1.306186643218994,10.640730003356932,-0.9350853858947752
1757859051058493000,38.095492919921874,1.0179846183776855,11.118522872161863,-0.7079355033874511
1757859051068477000,38.105476806640624,0.6126163497924805,11.552621560668944,-0.52986675491333
1757859051078460000,38.1154599609375,0.1761234596252441,11.959037292480469,-0.4400841926574707
1757859051088444000,38.12544384765625,-0.0427963546752929,12.19501579360962,-0.2614168937683105
1757859051098427100,38.13542724609375,-0.0692822105407714,12.23856033630371,0.0
1757859051108411000,38.14541088867188,0.3098994773864746,12.106579969787598,0.1527799934387207
1757859051118393900,38.15539379882812,0.6391022056579589,11.776629053497311,0.2250549560546874
1757859051128377900,38.1653779296875,0.947505307006836,11.072733765411376,0.1005564697265625
1757859051138361000,38.17536108398438,1.1592425163269042,10.203788200378415,0.0260369430541992
1757859051148345000,38.18534497070313,1.3189058395385742,9.375843338775637,-0.0014963760375976
1757859051158329000,38.1953291015625,1.3486837226867674,8.583961139678955,0.0902314750671386
1757859051168311800,38.20531176757813,1.425597451019287,7.779958294677733,0.2626139945983886
1757859051178295800,38.2152958984375,1.3660416847229002,7.060051782989501,0.2148795989990234
1757859051188279000,38.22527905273437,1.299901863861084,6.508337937927246,0.1348234809875488
1757859051198263000,38.23526293945312,1.1719617126464843,6.093243225097656,0.0724246002197265
1757859051208246000,38.24524609375,1.2593500732421874,5.8451440780639645,0.0065840545654296
1757859051218230000,38.25522998046875,1.301248602294922,5.859958200836181,0.0022445640563964
1757859051228212700,38.26521264648437,1.3676876983642576,6.148908413696288,0.1146224044799804
1757859051238196700,38.27519677734375,1.5619173080444335,6.411522408294678,0.1488894157409667
1757859051248181000,38.28518090820312,1.5819687469482422,6.623259617614746,0.0407014282226562
1757859051258164000,38.2951640625,1.729361786651611,6.788459532165527,-0.0366612129211425
1757859051268148000,38.30514794921875,1.899050829315185,6.829160960388183,-0.1213560966491699
1757859051278131000,38.315130859375,2.0026000511169437,6.791751559448242,-0.2970306434631347
1757859051288115000,38.325114990234376,2.314893730163574,6.8122519111633295,-0.3298012786865234
1757859051298098000,38.33509790039062,2.4359505516052247,7.164947743225097,-0.220865103149414
1757859051308082000,38.34508203125,2.5878327194213866,7.528417482757568,-0.1072901618957519
1757859051318065000,38.35506494140625,2.7584195877075195,7.744943095397948,-0.0266354934692382
1757859051328049000,38.365048828125,2.805106520080566,7.847295216369629,-0.0306757087707519
1757859051338033000,38.37503295898438,2.9493571701049803,7.864952453613281,-0.0454898315429687
1757859051348016000,38.38501611328125,3.05814370803833,8.104671894836425,0.010175357055664
1757859051358000000,38.39500024414063,3.047818713378906,8.412925358581543,0.2020107650756835
1757859051367982800,38.40498291015625,3.105429190826416,8.556727095794677,0.2096422828674316
1757859051377966800,38.414966796875,3.208828775024414,8.758139310455322,0.1705868682861328
1757859051387949800,38.42494970703125,3.233967892456054,8.923638500213622,0.0710778617858886
1757859051397934000,38.43493408203125,3.2290298515319824,9.131934044647217,-0.082300682067871
1757859051407917000,38.4449169921875,3.3910873764038083,9.523685291290285,-0.100855744934082
1757859051417901000,38.45490112304688,3.8371570732116695,9.99773722000122,-0.0890343742370605
1757859051427883800,38.4648837890625,4.197783698272705,10.600028575134276,-0.0706289489746093
1757859051437867800,38.47486767578125,4.253897799682617,11.150994232177734,-0.0353144744873046
1757859051447851800,38.48485180664063,4.1566333572387695,11.645995425415038,0.1702875930786132
1757859051457835000,38.4948349609375,4.1301475013732905,11.931204698181151,0.5526116706848144
1757859051467819000,38.50481909179688,3.9586628074646,11.94497135772705,0.95124624710083
1757859051477802000,38.51480200195312,3.3131261848449705,11.681908450317382,1.2719196319580075
1757859051487786000,38.52478588867187,2.5959131500244137,10.940903036499025,1.01514150390625
1757859051497769000,38.53476904296875,2.078765591430664,10.707169099426268,0.5380968231201172
1757859051507753000,38.5447529296875,2.7795184898376464,11.659313172149655,0.4037222549438476
1757859051517736000,38.55473583984375,4.134337354278564,13.053935639190671,0.460285269165039
1757859051527720000,38.56471997070312,4.78181926574707,13.692888207244872,0.5608417388916015
1757859051537704000,38.57470385742187,4.359392310333252,13.025953407287597,0.6217442436218261
1757859051547687200,38.58468725585937,3.8174049095153806,11.615469354248049,0.8515876029968261
1757859051557671400,38.59467138671875,3.472190957641601,10.271125122070313,1.3819032707214354
1757859051567654400,38.604654296875,2.9689596961975098,9.351602046966551,2.2375310890197757
1757859051577638400,38.61463842773438,2.4961048683166505,8.387337328338623,2.116174992370605
1757859051587621000,38.62462109375,2.633172913360596,8.442703241729737,3.2454899879455565
1757859051597605000,38.63460522460937,2.6765678184509274,8.373421031188965,3.113509621429443
1757859051607588400,38.64458837890625,2.577058811950684,8.306981935119628,2.1538836685180662
1757859051617572400,38.654572265625,2.6077345207214355,8.626458219146729,1.5529390518188475
1757859051627556400,38.66455639648437,2.637512403869629,9.18759923324585,1.2511200050354003
1757859051637539300,38.67453930664063,2.689287014770508,9.911845235443115,1.4612112007141111
1757859051647523300,38.6845234375,2.859424970245361,10.605116253662109,1.804779138946533
1757859051657506300,38.69450634765625,2.91763399810791,11.026795021057127,1.894262425994873
1757859051667490300,38.704490234375,2.867655038452148,11.03158342437744,1.8543091857910157
1757859051677473300,38.71447338867188,2.721159824371337,10.815955637359618,1.7323545387268064
1757859051687457300,38.72445727539063,2.5891794578552245,10.415226134490966,1.5764321556091307
1757859051697440500,38.7344404296875,2.3300071281433103,9.518298337554931,1.4474445411682129
1757859051707424500,38.74442456054688,2.1103391258239745,8.739135334777831,1.4167688323974608
1757859051717408500,38.754408447265625,2.235885075378418,8.2100167678833,1.4893430702209471
1757859051727391200,38.76439111328125,2.242169854736328,7.765742722320557,1.496525675201416
1757859051737375200,38.77437524414062,2.141314109802246,7.378480603790282,1.3771148674011229
1757859051747358200,38.78435815429688,2.0796634170532227,6.962039152526855,0.980575217437744
1757859051757342500,38.79434252929688,2.0560206756591795,6.573131020355224,0.4522048385620117
1757859051767325400,38.80432543945312,2.159420259857177,6.319495281982421,-0.0942716903686523
1757859051777309400,38.81430932617187,2.258480353546142,6.267421395874023,-0.5319616813659668
1757859051787292200,38.82429223632813,2.390311082458496,6.354510481262206,-0.7249941902160644
1757859051797276200,38.83427612304688,2.5321675308227536,6.431124934387206,-0.6476315490722656
1757859051807260200,38.84426025390625,2.7021558486938475,6.435913337707519,-0.3829226280212402
1757859051817243400,38.854243408203125,2.709937004089355,6.425289067840576,-0.1019032081604003
1757859051827227400,38.86422729492188,2.5212439857482907,6.553079581451415,0.2865560111999511
1757859051837210400,38.87421044921875,2.43879366607666,6.827066033935546,0.7107786178588866
1757859051847194400,38.8841943359375,2.4392425788879395,7.076212644195556,0.910395181274414
1757859051857177300,38.89417724609375,2.4883237129211424,7.285256376647949,0.9280524185180664
1757859051867161300,38.90416137695313,2.390460720062256,7.383269007110595,0.7091326042175292
1757859051877144300,38.91414428710937,2.3678654418945317,7.446416075897217,0.2905962265014648
1757859051887128300,38.92412841796875,2.608781983947754,7.658003647613525,0.0359130249023437
1757859051897111300,38.934111328125,2.899677485656738,7.975085729980468,-0.0685340225219726
1757859051907095600,38.94409545898438,3.2035914588928223,8.413374271392822,0.07018003616333
1757859051917079300,38.95407934570313,3.331980522918701,8.837297602844238,0.5322609565734863
1757859051927062300,38.964062255859375,3.4630630638122555,8.86138925704956,1.0203788200378416
1757859051937046300,38.97404638671875,3.472340595245361,8.709806364440917,1.4050970993041991
1757859051947029200,38.984029296875,3.5516485252380368,8.658779941558837,1.597381420135498
1757859051957013200,38.99401318359375,3.627514790344238,8.819939640808105,1.1617863555908203
1757859051966996500,39.00399658203125,3.754108203125,9.235483266448972,0.4342483261108398
1757859051976980200,39.01398022460938,4.069394634246826,9.703400053405762,-0.1336263801574707
1757859051986963200,39.02396313476562,4.033182334136963,10.187627339172362,-0.4127005111694335
1757859051996947200,39.033947265625,3.789721952819824,10.557830770874023,-0.3743932846069335
1757859052006931200,39.04393115234375,3.499873914337158,10.976217510986327,0.1333271049499511
1757859052016914400,39.05391455078125,3.4356793823242184,11.55636250076294,0.6379051048278809
1757859052026898400,39.0638984375,3.3349732749938963,11.997643794250488,0.4942530052185058
1757859052036881200,39.073881103515625,3.0627824737548828,12.310386386108398,0.0664390960693359
1757859052046865200,39.083865234375,2.881421697998047,12.326696884918212,-0.1934814216613769
1757859052056848400,39.09384838867187,2.955193036651611,12.43772798690796,-0.3335422187805175
1757859052066832400,39.10383227539062,3.308786694335937,12.80015026321411,-0.4592378059387206
1757859052076815400,39.1138154296875,3.5386300537109374,12.933028455352783,-0.4441244079589843
1757859052086799400,39.12379931640625,3.424606199645996,13.08760410003662,-0.1816600509643554
1757859052096783400,39.13378344726563,3.1383494636535643,13.300688047790526,0.3072060005187988
1757859052106766300,39.14376635742188,2.813486225891113,13.481749548339844,0.7166144844055176
1757859052116750300,39.15375024414063,2.578405550384521,13.545644805145264,1.1227309410095214
1757859052126733300,39.1637333984375,2.3493103790283203,12.441917839813232,1.0963947227478026
1757859052136717300,39.17371728515625,1.9774609336853024,10.480019216918944,0.3547907585144043
1757859052146700300,39.1837001953125,2.041655465698242,9.62184755935669,-0.3393780853271484
1757859052156684300,39.19368432617188,2.24740717086792,9.083451461029052,-0.8777741836547851
1757859052166667300,39.20366723632812,2.041655465698242,8.870068238067626,-1.2158055305480957
1757859052176651300,39.2136513671875,1.647958930206299,9.1416604888916,-1.218798282623291
1757859052186635300,39.22363525390625,1.3370119895935058,9.86994670639038,-0.8611644096374511
1757859052196618200,39.2336181640625,1.151162085723877,10.691906063842772,-0.3003226707458496
1757859052206602200,39.24360229492188,0.6645405982971191,11.5550157623291,-0.0559644638061523
1757859052216585500,39.25358544921875,0.3610755378723144,11.79802723083496,-0.060004679107666
1757859052226569500,39.263569580078126,-0.1734299827575683,11.148749668121336,-0.2908955017089843
1757859052236552200,39.27355224609375,-0.1770212852478027,11.397896278381348,0.0968155296325683
1757859052246536200,39.2835361328125,0.4324526748657226,11.74670153274536,0.379181687927246
1757859052256519400,39.29351953125,1.4791677131652832,12.118550978088376,0.5840355674743652
1757859052266503400,39.30350341796875,2.123507234954834,12.380716059875487,0.7459434547424316
1757859052276487400,39.3134873046875,2.24740717086792,12.183493698120117,0.8044517578125
1757859052286470400,39.32347045898437,1.8372504989624023,10.745476325988768,0.5900210716247558
1757859052296454400,39.33345434570312,1.1463736824035644,8.875155916595459,0.5090671279907226
1757859052306437400,39.34343725585938,0.9325415466308592,7.88455497970581,0.9496002334594726
1757859052316421400,39.35342138671875,1.3039420791625975,7.34810417022705,1.370979725646973
1757859052326404400,39.363404296875,1.546803910064697,7.130980007171631,1.4815619148254393
1757859052336388400,39.373388427734376,1.5598223815917969,7.012915937805175,1.061828436279297
1757859052346371300,39.38337133789062,1.424849263000488,6.983138054656982,0.5108627792358398
1757859052356355300,39.39335522460937,1.4891934326171874,6.854599353027344,0.0502782348632812
1757859052366338300,39.40333837890625,1.4613608383178711,6.78681351852417,-0.1907879447937011
1757859052376322300,39.413322265625,1.4076409385681152,6.800879453277587,-0.170437230682373
1757859052386306300,39.42330639648438,1.499518427276611,6.859986306762695,-0.0567126518249511
1757859052396289300,39.433289306640624,1.5997756217956542,6.862380508422851,0.0401028778076171
1757859052406273300,39.443273193359374,1.7516577896118164,6.883629048156738,0.08933364944458
1757859052416256500,39.45325659179687,1.7666215499877929,6.958298212432861,0.0212485397338867
1757859052426240300,39.463240234375,1.8004396484374998,7.015160501861572,0.0923264015197753
1757859052436223200,39.47322314453125,1.9823989746093749,6.968323931884766,0.3571849601745605
1757859052446207200,39.48320727539063,2.088192760467529,6.951863795471191,0.5451297904968262
1757859052456190500,39.4931904296875,2.090138049316406,7.015459777069092,0.694617756652832
1757859052466174500,39.50317456054688,2.057816326904297,7.104045238494873,0.9087491676330566
1757859052476158500,39.51315844726562,2.046294231414795,7.233781040954589,0.867598826599121
1757859052486141200,39.52314111328125,2.270301724243164,7.46302584991455,0.5870283195495605
1757859052496125200,39.53312524414063,2.509721890258789,7.851036156463622,0.3429693878173828
1757859052506108200,39.54310815429688,2.6529250770568846,8.336460543060301,0.1776198356628417
1757859052516092400,39.55309252929688,2.779069577026367,8.59952345046997,0.1439513748168945
1757859052526075400,39.56307543945312,2.7967268142700195,8.645312557220459,0.1904886695861816
1757859052536059400,39.57305932617187,2.869151414489746,8.786570455169677,0.3778349494934082
1757859052546042000,39.5830419921875,3.226635649871826,9.3730002243042,0.5810428153991699
1757859052556026000,39.59302612304688,3.398419618988037,10.262446141052246,0.598251139831543
1757859052566009300,39.60300927734375,3.55613765335083,11.164760891723631,0.5849333930969238
1757859052575993300,39.61299340820312,3.7466263229370114,11.74685117034912,0.5181950218200684
1757859052585977000,39.62297705078125,3.706673082733154,11.90008007659912,0.6579565437316894
1757859052595960000,39.6329599609375,3.6483144172668456,11.75972000427246,1.0957961723327636
1757859052605944000,39.64294409179688,3.592649228668213,11.552471923065184,1.6666636306762694
1757859052615927300,39.65292724609375,3.5309985359191893,11.450269439697266,2.169595616912842
1757859052625911300,39.662911376953126,3.54311918182373,11.623100872039794,2.3048680107116697
1757859052635894300,39.67289428710937,3.7886744895935056,12.272079159545898,2.1944354591369626
1757859052645878000,39.6828779296875,4.045452617645264,13.347524617767332,2.080710880279541
1757859052655861200,39.692861328125,4.424783943176269,14.319121578979493,1.7589900321960448
1757859052665845200,39.70284521484375,4.348468765258789,14.860510429382323,1.3600561805725098
1757859052675829200,39.71282934570313,3.8570588745117194,14.3774802444458,1.2226888603210448
1757859052685812200,39.722812255859374,3.1501708343505856,13.106009525299072,1.3989619575500487
1757859052695796200,39.73279614257813,2.6273370468139645,11.640159558868408,1.6941969497680662
1757859052705779200,39.742779296875,2.1422119354248044,10.35462290496826,1.97910694732666
1757859052715763200,39.75276318359375,1.4552256965637207,9.447968663787842,2.043451116943359
1757859052725746200,39.76274609375,1.022024833679199,8.645911107635497,1.8034324005126952
1757859052735730200,39.772730224609376,0.8412626083374023,8.27974789123535,1.4167688323974608
1757859052745713200,39.78271313476562,0.8391676818847655,8.227075454711914,0.8822633117675781
1757859052755697200,39.792697265625,1.0708066925048827,8.219743212127685,0.4477157104492187
1757859052765681200,39.80268115234375,1.3835492843627928,8.339303657531739,0.4759972175598144
1757859052775664000,39.8126640625,1.7257704841613768,8.61209300918579,0.9338882850646972
1757859052785648000,39.82264819335938,1.9556138435363768,8.960748625946044,1.7474679367065429
1757859052795631000,39.83263110351562,2.18979669342041,9.34681364364624,2.533813544464111
1757859052805615000,39.84261499023437,2.137573169708252,9.6151138671875,3.323151904296875
1757859052815598300,39.85259838867187,2.113930428314209,9.558550852966308,3.7306150993347167
1757859052825582300,39.86258227539062,2.259827091979981,9.482235675048829,3.4358290199279784
1757859052835565000,39.87256494140625,2.3973440498352048,9.0390090927124,2.871096703338623
1757859052845549000,39.882549072265626,2.329558215332032,8.581267662811278,2.2450129692077634
1757859052855532300,39.8925322265625,2.1959318351745605,8.368632627868651,1.8320131828308104
1757859052865516300,39.902516357421874,2.290053887939453,8.128314636230469,1.659181750488281
1757859052875500300,39.912500244140624,2.371606381988525,7.9035589553833,1.4712369201660156
1757859052885483300,39.92248315429688,2.300229244995117,7.615656205749511,1.3016975151062011
1757859052895467300,39.93246728515625,2.3433248748779296,7.199364392089843,1.0130465774536133
