time,seconds_elapsed,z,y,x
1759652147302705000,0.035704833984375,0.023998869583010674,-0.06587117165327072,0.039769526571035385
1759652147312788700,0.045788818359375,0.022009436041116714,-0.08637949079275131,0.04983293637633324
1759652147322871800,0.055871826171875,0.019199533388018608,-0.08649853616952896,0.047294944524765015
1759652147332956000,0.065955810546875,0.02008015289902687,-0.07172422856092453,0.04927952215075493
1759652147343038700,0.076038818359375,0.02514042519032955,-0.04585668072104454,0.040895625948905945
1759652147353122800,0.086122802734375,0.02440498396754265,-0.015022563748061657,0.03878465294837952
1759652147363207000,0.09620703125,0.023918159306049347,0.03005436807870865,0.034256480634212494
1759652147373289700,0.106289794921875,0.029065391048789024,0.07957208901643753,0.02655770070850849
1759652147383373800,0.116373779296875,0.02909495308995247,0.11794477701187134,0.010824009776115417
1759652147393458000,0.1264580078125,0.027109405025839806,0.13806232810020447,0.0012348135933279991
1759652147403540700,0.136540771484375,0.019531114026904106,0.15317124128341675,-0.010652472265064716
1759652147413624800,0.146624755859375,0.012607733719050884,0.16441403329372406,-0.00904831662774086
1759652147423707600,0.156707763671875,0.00489442003890872,0.16468940675258636,-0.014859333634376526
1759652147433792000,0.1667919921875,-0.0018085800111293793,0.13980205357074738,-0.01382577046751976
1759652147443875800,0.176875732421875,-0.010305928066372871,0.09844236075878143,-0.005954531952738762
1759652147453958700,0.186958740234375,-0.019478335976600647,0.0531274676322937,0.00072295410791412
1759652147464043000,0.19704296875,-0.026500824838876724,0.020122911781072617,0.015063277445733547
1759652147474126800,0.207126953125,-0.03338120877742767,-0.0019725775346159935,0.023392267525196075
1759652147484209700,0.217209716796875,-0.03059527464210987,-0.008450716733932495,0.0351695641875267
1759652147494293500,0.22729345703125,-0.025703314691781998,-0.009300798177719116,0.04400593414902687
1759652147504376600,0.23737646484375,-0.011718790046870708,-0.010863807052373886,0.049794845283031464
1759652147514460700,0.247460693359375,0.005777645856142044,-0.015857767313718796,0.054015688598155975
1759652147524544500,0.25754443359375,0.020362980663776398,-0.027288053184747696,0.0541139617562294
1759652147534627300,0.26762744140625,0.035724375396966934,-0.042675603181123734,0.05466393753886223
1759652147544711700,0.277711669921875,0.04165763407945633,-0.057427652180194855,0.050422586500644684
1759652147554794500,0.28779443359375,0.04901755973696709,-0.06291189789772034,0.04787614196538925
1759652147564878300,0.29787841796875,0.05145515128970146,-0.06475295126438141,0.04070984199643135
1759652147574962700,0.307962646484375,0.049698833376169205,-0.056660208851099014,0.03284083679318428
1759652147585045500,0.31804541015625,0.04113650694489479,-0.04707122966647148,0.02982294373214245
1759652147595129600,0.328129638671875,0.03129177540540695,-0.029010316357016563,0.021759681403636932
1759652147605213700,0.338213623046875,0.024152372032403946,-0.013137608766555786,0.010060148313641548
1759652147615296500,0.348296630859375,0.011886384338140488,-0.008484800346195698,0.006150362081825733
1759652147625380600,0.358380615234375,0.0002180106530431658,-0.008427542634308338,0.009392493404448032
1759652147635463400,0.36846337890625,-0.0024092327803373337,-0.0049395253881812096,0.010034743696451187
1759652147645547500,0.378547607421875,-0.004542691633105278,0.009264444932341576,0.02401447668671608
1759652147655631600,0.388631591796875,-0.004428778309375048,0.019427217543125153,0.03469407558441162
1759652147665714400,0.39871435546875,-0.007839755155146122,0.034063152968883514,0.04051148518919945
1759652147675798500,0.408798583984375,-0.01724577322602272,0.04655231162905693,0.05065013840794563
1759652147685881600,0.418881591796875,-0.023486357182264328,0.05051349848508835,0.05260995775461197
1759652147695965400,0.42896533203125,-0.027197258546948433,0.05594436079263687,0.05539281666278839
1759652147706049500,0.439049560546875,-0.02404460869729519,0.05423487722873688,0.056145694106817245
1759652147716132600,0.449132568359375,-0.027120117098093033,0.047568608075380325,0.056850358843803406
1759652147726216400,0.459216552734375,-0.02741226553916931,0.03845527023077011,0.059119369834661484
1759652147736300500,0.469300537109375,-0.024549633264541626,0.03496546670794487,0.05806422606110573
1759652147746383600,0.479383544921875,-0.018720239400863647,0.046058330684900284,0.05456403270363808
1759652147756467500,0.489467529296875,-0.013936283998191357,0.06290865689516068,0.052311886101961136
1759652147766550500,0.499550537109375,-0.0006359244580380619,0.07212425768375397,0.050912126898765564
1759652147776634400,0.50963427734375,0.010321742855012417,0.07323330640792847,0.048708636313676834
1759652147786718700,0.51971875,0.020739762112498283,0.06816264986991882,0.043239302933216095
1759652147796801500,0.529801513671875,0.030350858345627785,0.0654354989528656,0.04139483720064163
1759652147806885400,0.539885498046875,0.0362875759601593,0.06394679099321365,0.03359843045473099
1759652147816969700,0.5499697265625,0.03994502127170563,0.06412339210510254,0.029069306328892708
1759652147827052500,0.560052490234375,0.04163479804992676,0.06475802510976791,0.032438475638628006
1759652147837136400,0.570136474609375,0.04078828543424606,0.05917768180370331,0.030087213963270187
1759652147847219500,0.580219482421875,0.04129535332322121,0.054528865963220596,0.03223132714629173
1759652147857303600,0.590303466796875,0.03944150730967522,0.04264191910624504,0.037201277911663055
1759652147867387600,0.6003876953125,0.03749420493841171,0.027613965794444084,0.04194436967372894
1759652147877470500,0.610470458984375,0.03122584894299507,0.010747984983026981,0.04807738959789276
1759652147887554600,0.620554443359375,0.02695493772625923,-0.0033542518503963947,0.04895490035414696
1759652147897637600,0.6306376953125,0.020454782992601395,-0.014739952981472015,0.050897687673568726
1759652147907721500,0.640721435546875,0.01486054714769125,-0.018210584297776222,0.05303913727402687
1759652147917805300,0.650805419921875,0.014998112805187702,-0.021826595067977905,0.05054659768939018
1759652147927888600,0.660888671875,0.018938792869448662,-0.026685532182455063,0.047069840133190155
1759652147937972500,0.670972412109375,0.024100665003061295,-0.028100837022066116,0.04582653194665909
1759652147948056600,0.681056640625,0.02846505306661129,-0.02890085056424141,0.04428562894463539
1759652147958139600,0.6911396484375,0.03291873633861542,-0.03236730769276619,0.04431542754173279
1759652147968223500,0.701223388671875,0.03872549161314964,-0.0298471562564373,0.043697040528059006
1759652147978306600,0.711306640625,0.04227430745959282,-0.025074876844882965,0.04955192655324936
1759652147988390400,0.721390380859375,0.04691113904118538,-0.01902683824300766,0.0484112910926342
1759652147998474500,0.731474609375,0.049470189958810806,-0.00781706627458334,0.05407031252980232
1759652148008557600,0.7415576171875,0.05182575806975365,0.005657463800162077,0.06018146872520447
1759652148018641400,0.751641357421875,0.05105555057525635,0.02121751755475998,0.06280568242073059
1759652148028725500,0.7617255859375,0.05425214394927025,0.04331909120082855,0.06258463859558105
1759652148038808600,0.77180859375,0.05971508473157883,0.05804051458835602,0.058244749903678894
1759652148048892400,0.781892333984375,0.06698019057512283,0.05881389603018761,0.05101080611348152
1759652148058975500,0.7919755859375,0.07361859828233719,0.0528312511742115,0.04996830224990845
1759652148069059600,0.8020595703125,0.07209473848342896,0.048702020198106766,0.04046880826354027
1759652148079143400,0.812143310546875,0.06455633789300919,0.06328371167182922,0.03715246543288231
1759652148089226500,0.8222265625,0.05832161009311676,0.08993396162986755,0.028333941474556923
1759652148099310600,0.832310546875,0.051692526787519455,0.11151666939258575,0.01910972222685814
1759652148109393700,0.8423935546875,0.04040471836924553,0.11786910891532898,0.015515785664319992
1759652148119477500,0.8524775390625,0.029777465388178825,0.1099521741271019,0.010889618657529354
1759652148129561600,0.8625615234375,0.020926715806126595,0.09262458235025406,0.011441425420343876
1759652148139644700,0.872644775390625,0.012654384598135948,0.07575612515211105,0.01609097048640251
1759652148149728500,0.882728515625,0.009051661007106304,0.0656941682100296,0.019291291013360023
1759652148159812400,0.892812255859375,0.0030695628374814987,0.054122962057590485,0.01746964268386364
1759652148169895700,0.902895751953125,-0.0009337009396404028,0.04097440093755722,0.019605763256549835
1759652148179979500,0.9129794921875,0.0016963665839284658,0.028992723673582077,0.02080211415886879
1759652148190062600,0.9230625,0.0017962350975722075,0.014038808643817902,0.02400323376059532
1759652148200146400,0.933146484375,0.003476865589618683,-0.0030481433495879173,0.02282210998237133
1759652148210230500,0.94323046875,0.005355459172278643,-0.013394523411989212,0.021540597081184387
1759652148220313600,0.953313720703125,0.0020261011086404324,-0.021015657112002373,0.018456771969795227
1759652148230397400,0.9633974609375,0.0030061444267630577,-0.020623106509447098,0.016988305374979973
1759652148240480800,0.973480712890625,0.005986522883176804,-0.019946474581956863,0.015404361300170422
1759652148250564600,0.983564697265625,0.013348299078643322,-0.021048221737146378,0.009589082561433315
1759652148260648400,0.9936484375,0.015543381683528423,-0.024593915790319443,0.010857594199478626
1759652148270731500,1.0037314453125,0.020025214180350304,-0.02686319500207901,0.011335630901157856
1759652148280815600,1.013815673828125,0.024018967524170876,-0.027464620769023895,0.013898096978664398
1759652148290899500,1.0238994140625,0.026798509061336517,-0.023984670639038086,0.01590159349143505
1759652148300982500,1.033982421875,0.026260334998369217,-0.016820378601551056,0.01902349293231964
1759652148311066600,1.044066650390625,0.02584861032664776,-0.012042667716741562,0.019278889521956444
1759652148321149700,1.054149658203125,0.02370014600455761,-0.01041239220649004,0.018782731145620346
1759652148331233500,1.064233642578125,0.02074377052485943,-0.007294629700481892,0.02085999771952629
1759652148341317600,1.074317626953125,0.022391684353351593,-0.004479521885514259,0.02007289230823517
1759652148351400700,1.084400634765625,0.021074751392006874,0.0031048946548253298,0.018951434642076492
1759652148361484500,1.094484619140625,0.024023540318012238,0.0007542874664068222,0.01265424583107233
1759652148371567400,1.1045673828125,0.02307066135108471,0.0008570854552090168,0.013631359674036503
1759652148381651700,1.114651611328125,0.021655365824699402,-0.0008485135622322559,0.0057896715588867664
1759652148391735600,1.124735595703125,0.019368508830666542,-0.0012173610739409924,0.004558758344501257
1759652148401818600,1.134818603515625,0.018337640911340714,-0.0038339272141456604,0.004217742942273617
1759652148411902700,1.14490283203125,0.019809836521744728,-0.002795560285449028,0.002770048566162586
1759652148421986600,1.154986572265625,0.0162393506616354,-0.00013113860040903091,0.002697114832699299
1759652148432069600,1.165069580078125,0.015798332169651985,-0.003796713426709175,0.0024550335947424173
1759652148442153500,1.175153564453125,0.0077756550163030624,0.0030155633576214314,0.007195234764367342
1759652148452236500,1.185236572265625,0.0026679779402911663,0.007685949094593525,0.006032764911651611
1759652148462320600,1.195320556640625,-0.0008237124420702457,0.009834591299295425,0.007059612311422825
1759652148472404500,1.205404541015625,-0.0019747307524085045,0.006302707828581333,0.003911489620804787
1759652148482487600,1.215487548828125,0.001374686136841774,-0.00792388990521431,0.0006860001594759524
1759652148492572000,1.225572021484375,0.002002925844863057,-0.019582143053412437,0.0018189088441431522
1759652148502654700,1.23565478515625,0.00467331800609827,-0.020145945250988007,0.0012912055244669318
1759652148512738800,1.24573876953125,0.001933458261191845,-0.0169227197766304,-0.0005311955465003848
1759652148522822700,1.25582275390625,-0.001021052710711956,-0.0053345076739788055,0.0008765513775870204
1759652148532905700,1.26590576171875,-0.002802973845973611,0.006543990224599838,-0.0015900683356449008
1759652148542989800,1.27598974609375,-0.006803735159337521,0.014681318774819374,0.0014033718034625053
1759652148553073700,1.28607373046875,-0.00507081625983119,0.021653473377227783,0.004793042782694101
1759652148563156500,1.296156494140625,-0.0037138250190764666,0.029631080105900764,0.007560943253338337
1759652148573240800,1.30624072265625,0.001163488021120429,0.03156533092260361,0.0052895331755280495
1759652148583323600,1.31632373046875,0.004123390186578035,0.035293009132146835,0.005439115688204765
1759652148593407700,1.32640771484375,0.0072800349444150925,0.037524204701185226,0.0025389334186911583
1759652148603491800,1.336491943359375,0.007993214763700962,0.03978556767106056,0.0005745489033870399
1759652148613574700,1.34657470703125,0.013787721283733845,0.03445764631032944,0.004022809676826
1759652148623658800,1.35665869140625,0.013954288326203823,0.030761945992708206,0.008032549172639847
1759652148633741600,1.366741455078125,0.01478066761046648,0.031351037323474884,0.015893135219812393
1759652148643825700,1.37682568359375,0.016662336885929108,0.03513435646891594,0.019534656777977943
1759652148653909800,1.38690966796875,0.017311349511146545,0.031372640281915665,0.023575471714138985
1759652148663992600,1.39699267578125,0.01548124011605978,0.023916251957416534,0.029286392033100128
1759652148674076700,1.40707666015625,0.015765132382512093,0.019281819462776184,0.03350510448217392
1759652148684159700,1.41715966796875,0.01583540439605713,0.029174737632274628,0.042120859026908875
1759652148694243600,1.42724365234375,0.020027752965688705,0.046246398240327835,0.04908609017729759
1759652148704328000,1.437327880859375,0.025539325550198555,0.07325773686170578,0.05493408069014549
1759652148714410800,1.44741064453125,0.025906043127179146,0.09316593408584595,0.06195257604122162
1759652148724494600,1.45749462890625,0.025840528309345245,0.11387068033218384,0.06903312355279922
1759652148734578700,1.46757861328125,0.030288007110357285,0.12631802260875702,0.07817788422107697
1759652148744661800,1.477661865234375,0.03403475508093834,0.14330613613128662,0.09221576154232025
1759652148754745600,1.48774560546875,0.03767050430178642,0.1633688062429428,0.10091551393270493
1759652148764828700,1.49782861328125,0.04221690818667412,0.1778164803981781,0.10659721493721008
1759652148774912800,1.507912841796875,0.04830702766776085,0.18568265438079834,0.10629814118146896
1759652148784996900,1.517996826171875,0.0539027564227581,0.18338724970817566,0.09934618324041367
1759652148795079700,1.52807958984375,0.053988244384527206,0.17924630641937256,0.0940968245267868
1759652148805163500,1.53816357421875,0.05191900208592415,0.18466921150684357,0.08223893493413925
1759652148815246800,1.548246826171875,0.040894314646720886,0.18389423191547394,0.08023916929960251
1759652148825330700,1.55833056640625,0.022430744022130966,0.18604451417922974,0.07792580127716064
1759652148835414500,1.56841455078125,-0.003788609756156802,0.1828945279121399,0.08426997810602188
1759652148845497600,1.57849755859375,-0.03093894012272358,0.1824152022600174,0.10407528281211853
1759652148855581700,1.588581787109375,-0.05530393123626709,0.1915903240442276,0.13090983033180237
1759652148865664800,1.598664794921875,-0.05707118660211563,0.19389501214027405,0.16317115724086761
1759652148875748600,1.60874853515625,-0.0410488098859787,0.18347567319869995,0.18470628559589386
1759652148885832700,1.618832763671875,-0.015103250741958618,0.15833038091659546,0.20758916437625885
1759652148895915800,1.628915771484375,0.00844042468816042,0.13213445246219635,0.23173870146274567
1759652148905999600,1.63899951171875,0.02892359346151352,0.11841064691543579,0.25235557556152344
1759652148916083700,1.649083740234375,0.040636979043483734,0.11628677695989609,0.2738424837589264
1759652148926166800,1.659166748046875,0.049589838832616806,0.13074171543121338,0.29580405354499817
1759652148936250600,1.669250732421875,0.053372323513031006,0.1544680893421173,0.32296377420425415
1759652148946333700,1.679333740234375,0.06574542075395584,0.1946806162595749,0.35080674290657043
1759652148956417800,1.689417724609375,0.08168870210647583,0.23778441548347473,0.37356850504875183
1759652148966501600,1.699501708984375,0.09772974252700806,0.27699679136276245,0.4017477333545685
1759652148976584700,1.709584716796875,0.11169349402189255,0.3191874027252197,0.42968669533729553
1759652148986668800,1.719668701171875,0.12616819143295288,0.35997146368026733,0.45877471566200256
1759652148996752000,1.729751953125,0.13437578082084656,0.40476876497268677,0.4884663224220276
1759652149006835700,1.739835693359375,0.1533629596233368,0.4507601857185364,0.5184377431869507
1759652149016919600,1.74991943359375,0.17410977184772491,0.503237247467041,0.5448693633079529
1759652149027003000,1.7600029296875,0.19636869430541992,0.5532882809638977,0.581445574760437
1759652149037086700,1.770086669921875,0.21995818614959717,0.6175559759140015,0.6237512230873108
1759652149047169800,1.780169677734375,0.24522164463996887,0.6864544749259949,0.6699341535568237
1759652149057253600,1.790253662109375,0.2672675549983978,0.773032009601593,0.7212663292884827
1759652149067337700,1.800337646484375,0.29000771045684814,0.8703242540359497,0.7799407839775085
1759652149077420800,1.8104208984375,0.30657443404197693,0.9842521548271179,0.8401646614074707
1759652149087504600,1.820504638671875,0.3202133774757385,1.1286875009536743,0.9154104590415955
1759652149097588700,1.830588623046875,0.32808035612106323,1.2969374656677246,0.9835191965103149
1759652149107671800,1.840671875,0.3381038308143616,1.4868801832199097,1.0554044246673584
1759652149117755600,1.850755615234375,0.3460741341114044,1.6929486989974976,1.1140594482421875
1759652149127838700,1.860838623046875,0.3587501645088196,1.9026861190795898,1.1706279516220093
1759652149137922800,1.8709228515625,0.37241217494010925,2.1032137870788574,1.2127128839492798
1759652149148006700,1.881006591796875,0.38202139735221863,2.268031120300293,1.2450571060180664
1759652149158089700,1.89108984375,0.3802144229412079,2.3623464107513428,1.2691677808761597
1759652149168173800,1.901173828125,0.36797451972961426,2.3872690200805664,1.304558277130127
1759652149178256600,1.911256591796875,0.34424495697021484,2.3523733615875244,1.3521132469177246
1759652149188340700,1.9213408203125,0.32034486532211304,2.3004229068756104,1.402024269104004
1759652149198424800,1.9314248046875,0.2961580157279968,2.246551752090454,1.4528443813323975
1759652149208508000,1.9415078125,0.2829703092575073,2.1840457916259766,1.5010051727294922
1759652149218591700,1.951591796875,0.27020126581192017,2.106518268585205,1.5467679500579834
1759652149228674600,1.961674560546875,0.276012659072876,2.024289846420288,1.5797507762908936
1759652149238759000,1.971759033203125,0.2997185289859772,1.9457457065582275,1.5966650247573853
1759652149248842800,1.9818427734375,0.3433879315853119,1.84010910987854,1.6002918481826782
1759652149258925600,1.991925537109375,0.38668960332870483,1.7032966613769531,1.5881108045578003
1759652149269010000,2.002010009765625,0.4311504065990448,1.5431079864501953,1.5619148015975952
1759652149279092700,2.0120927734375,0.475368469953537,1.3829338550567627,1.5276023149490356
1759652149289176600,2.022176513671875,0.5158419609069824,1.2398266792297363,1.4961243867874146
1759652149299260700,2.0322607421875,0.5511738657951355,1.1276750564575195,1.4713793992996216
1759652149309343700,2.04234375,0.572192370891571,1.041018009185791,1.4556081295013428
1759652149319427800,2.052427734375,0.5775042772293091,0.9900829792022705,1.451403260231018
1759652149329511700,2.06251171875,0.5777700543403625,0.9619501829147339,1.4576104879379272
1759652149339594500,2.072594482421875,0.5778289437294006,0.9655086994171143,1.468623161315918
1759652149349678800,2.082678955078125,0.5807918310165405,0.9654168486595154,1.4672669172286987
1759652149359761700,2.09276171875,0.5905645489692688,0.9265096783638,1.4505367279052734
1759652149369845500,2.102845458984375,0.5985651612281799,0.8393300771713257,1.41391122341156
1759652149379929900,2.112929931640625,0.6082907319068909,0.7246527671813965,1.344041347503662
1759652149390012700,2.1230126953125,0.6122085452079773,0.591240406036377,1.2578171491622925
1759652149400096800,2.1330966796875,0.5904116034507751,0.4548678994178772,1.1545147895812988
1759652149410179600,2.1431796875,0.5390256643295288,0.35729819536209106,1.0472866296768188
1759652149420263700,2.153263671875,0.4579172134399414,0.30067992210388184,0.9735332727432251
1759652149430347800,2.16334765625,0.3515976667404175,0.28531697392463684,0.931966245174408
1759652149440430600,2.1734306640625,0.25133204460144043,0.29005393385887146,0.9376345276832581
1759652149450514700,2.1835146484375,0.1845959573984146,0.3315698802471161,0.964408278465271
1759652149460597800,2.19359765625,0.16492213308811188,0.40460601449012756,0.9793437719345093
1759652149470681600,2.203681640625,0.19285963475704193,0.4486807584762573,0.9607428312301636
1759652149480765700,2.213765625,0.25220951437950134,0.41187161207199097,0.9242128133773804
1759652149490848500,2.2238486328125,0.3302892744541168,0.2577033042907715,0.872562825679779
1759652149500932400,2.233932373046875,0.40520215034484863,0.004385020583868027,0.8039374351501465
1759652149511015700,2.244015625,0.45498573780059814,-0.31347477436065674,0.7241021990776062
1759652149521099500,2.254099609375,0.4463810622692108,-0.6690400838851929,0.6484087705612183
1759652149531183400,2.264183349609375,0.3679901957511902,-0.9822567701339722,0.5900224447250366
1759652149541266400,2.274266357421875,0.2283492237329483,-1.1815496683120728,0.5548298358917236
1759652149551350500,2.2843505859375,0.06253347545862198,-1.2366011142730713,0.5353233218193054
1759652149561434600,2.2944345703125,-0.09439169615507126,-1.1592687368392944,0.5162745118141174
1759652149571517400,2.304517333984375,-0.23562434315681458,-0.9945080876350403,0.47854456305503845
1759652149581601500,2.3146015625,-0.3555968105792999,-0.7845577597618103,0.4081105887889862
1759652149591684600,2.3246845703125,-0.45035818219184875,-0.5825477242469788,0.31801727414131165
1759652149601768400,2.3347685546875,-0.5234054923057556,-0.41222983598709106,0.22848127782344818
1759652149611852500,2.3448525390625,-0.5722908973693848,-0.3140493929386139,0.13833998143672943
1759652149621935600,2.354935546875,-0.6057884097099304,-0.28128135204315186,0.06021428480744362
1759652149632019500,2.36501953125,-0.637555718421936,-0.3098829984664917,0.003529493696987629
1759652149642102500,2.3751025390625,-0.6885403394699097,-0.3928103744983673,-0.027752261608839035
1759652149652186600,2.3851865234375,-0.7594721913337708,-0.5128310322761536,-0.04483978822827339
1759652149662270500,2.3952705078125,-0.8538396954536438,-0.6541391611099243,-0.05506579577922821
1759652149672353500,2.405353515625,-0.9567582607269287,-0.8061177134513855,-0.0709799975156784
1759652149682437600,2.415437744140625,-1.0613670349121094,-0.9690794348716736,-0.08469634503126144
1759652149692520700,2.425520751953125,-1.143976092338562,-1.1320644617080688,-0.09704063087701797
1759652149702604500,2.4356044921875,-1.1898142099380493,-1.2941486835479736,-0.09150844812393188
1759652149712688400,2.4456884765625,-1.1959704160690308,-1.445462703704834,-0.06631068885326385
1759652149722771700,2.455771728515625,-1.177798867225647,-1.5911037921905518,-0.03847213089466095
1759652149732855600,2.46585546875,-1.1436395645141602,-1.7535008192062378,-0.03350936993956566
1759652149742938600,2.475938720703125,-1.09565269947052,-1.9372462034225464,-0.057078346610069275
1759652149753022500,2.4860224609375,-1.050706386566162,-2.1130447387695312,-0.07162359356880188
1759652149763106600,2.4961064453125,-1.0223551988601685,-2.252810001373291,-0.08241046220064163
1759652149773189600,2.506189697265625,-1.0032880306243896,-2.2999367713928223,-0.07493899762630463
1759652149783273500,2.5162734375,-0.9768723249435425,-2.2688076496124268,-0.058268141001462936
1759652149793356500,2.5263564453125,-0.9475934505462646,-2.1929285526275635,-0.04157686233520508
1759652149803440600,2.536440673828125,-0.9220598340034485,-2.0837626457214355,-0.024275636300444603
1759652149813524500,2.5465244140625,-0.8697522878646851,-1.9225083589553833,-0.03100445680320263
1759652149823607600,2.556607666015625,-0.7956082820892334,-1.697414755821228,-0.059389229863882065
1759652149833691600,2.566691650390625,-0.6886517405509949,-1.411035418510437,-0.10312985628843307
1759652149843774500,2.5767744140625,-0.5494872331619263,-1.1221379041671753,-0.16288213431835175
1759652149853858600,2.586858642578125,-0.3969273865222931,-0.8652796745300293,-0.23636506497859955
1759652149863942700,2.596942626953125,-0.25436970591545105,-0.662442684173584,-0.30548927187919617
1759652149874025500,2.607025390625,-0.13192829489707947,-0.5215112566947937,-0.3488564193248749
1759652149884109600,2.617109619140625,-0.028326792642474174,-0.46892157196998596,-0.3960995674133301
1759652149894192400,2.6271923828125,0.058403827250003815,-0.4719202220439911,-0.4505023658275604
1759652149904276700,2.63727685546875,0.12591920793056488,-0.48735111951828003,-0.48930224776268005
1759652149914360600,2.647360595703125,0.18564742803573608,-0.5017585754394531,-0.5321069955825806
1759652149924443400,2.657443359375,0.24385160207748413,-0.5294221639633179,-0.6057085394859314
1759652149934527700,2.66752783203125,0.2922663688659668,-0.5187574625015259,-0.684933602809906
1759652149944611600,2.677611572265625,0.33244070410728455,-0.4504665434360504,-0.7401462197303772
1759652149954694400,2.6876943359375,0.36532118916511536,-0.37542280554771423,-0.7954570055007935
1759652149964778800,2.69777880859375,0.39917609095573425,-0.3217816948890686,-0.8499072194099426
1759652149974861600,2.707861572265625,0.43312814831733704,-0.26533377170562744,-0.9077738523483276
1759652149984945400,2.7179453125,0.46015363931655884,-0.19095435738563538,-0.976112425327301
1759652149995029500,2.728029541015625,0.48162204027175903,-0.11081339418888092,-1.06089186668396
1759652150005112600,2.738112548828125,0.49869608879089355,-0.038287002593278885,-1.151052474975586
1759652150015196700,2.74819677734375,0.5174151062965393,0.04048154130578041,-1.238600254058838
1759652150025279500,2.758279541015625,0.5360332131385803,0.10099867731332779,-1.3268659114837646
1759652150035363300,2.76836328125,0.5580033659934998,0.14825765788555145,-1.4049726724624634
1759652150045447700,2.77844775390625,0.5797115564346313,0.17859798669815063,-1.4646798372268677
1759652150055530500,2.788530517578125,0.6004857420921326,0.19108498096466064,-1.5085301399230957
1759652150065614300,2.7986142578125,0.6131551861763,0.20580267906188965,-1.538478136062622
1759652150075697700,2.80869775390625,0.6291533708572388,0.21314112842082977,-1.5606831312179565
1759652150085781500,2.818781494140625,0.6425282955169678,0.20794157683849335,-1.576939344406128
1759652150095865600,2.828865478515625,0.6588081121444702,0.19319605827331543,-1.601072907447815
1759652150105948400,2.838948486328125,0.6677172183990479,0.17787356674671173,-1.6371067762374878
1759652150116032500,2.849032470703125,0.6591954231262207,0.17604248225688934,-1.671246886253357
1759652150126115600,2.859115478515625,0.6355953216552734,0.18875721096992493,-1.6972142457962036
1759652150136199400,2.869199462890625,0.6019840836524963,0.2150186449289322,-1.7231308221817017
1759652150146283500,2.879283447265625,0.5640407204627991,0.24178794026374817,-1.753587245941162
1759652150156366600,2.88936669921875,0.5269600749015808,0.24787549674510956,-1.7913095951080322
1759652150166450400,2.899450439453125,0.4889969825744629,0.2224140763282776,-1.8275080919265747
1759652150176533500,2.909533447265625,0.45242732763290405,0.17573168873786926,-1.8410720825195312
1759652150186617600,2.91961767578125,0.4269365966320038,0.11722684651613235,-1.8252782821655273
1759652150196701400,2.929701416015625,0.4027503430843353,0.03342914208769798,-1.7983647584915161
1759652150206784500,2.939784423828125,0.38709014654159546,-0.07194335013628006,-1.771622657775879
1759652150216868600,2.94986865234375,0.3736667335033417,-0.20480287075042725,-1.7388179302215576
1759652150226951700,2.95995166015625,0.3550501763820648,-0.35573166608810425,-1.6904610395431519
1759652150237035500,2.970035400390625,0.3363087475299835,-0.525712251663208,-1.6336801052093506
1759652150247119600,2.98011962890625,0.3286875784397125,-0.717519223690033,-1.574081540107727
1759652150257202700,2.99020263671875,0.31805333495140076,-0.9243534803390503,-1.5167990922927856
1759652150267286500,3.00028662109375,0.3090299963951111,-1.1356967687606812,-1.4658621549606323
1759652150277369600,3.01036962890625,0.30113905668258667,-1.3367693424224854,-1.4160770177841187
1759652150287453700,3.02045361328125,0.2788635790348053,-1.5067461729049683,-1.3676618337631226
1759652150297537500,3.03053759765625,0.25848454236984253,-1.6355875730514526,-1.3085148334503174
1759652150307620600,3.04062060546875,0.23708631098270416,-1.7083393335342407,-1.2443954944610596
1759652150317704400,3.050704345703125,0.22496666014194489,-1.726102590560913,-1.1955968141555786
1759652150327787500,3.06078759765625,0.22245316207408905,-1.7027645111083984,-1.1567596197128296
1759652150337871600,3.07087158203125,0.21322940289974213,-1.6660876274108887,-1.119086742401123
1759652150347955500,3.08095556640625,0.2186899483203888,-1.6165001392364502,-1.0966746807098389
1759652150358038800,3.091038818359375,0.24067026376724243,-1.5531914234161377,-1.0651379823684692
1759652150368122600,3.10112255859375,0.280004620552063,-1.4715278148651123,-1.0324426889419556
1759652150378205400,3.111205322265625,0.320942759513855,-1.3656566143035889,-0.9924317002296448
1759652150388289500,3.12128955078125,0.3519030809402466,-1.2403454780578613,-0.9517684578895569
1759652150398373600,3.13137353515625,0.37319520115852356,-1.0930230617523193,-0.9172531366348267
1759652150408456400,3.14145654296875,0.3803330063819885,-0.9486658573150635,-0.8866931200027466
1759652150418540500,3.15154052734375,0.38068944215774536,-0.8199008107185364,-0.8623552322387695
1759652150428623400,3.161623291015625,0.3784460127353668,-0.7187284231185913,-0.8367542624473572
1759652150438707700,3.171707763671875,0.3730417490005493,-0.6431577801704407,-0.8006188869476318
1759652150448791600,3.18179150390625,0.3611014783382416,-0.5735589861869812,-0.7555617094039917
1759652150458874400,3.191874267578125,0.33949634432792664,-0.5020853281021118,-0.7125133872032166
1759652150468958700,3.201958740234375,0.31047186255455017,-0.4181574285030365,-0.6681874990463257
1759652150479041500,3.21204150390625,0.27678781747817993,-0.3557076156139374,-0.6270473599433899
1759652150489125400,3.22212548828125,0.24576306343078613,-0.3169117271900177,-0.5913165211677551
1759652150499209700,3.232209716796875,0.21230851113796234,-0.3064238131046295,-0.5518535375595093
1759652150509292500,3.24229248046875,0.1783047318458557,-0.33284956216812134,-0.5097860097885132
1759652150519376600,3.252376708984375,0.1412927210330963,-0.37631890177726746,-0.4612893760204315
1759652150529459500,3.26245947265625,0.09392175078392029,-0.4260808527469635,-0.41703587770462036
1759652150539543600,3.27254345703125,0.04551590234041214,-0.460345983505249,-0.3691644072532654
1759652150549627600,3.282627685546875,0.004283510148525238,-0.4850606620311737,-0.3260219991207123
1759652150559710500,3.29271044921875,-0.02819846197962761,-0.5030142068862915,-0.288373202085495
1759652150569794600,3.302794677734375,-0.04727841168642044,-0.4951043725013733,-0.25397661328315735
1759652150579877600,3.312877685546875,-0.05551362410187721,-0.4897913336753845,-0.22404244542121887
1759652150589961500,3.32296142578125,-0.05512107163667679,-0.4796771705150604,-0.19227120280265808
1759652150600045600,3.333045654296875,-0.05909392237663269,-0.4615171551704407,-0.15562939643859863
1759652150610128600,3.343128662109375,-0.0794583112001419,-0.4421466588973999,-0.12375455349683762
1759652150620212500,3.35321240234375,-0.1057947650551796,-0.4191484749317169,-0.09017744660377502
1759652150630295600,3.363295654296875,-0.13493773341178894,-0.4094260632991791,-0.06676452606916428
1759652150640379600,3.373379638671875,-0.1591981053352356,-0.407164603471756,-0.042217738926410675
1759652150650463500,3.38346337890625,-0.17786073684692383,-0.4156941771507263,-0.029600748792290688
1759652150660546600,3.393546630859375,-0.19038942456245422,-0.4171023964881897,-0.016185689717531204
1759652150670630400,3.40363037109375,-0.1999501734972,-0.39761286973953247,-0.0028246105648577213
1759652150680713700,3.413713623046875,-0.20970143377780914,-0.34931549429893494,0.015689408406615257
1759652150690797600,3.423797607421875,-0.21477475762367249,-0.27958622574806213,0.024538027122616768
1759652150700881400,3.43388134765625,-0.221360445022583,-0.21408262848854065,0.03534630686044693
1759652150710964500,3.443964599609375,-0.22295834124088287,-0.14585377275943756,0.04053441062569618
1759652150721048600,3.454048583984375,-0.21963700652122498,-0.09611760824918747,0.04696705564856529
1759652150731131600,3.464131591796875,-0.21648623049259186,-0.05026676133275032,0.0629393607378006
1759652150741215500,3.474215576171875,-0.21401087939739227,0.0068306936882436275,0.07881136238574982
1759652150751299600,3.484299560546875,-0.2068544328212738,0.08944061398506165,0.08809247612953186
1759652150761382700,3.494382568359375,-0.19840750098228455,0.1668967455625534,0.0860394686460495
1759652150771466500,3.504466552734375,-0.19032986462116241,0.22567911446094513,0.08503758907318115
1759652150781549600,3.514549560546875,-0.1713898479938507,0.2604868412017822,0.08302711695432663
1759652150791633700,3.524633544921875,-0.15287235379219055,0.27753347158432007,0.08420956134796143
1759652150801717500,3.534717529296875,-0.13415731489658356,0.27605363726615906,0.09299436211585999
1759652150811800600,3.544800537109375,-0.11799830198287964,0.26923274993896484,0.10773389041423798
1759652150821884700,3.554884765625,-0.10656242817640305,0.24987849593162537,0.12293840944766998
1759652150831967500,3.564967529296875,-0.0976666659116745,0.22374781966209412,0.14155682921409607
1759652150842051600,3.575051513671875,-0.09358636289834976,0.19273415207862854,0.15277138352394104
1759652150852134400,3.585134521484375,-0.0887117087841034,0.16334670782089233,0.16168124973773956
1759652150862218500,3.595218505859375,-0.08749949932098389,0.1414385586977005,0.17013022303581238
1759652150872302600,3.605302490234375,-0.08888380974531174,0.13670319318771362,0.1736469268798828
1759652150882385400,3.615385498046875,-0.0876593068242073,0.13368478417396545,0.177328422665596
1759652150892469800,3.6254697265625,-0.0871565043926239,0.1453627347946167,0.17466019093990326
1759652150902552600,3.635552490234375,-0.08124063909053802,0.15268877148628235,0.1658182591199875
1759652150912636400,3.645636474609375,-0.07611645013093948,0.15881644189357758,0.15690411627292633
1759652150922720500,3.655720458984375,-0.07017987966537476,0.15095503628253937,0.15021221339702606
1759652150932803600,3.665803466796875,-0.06861261278390884,0.1374829113483429,0.1446336954832077
1759652150942887400,3.675887451171875,-0.07179410755634308,0.11608035862445831,0.14536342024803162
1759652150952970500,3.685970458984375,-0.08145498484373093,0.09181869029998779,0.14643320441246033
1759652150963054600,3.6960546875,-0.09407884627580643,0.0713195949792862,0.14611966907978058
1759652150973138700,3.706138671875,-0.1057426929473877,0.0599372461438179,0.14851970970630646
1759652150983221500,3.716221435546875,-0.1180269792675972,0.05489765852689743,0.1442202776670456
1759652150993305300,3.726305419921875,-0.12613603472709656,0.04773535206913948,0.1461036652326584
1759652151003388700,3.736388671875,-0.13355211913585663,0.03991803899407387,0.1394309103488922
1759652151013472500,3.746472412109375,-0.13519474864006042,0.025469589978456497,0.1388133317232132
1759652151023556400,3.756556396484375,-0.12878955900669098,0.013155128806829453,0.13175176084041595
1759652151033639700,3.7666396484375,-0.12803667783737183,0.01088345143944025,0.13301676511764526
1759652151043723500,3.7767236328125,-0.12254604697227478,0.022547829896211624,0.12578894197940826
1759652151053806600,3.786806640625,-0.12248372286558151,0.031340789049863815,0.12537109851837158
1759652151063890400,3.796890380859375,-0.1184239611029625,0.03526228293776512,0.11765632033348083
1759652151073974500,3.806974609375,-0.11438048630952835,0.04607764631509781,0.11009640246629715
1759652151084057600,3.8170576171875,-0.10265848785638809,0.05396830290555954,0.10340122878551483
1759652151094141400,3.827141357421875,-0.0954543724656105,0.05774066969752312,0.09622321277856827
1759652151104224500,3.837224609375,-0.0862763300538063,0.06651558727025986,0.09265267848968506
1759652151114308600,3.84730859375,-0.07473791390657425,0.08356460928916931,0.08167166262865067
1759652151124392400,3.857392333984375,-0.06748886406421661,0.1054636687040329,0.06914820522069931
1759652151134475500,3.8674755859375,-0.06065013259649277,0.12044794112443924,0.06005644425749779
1759652151144559600,3.8775595703125,-0.05256406590342522,0.12051042169332504,0.04811748489737511
1759652151154642700,3.887642578125,-0.045702166855335236,0.11098296195268631,0.04543541371822357
1759652151164726500,3.8977265625,-0.03414037823677063,0.09370871633291245,0.04338114336133003
1759652151174810600,3.907810546875,-0.02921246364712715,0.07233764231204987,0.04763181507587433
1759652151184893700,3.917893798828125,-0.01981164515018463,0.056051384657621384,0.05086154863238335
1759652151194977500,3.9279775390625,-0.011634407564997673,0.042342763394117355,0.048557646572589874
1759652151205060600,3.938060546875,-0.005625369492918253,0.028999291360378265,0.04983268678188324
1759652151215144700,3.948144775390625,-0.0031997624319046736,0.020336560904979706,0.052993856370449066
1759652151225227500,3.9582275390625,0.0006583860376849771,0.014881736598908901,0.04850650206208229
1759652151235311600,3.9683115234375,0.002354020718485117,0.010967422276735306,0.04843593016266823
1759652151245395700,3.978395751953125,0.000800900103058666,0.0023184651508927345,0.05048932880163193
1759652151255478500,3.988478515625,0.00022512467694468796,-0.008557884022593498,0.055236149579286575
1759652151265562600,3.998562744140625,-0.002485244069248438,-0.016363725066184998,0.05721094086766243
1759652151275645400,4.0086455078125,-0.008600660599768162,-0.029326926916837692,0.05781840533018112
1759652151285729500,4.0187294921875,-0.011137055233120918,-0.037288181483745575,0.05852920562028885
1759652151295813600,4.028813720703125,-0.010860086418688297,-0.0449514277279377,0.0650496855378151
1759652151305896400,4.038896484375,-0.013513106852769852,-0.05292866751551628,0.0647706538438797
1759652151315980500,4.04898046875,-0.0143477413803339,-0.05546346306800842,0.0690213218331337
1759652151326063600,4.059063720703125,-0.015058551914989948,-0.059575580060482025,0.07333853840827942
1759652151336147500,4.0691474609375,-0.020853856578469276,-0.05514328181743622,0.0754815861582756
1759652151346231600,4.0792314453125,-0.023085108026862144,-0.05250107869505882,0.08236008882522583
1759652151356314600,4.089314697265625,-0.04221406206488609,-0.05634881556034088,0.10328108817338943
1759652151366398500,4.0993984375,-0.0874786302447319,-0.08132795989513397,0.1582125872373581
1759652151376481500,4.1094814453125,0.0017721549374982715,-0.11426354199647903,0.30710968375205994
1759652151386565400,4.1195654296875,0.040148213505744934,-0.11549776047468185,0.26548177003860474
1759652151396649500,4.1296494140625,-0.03607039153575897,0.007207387126982212,0.1109132468700409
1759652151406732500,4.139732666015625,-0.10814526677131653,0.13994023203849792,0.01083439588546753
1759652151416816400,4.14981640625,-0.11034823209047318,0.15465979278087616,0.004932298790663481
1759652151426899500,4.1598994140625,-0.06114509701728821,0.07889008522033691,0.0517975315451622
1759652151436983600,4.169983642578125,0.01809033751487732,0.008852947503328323,0.11369019001722336
1759652151447066600,4.180066650390625,0.06664175540208817,-0.004231927450746298,0.12369660288095474
