time,seconds_elapsed,z,y,x
1758278117040713700,117.12071362304688,-1.305372953414917,-3.182101964950561,-1.0596827268600464
1758278117050798800,117.130798828125,-1.2276488542556765,-3.560178279876709,-1.1801846027374268
1758278117060883700,117.1408837890625,-1.2013897895812988,-3.905584096908569,-1.3056384325027466
1758278117070968800,117.15096875,-1.2511954307556152,-4.2197465896606445,-1.4467267990112305
1758278117081053700,117.1610537109375,-1.3732134103775024,-4.479691505432129,-1.5897563695907593
1758278117091138800,117.17113891601562,-1.5601692199707031,-4.661993503570557,-1.6928625106811523
1758278117101223700,117.1812236328125,-1.7436498403549194,-4.7456889152526855,-1.733229398727417
1758278117111307800,117.19130786132811,-1.891987442970276,-4.717607975006104,-1.7027628421783447
1758278117121392600,117.201392578125,-2.002997875213623,-4.523809432983398,-1.609937071800232
1758278117131477800,117.21147778320312,-2.07129168510437,-4.140956878662109,-1.479501247406006
1758278117141562600,117.22156274414064,-2.08179259300232,-3.524609327316284,-1.3271037340164185
1758278117151647700,117.23164770507812,-2.025419950485229,-2.667217493057251,-1.182698369026184
1758278117161732900,117.24173291015624,-1.889369010925293,-1.638609766960144,-1.045582890510559
1758278117171817700,117.25181762695313,-1.6926556825637815,-0.5949997305870056,-0.9232734441757202
1758278117181902800,117.26190283203124,-1.4426652193069458,0.3244896531105041,-0.798287034034729
1758278117191987700,117.27198779296874,-1.1610755920410156,1.0498753786087036,-0.6701956391334534
1758278117202072800,117.28207275390623,-0.8877700567245483,1.5467333793640137,-0.5291181802749634
1758278117212157700,117.29215771484375,-0.6460314989089966,1.8266736268997192,-0.3785358667373657
1758278117222242800,117.30224291992188,-0.4277867674827575,1.9252811670303345,-0.2052894979715347
1758278117232327700,117.31232763671876,-0.2502777576446533,1.883470058441162,-0.0124292392283678
1758278117242411800,117.32241186523436,-0.1024643257260322,1.7378395795822144,0.1962818950414657
1758278117252496600,117.33249658203124,0.0275786314159631,1.5103164911270142,0.400819331407547
1758278117262581800,117.34258178710938,0.1457398980855941,1.2260700464248655,0.5929203033447266
1758278117272666600,117.35266650390624,0.2751586139202118,0.9167551398277284,0.7473751306533813
1758278117282751700,117.36275170898438,0.4196260273456573,0.663267195224762,0.8782657980918884
1758278117292836900,117.3728369140625,0.5666559338569641,0.5438569188117981,0.979465663433075
1758278117302921700,117.38292163085936,0.7173032760620117,0.5590752959251404,1.049648404121399
1758278117313006800,117.3930068359375,0.8793147802352905,0.651383638381958,1.09634268283844
1758278117323091700,117.403091796875,1.0357286930084229,0.8082057237625122,1.1488560438156128
1758278117333176800,117.4131767578125,1.1905856132507324,1.0375003814697266,1.2128748893737793
1758278117343261700,117.42326171875,1.360663890838623,1.3756524324417114,1.2902657985687256
1758278117353346800,117.43334692382813,1.5453122854232788,1.8355424404144287,1.3634254932403564
1758278117363430700,117.4434306640625,1.7420426607131958,2.35970139503479,1.429400086402893
1758278117373515800,117.45351586914065,1.9436769485473635,2.860889434814453,1.4892915487289429
1758278117383600600,117.4636005859375,2.1371490955352783,3.2741894721984863,1.5421428680419922
1758278117393685800,117.47368579101564,2.284358263015747,3.573648691177368,1.591105818748474
1758278117403771000,117.48377099609375,2.3757810592651367,3.752774000167847,1.605994462966919
1758278117413855700,117.49385571289062,2.388497829437256,3.8362255096435542,1.5836771726608276
1758278117423940900,117.50394091796876,2.3476994037628174,3.870035409927368,1.5217547416687012
1758278117434025700,117.51402563476564,2.2742393016815186,3.859551906585693,1.4172959327697754
1758278117444110800,117.52411083984374,2.193888902664185,3.8059945106506343,1.2773919105529783
1758278117454195700,117.53419580078123,2.123820304870605,3.73294997215271,1.1313313245773315
1758278117464280800,117.54428076171877,2.074771881103516,3.647345542907715,0.9881520867347716
1758278117474365700,117.55436572265624,2.043074607849121,3.5540566444396973,0.8497646450996399
1758278117484450800,117.56445092773436,2.0275745391845703,3.463163137435913,0.6962320804595947
1758278117494534700,117.57453466796876,2.0193374156951904,3.3162622451782227,0.5386152863502502
1758278117504619800,117.58461987304688,2.020712614059448,3.13907790184021,0.3795284032821655
1758278117514704600,117.59470458984374,2.0436506271362305,2.9414255619049072,0.234362706542015
1758278117524789800,117.60478979492189,2.075439453125,2.7190182209014893,0.10369523614645
1758278117534875000,117.614875,2.1299469470977783,2.457348346710205,-0.0176732689142227
1758278117544959700,117.62495971679688,2.2048234939575195,2.172187328338623,-0.1292333602905273
1758278117555044900,117.635044921875,2.292693614959717,1.9084668159484863,-0.2324446886777877
1758278117565129700,117.64512963867188,2.3925507068634038,1.662289261817932,-0.3383080065250397
1758278117575214800,117.65521484375,2.504111289978028,1.424552321434021,-0.418374091386795
1758278117585299700,117.6652998046875,2.6256558895111084,1.2054526805877686,-0.4632310271263122
1758278117595384800,117.675384765625,2.74505877494812,1.0119847059249878,-0.4960648715496063
1758278117605469700,117.6854697265625,2.832982301712036,0.8438766598701477,-0.5298553109169006
1758278117615553800,117.6955537109375,2.8345260620117188,0.7169804573059082,-0.5643190145492554
1758278117625638700,117.705638671875,2.7357399463653564,0.6236516237258911,-0.5934231281280518
1758278117635723800,117.71572387695312,2.534111976623535,0.5842229723930359,-0.6122868061065674
1758278117645808600,117.72580859375,2.269775390625,0.6612240076065063,-0.6213762164115906
1758278117655893800,117.73589379882812,2.000640630722046,0.7951586246490479,-0.669310450553894
1758278117665979000,117.74597875976562,1.765180230140686,0.8522179126739502,-0.7613657712936401
1758278117676063700,117.75606372070312,1.5872516632080078,0.8859724402427673,-0.8384454250335693
1758278117686148900,117.76614892578124,1.455025553703308,0.946581482887268,-0.8338993787765503
1758278117696233700,117.77623364257812,1.332340121269226,0.9943905472755432,-0.7570669054985046
1758278117706318800,117.78631884765625,1.1533668041229248,1.0265700817108154,-0.6590138673782349
1758278117716403700,117.79640380859377,0.9048774242401124,1.0274726152420044,-0.5661688446998596
1758278117726488800,117.80648876953126,0.6152591705322266,0.9325457811355592,-0.4805349111557007
1758278117736572700,117.81657275390624,0.3053924143314361,0.7171040773391724,-0.4190206825733185
1758278117746657800,117.82665771484376,0.0028897961601614,0.4111782312393188,-0.3774445056915283
1758278117756742700,117.83674267578124,-0.258822500705719,0.047024767845869,-0.335144966840744
1758278117766827800,117.84682788085938,-0.4753481447696686,-0.3763715028762817,-0.2805922627449035
1758278117776912600,117.85691259765623,-0.6652315258979797,-0.8357444405555725,-0.2344367355108261
1758278117786997800,117.86699780273436,-0.8537538051605225,-1.326169490814209,-0.2065513134002685
1758278117797083000,117.87708276367188,-1.0535292625427246,-1.8135253190994265,-0.2016255259513855
1758278117807167700,117.88716772460936,-1.276099443435669,-2.2188096046447754,-0.2290188074111938
1758278117817252900,117.8972529296875,-1.5197112560272217,-2.497169017791748,-0.2749777734279632
1758278117827337700,117.90733764648438,-1.769229531288147,-2.6353418827056885,-0.3309403657913208
1758278117837422800,117.9174228515625,-1.9730422496795652,-2.6270883083343506,-0.3817686736583709
1758278117847507700,117.9275078125,-2.097543716430664,-2.501775026321411,-0.3942088186740875
1758278117857592800,117.9375927734375,-2.12917709350586,-2.2812271118164062,-0.3541697859764099
1758278117867676700,117.9476767578125,-2.050280809402466,-1.994011759757996,-0.2816777527332306
1758278117877761800,117.95776171875,-1.8817733526229856,-1.6828844547271729,-0.2188308835029602
1758278117887846700,117.9678466796875,-1.6581056118011477,-1.374720573425293,-0.1706079542636871
1758278117897931800,117.97793188476562,-1.4189732074737549,-1.0825462341308594,-0.1226228550076484
1758278117908017000,117.98801684570311,-1.203829288482666,-0.7976692318916321,-0.0867546051740646
1758278117918101800,117.99810180664062,-1.0780819654464722,-0.5214295983314514,-0.0718403682112693
1758278117928187000,118.00818676757812,-1.0917394161224363,-0.2558325827121734,-0.0757791846990585
1758278117938271700,118.01827172851564,-1.255710482597351,-0.0321150608360767,-0.0908060669898986
1758278117948354800,118.02835473632813,-1.5248304605484009,0.1687235087156295,-0.092172272503376
1758278117958440000,118.03843994140624,-1.8293898105621336,0.3340011537075043,-0.0672075301408767
1758278117968524800,118.04852490234374,-2.0923612117767334,0.4391432702541351,-0.0052855759859085
1758278117978610000,118.05860986328123,-2.2666709423065186,0.4864913523197174,0.0621880069375038
1758278117988694800,118.06869482421877,-2.35296893119812,0.4490062892436981,0.121811918914318
1758278117998779600,118.07877954101562,-2.375729560852051,0.3317715525627136,0.1570471376180648
1758278118008864800,118.08886474609376,-2.370656967163086,0.1643165051937103,0.1577416956424713
1758278118018948900,118.09894897460936,-2.351679563522339,-0.0496407896280288,0.1220982149243354
1758278118029034000,118.10903393554688,-2.334296703338623,-0.284450888633728,0.0579977892339229
1758278118039118800,118.11911889648438,-2.3134241104125977,-0.5337366461753845,-0.0235918778926134
1758278118049203700,118.12920361328123,-2.2910051345825195,-0.778111457824707,-0.1115025579929351
1758278118059288800,118.13928881835938,-2.256312608718872,-1.0177794694900513,-0.1985011100769043
1758278118069373700,118.14937377929688,-2.212035894393921,-1.2630730867385864,-0.290163904428482
1758278118079458800,118.15945874023436,-2.1621649265289307,-1.523861527442932,-0.3830328583717346
1758278118089543700,118.16954370117188,-2.113229751586914,-1.7863909006118774,-0.4690809249877929
1758278118099628800,118.17962890625,-2.076292991638184,-2.0481345653533936,-0.5507129430770874
1758278118109714000,118.1897138671875,-2.0494940280914307,-2.286506175994873,-0.6243227124214172
1758278118119798800,118.199798828125,-2.0281014442443848,-2.5225095748901367,-0.6881006360054016
1758278118129883600,118.20988354492188,-1.9960235357284544,-2.729809284210205,-0.7413691878318787
1758278118139967700,118.2199677734375,-1.9533532857894895,-2.910778284072876,-0.7820891737937927
1758278118150052900,118.23005297851564,-1.8968104124069212,-3.035599946975708,-0.813745379447937
1758278118160137700,118.2401376953125,-1.85321581363678,-3.143285036087036,-0.8495686054229736
1758278118170222800,118.25022290039064,-1.826087236404419,-3.218068122863769,-0.8780724406242371
1758278118180307700,118.2603076171875,-1.815719485282898,-3.239074468612671,-0.8951326608657837
1758278118190392800,118.27039282226562,-1.8025985956192017,-3.1889090538024902,-0.8950011134147644
1758278118200477700,118.28047778320312,-1.7645183801651,-3.083648204803467,-0.8732070922851562
1758278118210562800,118.29056274414064,-1.7137657403945925,-2.9371337890625,-0.8192200660705566
1758278118220647700,118.30064770507812,-1.651849627494812,-2.7442729473114014,-0.7372679114341736
1758278118230732800,118.31073291015625,-1.5748642683029177,-2.4981071949005127,-0.6480706334114075
1758278118240817700,118.32081762695312,-1.4876314401626587,-2.179839372634888,-0.5523784756660461
1758278118250902500,118.33090258789062,-1.3817137479782104,-1.807745695114136,-0.4499719440937042
1758278118260986600,118.34098657226562,-1.2299420833587646,-1.4392292499542236,-0.3443688452243805
1758278118271071700,118.35107177734376,-1.0151450634002686,-1.102677345275879,-0.2341813445091247
1758278118281156900,118.36115698242187,-0.7657530903816223,-0.8123407959938049,-0.1247254237532615
1758278118291241700,118.37124169921876,-0.5141448378562927,-0.5768377780914307,-0.0056658750399947
1758278118301326800,118.38132690429688,-0.2815515100955963,-0.4206545352935791,0.1111089438199997
1758278118311411700,118.39141162109377,-0.0865814983844757,-0.3248129785060882,0.231660395860672
1758278118321496800,118.40149682617188,0.0707596540451049,-0.2334388494491577,0.3538230657577514
1758278118331583700,118.41158374023438,0.1867328584194183,-0.1183777749538421,0.4565331935882568
1758278118341668600,118.42166870117188,0.2658718824386596,0.0192554537206888,0.5468188524246216
1758278118351753700,118.43175366210936,0.3353425860404968,0.1614469438791275,0.6253328323364258
1758278118361837600,118.44183764648436,0.391592800617218,0.3339926302433014,0.7003170847892761
1758278118371922700,118.45192260742188,0.4359411001205444,0.5637749433517456,0.7612917423248291
1758278118382007600,118.46200756835935,0.4781037271022796,0.8348618745803833,0.8079791069030762
1758278118392092700,118.4720927734375,0.5335219502449036,1.1314077377319336,0.8351276516914368
1758278118402177500,118.48217749023438,0.621346652507782,1.4386100769042969,0.8592968583106995
1758278118412262700,118.4922626953125,0.7612499594688416,1.78007709980011,0.8924763798713684
1758278118422347800,118.50234765625,0.9664430618286132,2.134836435317993,0.938752055168152
1758278118432432600,118.5124326171875,1.232831358909607,2.478208065032959,1.0064176321029663
1758278118442517800,118.52251782226564,1.5533347129821775,2.7973172664642334,1.0852985382080078
1758278118452602600,118.5326025390625,1.9027715921401975,3.094777822494507,1.1708273887634275
1758278118462687700,118.54268774414062,2.252374649047852,3.365195035934448,1.228724718093872
1758278118472772600,118.55277270507813,2.551351547241211,3.5702385902404785,1.239855408668518
1758278118482857700,118.56285766601565,2.762562990188598,3.679666996002197,1.2181535959243774
1758278118492941600,118.57294165039062,2.8666157722473145,3.6850106716156006,1.156482219696045
1758278118503026700,118.58302661132812,2.862419605255127,3.5569589138031006,1.0883090496063232
1758278118513111600,118.59311157226564,2.7776966094970703,3.3446919918060303,1.004430890083313
1758278118523196700,118.60319677734375,2.667651653289795,3.0702528953552246,0.917976975440979
1758278118533281500,118.61328149414062,2.551046133041382,2.792865514755249,0.8511510491371155
1758278118543366700,118.62336669921876,2.448277235031128,2.572352886199951,0.8049098253250122
1758278118553451800,118.63345166015624,2.362921953201294,2.4350922107696533,0.7546269297599792
1758278118563536600,118.64353662109374,2.291620969772339,2.357036828994751,0.7060418128967285
1758278118573621800,118.65362182617189,2.2373671531677246,2.299464464187622,0.6538582444190979
1758278118583706600,118.66370654296875,2.1954092979431152,2.2671141624450684,0.5802537798881531
1758278118593791700,118.67379174804688,2.1527633666992188,2.224457025527954,0.4930941164493561
1758278118603876600,118.68387670898436,2.118482112884521,2.161287546157837,0.4034489393234253
1758278118613960700,118.69396069335936,2.0827558040618896,2.072429180145264,0.3031303286552429
1758278118624045600,118.70404565429688,2.043684959411621,1.9810938835144043,0.2122944146394729
1758278118634130700,118.71413061523438,1.993720889091492,1.8810009956359863,0.12528096139431
1758278118644215600,118.72421557617189,1.9415291547775269,1.774833917617798,0.0273229666054248
1758278118654300700,118.73430078125,1.8925426006317136,1.6451475620269775,-0.0683918371796608
1758278118664385800,118.7443857421875,1.862098217010498,1.5342800617218018,-0.1515122950077057
1758278118674470700,118.754470703125,1.84199059009552,1.4323474168777466,-0.2294829934835434
1758278118684555800,118.7645556640625,1.855684757232666,1.2971794605255127,-0.2989763021469116
1758278118694640600,118.774640625,1.8992953300476076,1.151305079460144,-0.3630905747413635
1758278118704725800,118.78472583007812,1.9546209573745728,1.0341768264770508,-0.4302912056446075
1758278118714810600,118.794810546875,1.9973151683807373,0.939208209514618,-0.4970310628414154
1758278118724895700,118.80489575195313,2.0085408687591557,0.825247049331665,-0.5551607012748718
1758278118734979600,118.8149794921875,1.966634750366211,0.725358247756958,-0.6065325140953064
1758278118745064700,118.82506469726565,1.8868274688720703,0.6628139019012451,-0.6454588770866394
1758278118755149600,118.83514965820312,1.7768474817276,0.6228353381156921,-0.6828587055206299
1758278118765234700,118.84523461914064,1.6381593942642212,0.57203608751297,-0.7181591987609863
1758278118775319600,118.85531958007812,1.4481977224349976,0.4813871383666992,-0.7502694725990295
1758278118785404700,118.86540478515624,1.1973068714141846,0.3542089462280273,-0.7792283892631531
1758278118795489800,118.87548974609376,0.8902934193611145,0.2199043929576873,-0.7879441380500793
1758278118805574700,118.88557470703124,0.5512495636940002,0.0657558441162109,-0.7836319208145142
1758278118815659800,118.89565966796874,0.1970874965190887,-0.1042800694704055,-0.7652183175086975
1758278118825744600,118.90574462890623,-0.1264961510896682,-0.2914448976516723,-0.7185842394828796
1758278118835829800,118.91582983398438,-0.4027876555919647,-0.4785546064376831,-0.6554691791534424
1758278118845914600,118.92591455078124,-0.6115936040878296,-0.6548265814781189,-0.578619658946991
1758278118855999700,118.93599975585936,-0.7513682842254639,-0.830558180809021,-0.4759593605995178
1758278118866083600,118.94608349609376,-0.8369194269180298,-1.019877791404724,-0.3704502284526825
1758278118876168700,118.95616870117188,-0.933372437953949,-1.2469042539596558,-0.3040072917938232
1758278118886253600,118.96625366210938,-1.0909961462020874,-1.4888931512832642,-0.2747479379177093
1758278118896338700,118.97633862304689,-1.3211699724197388,-1.703477382659912,-0.2708738446235657
1758278118906423600,118.98642358398438,-1.6222227811813354,-1.8460577726364136,-0.3048784136772156
1758278118916508700,118.9965087890625,-1.9576002359390257,-1.9017808437347408,-0.3560377359390259
1758278118926593800,119.00659375,-2.2609105110168457,-1.874243259429932,-0.3870768845081329
1758278118936678700,119.0166787109375,-2.471454381942749,-1.7819855213165283,-0.3491135239601135
1758278118946763800,119.026763671875,-2.558678150177002,-1.6226435899734497,-0.2332665473222732
1758278118956848600,119.0368486328125,-2.514148473739624,-1.4048757553100586,-0.0700544491410255
1758278118966933800,119.04693383789062,-2.373002052307129,-1.1281418800354004,0.0795281156897544
1758278118977018600,119.0570185546875,-2.1672580242156982,-0.8163054585456848,0.1970305144786834
1758278118987102700,119.06710278320313,-1.9283592700958248,-0.5107040405273438,0.2816708385944366
1758278118997187600,119.0771875,-1.693689227104187,-0.2697811424732208,0.3394632935523987
1758278119007272700,119.08727270507812,-1.5184189081192017,-0.1224537417292594,0.3839852213859558
1758278119017357600,119.09735766601564,-1.4359219074249268,-0.0811917930841445,0.4119167029857635
1758278119027442700,119.10744262695312,-1.4647364616394043,-0.1513293385505676,0.4215240776538849
1758278119037527800,119.11752783203124,-1.5719939470291138,-0.2800276577472687,0.4147186279296875
1758278119047613200,119.12761328125,-1.7291417121887207,-0.4231912195682525,0.4049882292747497
1758278119057698300,119.1376982421875,-1.8802801370620728,-0.5520524978637695,0.3858401179313659
1758278119067783200,119.147783203125,-1.993302822113037,-0.6666384935379028,0.3736707866191864
1758278119077868300,119.15786840820311,-2.049821376800537,-0.7910411357879639,0.3599890768527984
1758278119087953400,119.16795336914062,-2.0705578327178955,-0.9418596625328064,0.3336173892021179
1758278119098038300,119.17803833007812,-2.0764095783233643,-1.1360552310943604,0.279250293970108
1758278119108122000,119.1881220703125,-2.0764200687408447,-1.3694474697113037,0.1823096275329589
1758278119118207200,119.19820727539064,-2.066854953765869,-1.6122853755950928,0.0544163696467876
1758278119128292400,119.20829223632812,-2.041351795196533,-1.8568989038467407,-0.1041844561696052
1758278119138377200,119.21837719726562,-1.9940484762191768,-2.0929501056671143,-0.2695068418979645
1758278119148462300,119.22846240234377,-1.9211151599884035,-2.322100877761841,-0.4301404654979706
1758278119158547200,119.23854711914062,-1.8275612592697144,-2.5587003231048584,-0.5754289627075195
1758278119168632300,119.24863232421876,-1.7418991327285769,-2.7999463081359863,-0.7027024626731873
1758278119178717200,119.25871728515624,-1.674887776374817,-3.0473103523254395,-0.8232203722000122
1758278119188802300,119.26880224609376,-1.6233059167861938,-3.288780689239502,-0.932561218738556
1758278119198887200,119.27888720703125,-1.5849038362503052,-3.493522882461548,-1.0350404977798462
1758278119208972300,119.28897216796877,-1.5548280477523804,-3.647358655929565,-1.1420058012008667
1758278119219057400,119.29905737304688,-1.5403848886489868,-3.735717535018921,-1.23903489112854
1758278119229142300,119.30914233398435,-1.5267233848571775,-3.757391452789306,-1.326523780822754
1758278119239226400,119.31922631835936,-1.4871402978897097,-3.7214548587799072,-1.3981270790100098
1758278119249311200,119.32931127929687,-1.433813214302063,-3.63164734840393,-1.477385640144348
1758278119259396400,119.33939624023438,-1.388177752494812,-3.499406337738037,-1.550750732421875
1758278119269481200,119.34948120117188,-1.348188042640686,-3.344835042953491,-1.6064906120300293
1758278119279566300,119.35956640625,-1.319649338722229,-3.169945478439331,-1.6313209533691406
1758278119289651200,119.36965112304688,-1.298296570777893,-2.976206064224243,-1.6166716814041138
1758278119299736300,119.379736328125,-1.2737566232681274,-2.746389150619507,-1.552773118019104
1758278119309821200,119.3898212890625,-1.2313958406448364,-2.462166786193848,-1.4554073810577393
1758278119319906300,119.39990625,-1.1688406467437744,-2.1292314529418945,-1.3360083103179932
1758278119329991400,119.40999145507811,-1.0814673900604248,-1.7761471271514893,-1.208856463432312
1758278119340076300,119.420076171875,-0.9736319780349731,-1.4231048822402954,-1.0862692594528198
1758278119350161400,119.43016137695312,-0.842444658279419,-1.0907104015350342,-0.9682129621505736
1758278119360245200,119.44024536132812,-0.6912248134613037,-0.799547553062439,-0.8432803750038147
1758278119370330400,119.45033032226564,-0.5223665237426758,-0.5300121903419495,-0.7148281335830688
1758278119380415200,119.46041528320312,-0.328573614358902,-0.2944936752319336,-0.5753839612007141
1758278119390500400,119.47050024414062,-0.1179671138525009,-0.0882451757788658,-0.4116895496845245
1758278119400585200,119.48058520507811,0.1015636399388313,0.0983508080244064,-0.2310614436864853
1758278119410670300,119.49067041015626,0.3247104287147522,0.2649685442447662,-0.0277240388095378
1758278119420755200,119.50075512695312,0.5336178541183472,0.3849745690822601,0.1865834593772888
1758278119430840300,119.51084033203124,0.6895344853401184,0.4099422395229339,0.3998139798641205
1758278119440925200,119.52092529296876,0.7814228534698486,0.3414372205734253,0.6104180812835693
1758278119451010300,119.53101025390625,0.7983054518699646,0.2241801023483276,0.8043031096458435
1758278119461095400,119.54109545898436,0.7638713121414185,0.1278232038021087,0.9700159430503844
1758278119471180300,119.55118017578124,0.6917771100997925,0.1246037110686302,1.0844693183898926
1758278119481264000,119.56126416015626,0.6087607741355896,0.2383606433868408,1.1597203016281128
1758278119491349200,119.57134936523435,0.5237036943435669,0.4613535106182098,1.2016669511795044
1758278119501434400,119.58143432617187,0.4877973794937134,0.7914062738418579,1.224401354789734
1758278119511519200,119.59151928710938,0.5472977161407471,1.2376763820648191,1.2339996099472046
1758278119521604400,119.60160424804688,0.7440850734710693,1.7898050546646118,1.2342356443405151
1758278119531689200,119.61168920898436,1.071226954460144,2.3899571895599365,1.2425827980041504
1758278119541774300,119.6217744140625,1.4841530323028564,2.981252670288086,1.2820273637771606
1758278119551859200,119.63185913085935,1.916059494018555,3.504304885864258,1.3621536493301392
1758278119561944300,119.6419443359375,2.305380344390869,3.91645097732544,1.4603270292282104
1758278119572029200,119.652029296875,2.601412057876587,4.199841976165772,1.5499144792556765
1758278119582114300,119.6621142578125,2.7835707664489746,4.354325294494629,1.6237404346466064
1758278119592199400,119.67219946289065,2.859849452972412,4.379096031188965,1.6595221757888794
1758278119602283300,119.682283203125,2.8452186584472656,4.31163501739502,1.652529239654541
1758278119612368100,119.6923681640625,2.779184103012085,4.1843976974487305,1.6196839809417725
1758278119622453200,119.70245336914064,2.6873133182525635,4.005764961242676,1.5594730377197266
1758278119632538400,119.71253833007812,2.601437330245972,3.796938896179199,1.4869486093521118
1758278119642623200,119.72262329101562,2.5185558795928955,3.566795587539673,1.384814739227295
1758278119652708400,119.73270825195311,2.4313724040985107,3.3474020957946777,1.272128343582153
1758278119662793200,119.74279321289065,2.34432053565979,3.118475914001465,1.155120849609375
1758278119672878300,119.75287841796874,2.2584047317504883,2.8962762355804443,1.0446654558181765
1758278119682963200,119.76296313476564,2.1815052032470703,2.686629295349121,0.942783534526825
1758278119693048300,119.77304833984375,2.121443033218384,2.503875494003296,0.8540970683097839
1758278119703133200,119.78313330078124,2.0757088661193848,2.340219736099243,0.7611298561096191
1758278119713218300,119.79321826171876,2.0475449562072754,2.194767475128174,0.6706931591033936
1758278119723303400,119.80330346679688,2.046044111251831,2.063649177551269,0.5827060341835022
1758278119733387300,119.81338720703124,2.0774121284484863,1.9608449935913088,0.4940283596515655
1758278119743472400,119.82347241210938,2.1419475078582764,1.88155210018158,0.4001426100730896
1758278119753557200,119.83355712890624,2.2151927947998047,1.8161994218826292,0.2902515232563019
1758278119763642400,119.84364233398438,2.2666244506835938,1.76460862159729,0.1756325364112854
1758278119773727200,119.85372729492188,2.2844369411468506,1.7366551160812378,0.0649816617369651
1758278119783812400,119.86381225585936,2.271388292312622,1.7309879064559937,-0.0282614659518003
1758278119793897200,119.87389721679688,2.2450733184814453,1.7338321208953855,-0.1167769506573677
1758278119803982300,119.883982421875,2.198369264602661,1.7021743059158323,-0.2000369578599929
1758278119814067200,119.89406713867189,2.1235153675079346,1.638546347618103,-0.2984586060047149
1758278119824152300,119.90415234375,1.999376654624939,1.516108512878418,-0.3996725678443908
1758278119834237400,119.91423754882813,1.804969429969788,1.2953612804412842,-0.4808694124221802
1758278119844322300,119.924322265625,1.580699801445007,1.055089235305786,-0.5364642143249512
1758278119854406100,119.93440625,1.31816303730011,0.7958992719650269,-0.577415943145752
1758278119864491300,119.9444912109375,1.0350558757781982,0.5420816540718079,-0.6272082328796387
1758278119874576400,119.95457641601564,0.7228391766548157,0.2766936421394348,-0.6468077898025513
1758278119884661200,119.9646611328125,0.3731594681739807,0.009949835948646,-0.6329619884490967
1758278119894746400,119.97474633789062,-0.008314655162394,-0.2535294592380523,-0.6098836064338684
1758278119904831200,119.98483129882813,-0.3456183969974518,-0.4999863803386688,-0.6138426661491394
1758278119914916400,119.99491625976565,-0.5883404612541199,-0.7254807353019714,-0.638081431388855
1758278119925001200,120.00500122070312,-0.7182998061180115,-0.954296886920929,-0.6419743895530701
1758278119935086300,120.01508642578123,-0.7589614987373352,-1.2001969814300537,-0.5834490656852722
1758278119945171200,120.02517114257812,-0.7938635349273682,-1.4661409854888916,-0.4932800233364105
1758278119955256300,120.03525634765624,-0.9128541350364684,-1.7301127910614014,-0.4444035589694977
1758278119965341400,120.04534155273436,-1.1510698795318604,-1.987843632698059,-0.4712530076503753
1758278119975425300,120.05542529296876,-1.48319673538208,-2.209914207458496,-0.5276012420654297
1758278119985510100,120.06551025390624,-1.8631349802017207,-2.3315911293029785,-0.5774849057197571
1758278119995595300,120.07559521484374,-2.2417092323303223,-2.303710460662842,-0.5956697463989258
1758278120005680400,120.08568041992189,-2.5250985622406006,-2.130819320678711,-0.5742579698562622
1758278120015765200,120.09576513671875,-2.672271728515625,-1.8565654754638672,-0.4821312129497528
1758278120025850400,120.10585034179688,-2.6471827030181885,-1.555757761001587,-0.3368366062641144
1758278120035935200,120.11593530273436,-2.4949092864990234,-1.2707626819610596,-0.1830401271581649
1758278120046019800,120.12601977539065,-2.2762765884399414,-1.0200016498565674,-0.066763587296009
1758278120056105000,120.13610498046874,-2.058807849884033,-0.8151113390922546,0.0074925371445715
1758278120066189800,120.14618994140623,-1.8740915060043333,-0.7071752548217773,0.0393916144967079
1758278120076275000,120.15627490234375,-1.7519665956497192,-0.7130587100982666,0.0446135401725769
1758278120086359800,120.16635986328124,-1.704828143119812,-0.8170951008796692,0.0311901438981294
1758278120096445000,120.17644482421876,-1.726104736328125,-0.9897486567497252,0.0044823666103184
1758278120106528800,120.18652880859376,-1.8044767379760744,-1.1873592138290403,-0.0210072807967662
1758278120116614000,120.19661376953124,-1.9068288803100584,-1.3639675378799438,-0.0380805395543575
1758278120126698800,120.20669873046874,-1.999561309814453,-1.5018771886825562,-0.041060883551836
1758278120136784000,120.21678393554689,-2.0648982524871826,-1.5665227174758911,-0.0433876886963844
1758278120146868700,120.22686865234375,-2.097208023071289,-1.57280433177948,-0.052540972828865
1758278120156953900,120.23695385742188,-2.113266706466675,-1.551313400268555,-0.0902089849114418
1758278120167039000,120.2470390625,-2.1198089122772217,-1.532754898071289,-0.1635511070489883
1758278120177123800,120.25712377929688,-2.13181734085083,-1.5300779342651367,-0.275371640920639
1758278120187209000,120.267208984375,-2.139897108078003,-1.5294605493545532,-0.4216436445713043
1758278120197293800,120.2772939453125,-2.1409497261047363,-1.518781065940857,-0.5868432521820068
1758278120207379000,120.28737890625,-2.13623046875,-1.4916181564331057,-0.7550472021102905
1758278120217463800,120.2974638671875,-2.126027107238769,-1.4627822637557983,-0.910143792629242
1758278120227548000,120.3075478515625,-2.100714445114136,-1.46080219745636,-1.0479331016540527
1758278120237632800,120.3176328125,-2.064697265625,-1.5149027109146118,-1.1700294017791748
1758278120247718000,120.3277177734375,-2.016113519668579,-1.6430292129516602,-1.2756956815719604
1758278120257802800,120.337802734375,-1.9723576307296755,-1.8397955894470213,-1.3845843076705933
1758278120267887900,120.34788793945312,-1.921372413635254,-2.1104612350463867,-1.492190957069397
1758278120277972700,120.35797265625,-1.8701622486114504,-2.464338779449463,-1.6080701351165771
1758278120288057900,120.36805786132813,-1.813607096672058,-2.894993305206299,-1.7170720100402832
1758278120298143000,120.37814306640624,-1.765111207962036,-3.37410306930542,-1.8092893362045288
1758278120308227800,120.38822778320312,-1.700729250907898,-3.887596845626831,-1.8510715961456297
1758278120318313000,120.39831298828123,-1.6306620836257937,-4.386831760406494,-1.8436955213546755
1758278120328397800,120.40839770507812,-1.5565851926803589,-4.804161548614502,-1.806652307510376
1758278120338483000,120.41848291015626,-1.466780662536621,-5.068491458892822,-1.7583565711975098
1758278120348566800,120.42856689453124,-1.3929078578948977,-5.131842136383057,-1.7115731239318848
1758278120358652000,120.43865185546876,-1.3758846521377563,-4.981961727142334,-1.6601797342300415
1758278120368736800,120.44873681640624,-1.4195096492767334,-4.635969161987305,-1.5927889347076416
1758278120378822000,120.45882177734374,-1.487320065498352,-4.116664409637451,-1.4937793016433716
1758278120388906800,120.46890673828123,-1.5250898599624634,-3.4628682136535645,-1.3371206521987915
1758278120398992000,120.47899194335938,-1.471176266670227,-2.7470180988311768,-1.1395996809005735
1758278120409076700,120.48907666015624,-1.3013293743133545,-2.0207767486572266,-0.911396861076355
1758278120419161900,120.49916186523436,-1.0469213724136353,-1.3175911903381348,-0.6685178875923157
1758278120429247000,120.5092470703125,-0.761818528175354,-0.6496368646621704,-0.4440538883209228
1758278120439331800,120.51933178710938,-0.4718900322914123,-0.0361063405871391,-0.2499539107084274
1758278120449417000,120.5294169921875,-0.1728122532367706,0.4600379168987274,-0.0896915346384048
1758278120459501800,120.53950170898436,0.1139800995588302,0.7604014873504639,0.0598153956234455
1758278120469587000,120.5495869140625,0.3415962159633636,0.8404012322425842,0.2292140126228332
1758278120479670800,120.5596708984375,0.468063086271286,0.7423481345176697,0.41292205452919
1758278120489756000,120.569755859375,0.4754834473133087,0.5269873738288879,0.6066696643829346
1758278120499840800,120.5798408203125,0.3805524110794067,0.2570445835590362,0.7880245447158813
1758278120509926000,120.58992578125,0.2472183108329773,0.0078755002468824,0.9674869775772096
1758278120520010800,120.6000107421875,0.1251539289951324,-0.1661996245384216,1.1140329837799072
1758278120530095900,120.61009594726562,0.0376147516071796,-0.1856436282396316,1.2309486865997314
1758278120540181000,120.62018090820312,0.0082009378820657,-0.0090861730277538,1.326690435409546
1758278120550265900,120.63026586914064,0.0441083386540412,0.353518396615982,1.4014557600021362
1758278120560351000,120.64035107421876,0.1637441962957382,0.8482519388198853,1.469025731086731
1758278120570435800,120.65043579101562,0.3557511866092682,1.4350805282592771,1.5432182550430298
1758278120580521000,120.66052099609377,0.6199373006820679,2.0507149696350098,1.633877515792847
1758278120590605800,120.67060571289062,0.9392396807670592,2.649655818939209,1.7398362159729004
1758278120600690000,120.68068994140626,1.2869305610656738,3.2093827724456787,1.8502556085586548
1758278120610774800,120.69077490234376,1.6166375875473022,3.718927145004273,1.964909553527832
1758278120620860000,120.70085986328124,1.900007486343384,4.162487983703613,2.0577316284179688
1758278120630944800,120.71094482421876,2.1192901134490967,4.528416633605957,2.1175312995910645
1758278120641030000,120.72102978515623,2.2828891277313232,4.794810771942139,2.1331284046173096
1758278120651114800,120.73111474609377,2.406545639038086,4.957099437713623,2.096688985824585
1758278120661200000,120.74119995117188,2.4890925884246826,5.0326457023620605,2.016285896301269
1758278120671285000,120.75128491210936,2.526731252670288,5.044571399688721,1.8950966596603396
1758278120681369900,120.76136987304687,2.5295581817626958,5.012692928314209,1.7506941556930542
1758278120691455000,120.771455078125,2.5112855434417725,4.942930221557617,1.5887471437454224
1758278120701539800,120.78153979492188,2.4923105239868164,4.853211402893066,1.4225975275039673
1758278120711625000,120.791625,2.483565092086792,4.730275630950928,1.2652795314788818
1758278120721709800,120.80170971679688,2.47327733039856,4.584897994995117,1.116421103477478
1758278120731794000,120.8117939453125,2.455653667449951,4.410521984100342,0.961463451385498
1758278120741878800,120.82187866210936,2.435312032699585,4.186343193054199,0.80754554271698
1758278120751964000,120.8319638671875,2.4250621795654297,3.9098868370056152,0.6652864217758179
1758278120762048800,120.842048828125,2.4099044799804688,3.614388465881348,0.5313504338264465
1758278120772134000,120.8521337890625,2.3897078037261963,3.3194143772125244,0.4110112488269806
1758278120782218800,120.86221875,2.380949020385742,3.015954732894897,0.2911375761032104
1758278120792303900,120.87230395507812,2.3844168186187744,2.701030969619751,0.1753225475549698
1758278120802389000,120.88238891601564,2.41153621673584,2.3991739749908447,0.0769072994589805
1758278120812473900,120.89247387695312,2.467470645904541,2.115273952484131,-0.001693237805739
1758278120822559000,120.90255908203125,2.538818120956421,1.82358193397522,-0.0846839919686317
1758278120832643800,120.91264379882811,2.622206687927246,1.56434428691864,-0.1661002933979034
1758278120842729000,120.92272900390626,2.706096172332764,1.3355553150177002,-0.2378098964691162
1758278120852812800,120.93281274414062,2.7613425254821777,1.1430878639221191,-0.3018562495708465
1758278120862898000,120.94289794921876,2.757551908493042,0.9777063727378844,-0.3651295006275177
1758278120872982800,120.95298266601564,2.6952948570251465,0.85693359375,-0.4147354066371918
1758278120883068000,120.96306787109376,2.592886447906494,0.7596525549888611,-0.4767881333827972
1758278120893152800,120.97315283203125,2.4394774436950684,0.6624565124511719,-0.5416315793991089
1758278120903238000,120.98323779296877,2.2446177005767822,0.5795440673828125,-0.6075844764709473
1758278120913322800,120.99332275390626,2.005394458770752,0.4800710082054138,-0.6559892892837524
1758278120923408000,121.00340795898435,1.7331702709197998,0.346577912569046,-0.6899387240409851
1758278120933493000,121.01349291992187,1.4042770862579346,0.1910597085952758,-0.7102842330932617
1758278120943577900,121.02357788085938,1.023781418800354,0.040331445634365,-0.7251608967781067
1758278120953663000,121.0336630859375,0.6197311878204346,-0.1116120144724845,-0.7333839535713196
1758278120963747800,121.04374780273436,0.228015586733818,-0.2688080370426178,-0.717958927154541
1758278120973833000,121.0538330078125,-0.1195839196443557,-0.4384873509407043,-0.6714609265327454
1758278120983916800,121.06391674804688,-0.3976480364799499,-0.6319358944892883,-0.6123992204666138
1758278120994002000,121.074001953125,-0.5863540172576904,-0.874275803565979,-0.5427104234695435
1758278121004086800,121.08408666992187,-0.6832054853439331,-1.1896401643753052,-0.4417345225811004
1758278121014172000,121.094171875,-0.7232266664505005,-1.5687286853790283,-0.3383626043796539
1758278121024256800,121.1042568359375,-0.8200008869171143,-1.9630069732666016,-0.2754214406013489
1758278121034342000,121.114341796875,-1.066758155822754,-2.3237123489379883,-0.2779197692871094
1758278121044427500,121.12442749023438,-1.4712872505187988,-2.5699093341827397,-0.3620034754276275
1758278121054512400,121.13451245117189,-1.9648871421813965,-2.675819158554077,-0.505162239074707
1758278121064597500,121.14459741210938,-2.404817581176758,-2.6768410205841064,-0.6350401043891907
1758278121074682600,121.1546826171875,-2.696751356124878,-2.573178291320801,-0.6831178665161133
1758278121084767500,121.164767578125,-2.823016166687012,-2.36189079284668,-0.6243624091148376
1758278121094852600,121.1748525390625,-2.809591054916382,-2.071695566177368,-0.4886026978492737
1758278121104936700,121.18493676757812,-2.6914353370666504,-1.6742947101593018,-0.3202091753482818
1758278121115021800,121.19502172851564,-2.4874658584594727,-1.2305595874786377,-0.1600834131240844
1758278121125106700,121.20510668945312,-2.2071030139923096,-0.8060064911842346,-0.0285387001931667
1758278121135191600,121.21519165039062,-1.8677067756652832,-0.4570258557796478,0.0960855185985565
1758278121145276700,121.22527661132813,-1.5295822620391846,-0.1900916397571563,0.1935854405164718
1758278121155361500,121.23536157226565,-1.281574845314026,-0.0152332810685038,0.251609593629837
1758278121165446400,121.2454462890625,-1.2029216289520264,0.0503462627530097,0.2610180079936981
1758278121175531500,121.25553149414064,-1.3161035776138306,0.0853433907032013,0.2431197017431259
1758278121185616400,121.26561645507812,-1.5626587867736816,0.1265456974506378,0.2389265596866607
1758278121195701500,121.27570141601562,-1.831270456314087,0.1386785209178924,0.2713337540626526
1758278121205786600,121.28578662109376,-2.0101864337921143,0.0868102610111236,0.3490954041481018
1758278121215871500,121.29587158203124,-2.07012152671814,0.0026831347495317,0.4659996628761291
1758278121225956600,121.30595654296874,-2.027611017227173,-0.1366065740585327,0.5953184962272644
1758278121236040700,121.31604077148438,-1.9398547410964968,-0.3172330856323242,0.6662523150444031
1758278121246125800,121.32612573242189,-1.8586821556091309,-0.5308439135551453,0.6446876525878906
1758278121256210700,121.33621069335938,-1.81917417049408,-0.7785589098930359,0.5405564308166504
1758278121266295600,121.34629565429688,-1.839565992355347,-1.083409309387207,0.3687141239643097
1758278121276380400,121.35638037109376,-1.8882582187652588,-1.4542760848999023,0.1506020277738571
1758278121286465500,121.36646557617188,-1.9134279489517207,-1.859429717063904,-0.0642868429422378
1758278121296550400,121.37655029296874,-1.8647725582122805,-2.2767174243927,-0.2489413768053054
1758278121306635500,121.38663549804689,-1.7405765056610107,-2.738982915878296,-0.3958155214786529
1758278121316720400,121.39672045898438,-1.569308161735535,-3.240356206893921,-0.5295394659042358
1758278121326805500,121.40680541992188,-1.4161454439163208,-3.7834219932556152,-0.6559829115867615
1758278121336890600,121.416890625,-1.3072751760482788,-4.2748188972473145,-0.7898451089859009
1758278121346975500,121.4269755859375,-1.2459551095962524,-4.682124137878418,-0.9243123531341552
1758278121357060600,121.437060546875,-1.2336167097091677,-4.988968372344971,-1.059338927268982
1758278121367144700,121.44714477539064,-1.2679954767227173,-5.144895553588867,-1.2149643898010254
1758278121377229600,121.4572294921875,-1.3400763273239136,-5.123918533325195,-1.3699500560760498
1758278121387314400,121.467314453125,-1.4190291166305542,-4.9202561378479,-1.5100754499435425
1758278121397399600,121.47739965820313,-1.4951395988464355,-4.552277565002441,-1.6162450313568115
1758278121407484400,121.487484375,-1.5568485260009766,-4.074671745300293,-1.6838014125823977
1758278121417569500,121.49756958007812,-1.594312071800232,-3.5039985179901123,-1.709167242050171
1758278121427654400,121.507654296875,-1.610372543334961,-2.8511555194854736,-1.6930983066558838
1758278121437739500,121.51773950195312,-1.6000308990478516,-2.1536567211151123,-1.644989013671875
1758278121447824600,121.52782470703124,-1.5528976917266846,-1.477217674255371,-1.553611159324646
1758278121457909500,121.53790942382813,-1.4693048000335691,-0.7630515694618225,-1.431379318237305
1758278121467994600,121.54799462890624,-1.366508960723877,-0.012852681800723,-1.296800136566162
1758278121478079500,121.55807958984374,-1.2602040767669678,0.6439270377159119,-1.1547468900680542
1758278121488163600,121.56816357421874,-1.155745029449463,1.118533492088318,-1.0009496212005615
1758278121498248700,121.57824877929689,-1.0274137258529663,1.4577875137329102,-0.8261889815330505
1758278121508333600,121.58833349609375,-0.8542347550392151,1.6809965372085571,-0.649665117263794
1758278121518418400,121.59841845703124,-0.6435036063194275,1.776234149932861,-0.4998076856136322
1758278121528503600,121.60850366210936,-0.41441610455513,1.7699525356292725,-0.3560795485973358
1758278121538588400,121.61858837890624,-0.1688159108161926,1.6690800189971924,-0.1748825907707214
1758278121548673500,121.62867358398438,0.0936540514230728,1.4939308166503906,0.023257652297616
1758278121558758400,121.63875830078123,0.3582476377487182,1.2551121711730957,0.2103865295648574
1758278121568843500,121.64884350585938,0.5743809938430786,0.97244793176651,0.3950751423835754
1758278121578928600,121.6589287109375,0.7395846247673035,0.7347198128700256,0.5744227766990662
1758278121589013500,121.66901342773436,0.8457400798797607,0.5770010352134705,0.7191342115402222
1758278121599098600,121.6790986328125,0.925456702709198,0.4781993329524994,0.8311619162559509
1758278121609183500,121.68918359375,1.0116877555847168,0.4411995112895965,0.9517756700515748
1758278121619267600,121.699267578125,1.089164972305298,0.5168279409408569,1.0831565856933594
1758278121629352400,121.7093525390625,1.1171931028366089,0.7554945945739746,1.1966447830200195
1758278121639437600,121.7194375,1.1132549047470093,1.1355847120285034,1.2772440910339355
1758278121649522400,121.7295224609375,1.1342430114746094,1.6232798099517822,1.3590214252471924
1758278121659607600,121.73960766601564,1.2467926740646362,2.17742133140564,1.4465028047561646
1758278121669692400,121.7496923828125,1.475533962249756,2.7512032985687256,1.5306153297424316
1758278121679777500,121.75977758789062,1.7764493227005005,3.3059654235839844,1.5920792818069458
1758278121689862400,121.7698623046875,2.0950927734375,3.804502487182617,1.6192456483840942
1758278121699947500,121.77994750976562,2.4095916748046875,4.224539756774902,1.6075458526611328
1758278121710032600,121.79003271484376,2.711183786392212,4.539942741394043,1.5521637201309204
1758278121720117500,121.80011743164064,2.983504295349121,4.735776901245117,1.4540106058120728
1758278121730202600,121.81020263671876,3.206601619720459,4.808539867401123,1.3108989000320437
1758278121740286500,121.82028637695312,3.3607895374298096,4.74449348449707,1.1506997346878052
1758278121750371600,121.83037158203123,3.4318673610687256,4.581908226013184,0.9836606383323668
1758278121760456400,121.84045654296877,3.406949996948242,4.345058917999268,0.8201830387115479
1758278121770541600,121.85054150390626,3.3104615211486816,4.042405605316162,0.6616120338439941
1758278121780626400,121.86062646484376,3.1825766563415527,3.6967580318450928,0.4986015558242798
1758278121790711600,121.87071166992187,3.049467802047729,3.350095510482788,0.3484850227832794
1758278121800796400,121.88079638671876,2.927220344543457,3.0157580375671387,0.216639369726181
1758278121810881500,121.89088159179688,2.828883647918701,2.6979992389678955,0.0855348780751228
1758278121820966400,121.90096630859377,2.759012222290039,2.398576498031616,-0.035032819956541
1758278121831051500,121.91105151367188,2.6961379051208496,2.126319408416748,-0.1269909739494323
1758278121841136600,121.92113671875,2.6367318630218506,1.8844431638717647,-0.1997048556804657
1758278121851221500,121.93122143554687,2.605245351791382,1.692267894744873,-0.2553598582744598
1758278121861306600,121.941306640625,2.595896005630493,1.499726414680481,-0.2906605899333954
1758278121871390500,121.95139038085938,2.597719669342041,1.317115068435669,-0.2960923910140991
1758278121881475600,121.9614755859375,2.615058898925781,1.0964508056640625,-0.297074556350708
1758278121891560400,121.971560546875,2.639971971511841,0.9176504611968994,-0.2894797623157501
1758278121901645600,121.9816455078125,2.669452428817749,0.8299592137336731,-0.2801187336444855
1758278121911730400,121.99173046875,2.687800645828247,0.7891649603843689,-0.2799056768417358
1758278121921815600,122.00181567382812,2.698240041732788,0.726630687713623,-0.2776710391044616
1758278121931900400,122.011900390625,2.715963363647461,0.6616799235343933,-0.2685393095016479
1758278121941985500,122.02198559570311,2.748624086380005,0.6273645758628845,-0.2335254102945327
1758278121952070700,122.03207055664062,2.7966063022613525,0.6100434064865112,-0.2110611051321029
1758278121962155500,122.04215551757812,2.7861177921295166,0.5729383826255798,-0.2068216204643249
1758278121972240600,122.05224072265624,2.6428985595703125,0.5177885293960571,-0.2177688181400299
1758278121982325500,122.06232543945312,2.3256280422210693,0.4397275745868683,-0.221369132399559
1758278121992410600,122.07241064453125,1.920689344406128,0.3660144805908203,-0.2036021202802658
1758278122002494500,122.08249438476562,1.543187379837036,0.3242949843406677,-0.1502278447151184
1758278122012579600,122.09257958984377,1.2304216623306274,0.3161742091178894,-0.0750572010874748
