time,seconds_elapsed,z,y,x
1757614589998321700,25.03732177734375,-5.355497105336189,8.07952284053266,-1.4867346412882207
1757614590008277800,25.04727783203125,-5.369337414640188,8.078989756569266,-1.4389347792372107
1757614590018232600,25.057232666015626,-5.369516278338432,8.084996303507685,-1.4040991743080318
1757614590028187600,25.067187744140625,-5.36181754052937,8.09037448941469,-1.4025637814342975
1757614590038143700,25.077143798828125,-5.348111671259999,8.09244486594796,-1.4423698682524262
1757614590048098600,25.0870986328125,-5.331166966199874,8.090708835935592,-1.5130885413371025
1757614590058053600,25.0970537109375,-5.314423336669802,8.085664412027597,-1.5966523752085864
1757614590068008700,25.1070087890625,-5.300003181651235,8.07862735299766,-1.6781303427167236
1757614590077964800,25.11696484375,-5.288713725873827,8.0710928658396,-1.748528843936324
1757614590087919600,25.12691967773437,-5.282388614505529,8.063270209389925,-1.8028949326351285
1757614590097874700,25.13687475585937,-5.284408722156286,8.054048792058229,-1.837851679725945
1757614590107830800,25.146830810546877,-5.299009494438767,8.04173700749576,-1.849687371209264
1757614590117785000,25.15678515625,-5.328034513393044,8.025704156583547,-1.835894992700219
1757614590127740200,25.166740234375,-5.369518031904101,8.006964384800195,-1.796437134797871
1757614590137696300,25.1766962890625,-5.419784576329588,7.987124542820453,-1.7326750028528273
1757614590147651000,25.186651123046875,-5.474769965970516,7.967727768433093,-1.6469992913939058
1757614590157606100,25.196606201171875,-5.528028677949309,7.952011728385091,-1.5416918277479708
1757614590167562200,25.20656225585937,-5.573894941589236,7.942467654970287,-1.4210060315757989
1757614590177517000,25.21651708984375,-5.608416219872236,7.940188019600511,-1.2920914823710918
1757614590187472100,25.22647216796875,-5.631517109474539,7.944668379884958,-1.1569986829228698
1757614590197428200,25.23642822265625,-5.646039555823803,7.954386056300997,-1.01012184911333
1757614590207383000,25.246383056640624,-5.652012785014509,7.969053464078903,-0.8481468879584223
1757614590217338000,25.256338134765624,-5.647254776832461,7.988516289439797,-0.6800889536280185
1757614590227293200,25.266293212890623,-5.631580822360515,8.011143716311455,-0.5265858700791374
1757614590237249000,25.2762490234375,-5.605455616500973,8.036232564860581,-0.4101269708869978
1757614590247204000,25.2862041015625,-5.569107122790813,8.064502966055274,-0.3453480265822261
1757614590257159200,25.2961591796875,-5.519563631942868,8.099156346285342,-0.3293958762234076
1757614590267115000,25.306114990234374,-5.4523892073363065,8.143831354314088,-0.3461560184968635
1757614590277070300,25.3160703125,-5.365576600801944,8.200050669664144,-0.3743649352952837
1757614590287025200,25.326025146484376,-5.261323030123115,8.266611930808425,-0.389886914075911
1757614590296981000,25.33598095703125,-5.139872240927815,8.343939500638841,-0.3616189970992505
1757614590306936300,25.345936279296875,-4.993444246864319,8.436423723068833,-0.2503179007953964
1757614590316891100,25.35589111328125,-4.8092388953313225,8.546439510536194,0.0028122663857895
1757614590326847000,25.365846923828126,-4.610594976340234,8.64505010689199,0.4193570464491843
1757614590336802300,25.37580224609375,-4.481281490945816,8.684088570338487,0.8216471496980636
1757614590346757000,25.385757080078125,-4.435310013365745,8.68708541406691,1.016354240696877
1757614590356712200,25.395712158203125,-4.407181943251192,8.6936151080966,1.0808459290254862
1757614590366668300,25.405668212890625,-4.350831694997847,8.70948721548915,1.1770753293331713
1757614590376623000,25.415623046875,-4.273291359199583,8.723716231849789,1.343915339241177
1757614590386578200,25.425578125,-4.2031539931342,8.728308820337057,1.5233122675791382
1757614590396534300,25.4355341796875,-4.149724308502674,8.727361894875765,1.668323672842979
1757614590406489000,25.445489013671875,-4.1058854590371245,8.726028600445389,1.7800288747020063
1757614590416444200,25.455444091796878,-4.069569406291842,8.724189110058546,1.870173694398999
1757614590426400300,25.46540014648437,-4.042776091912389,8.720882469728588,1.942304133977741
1757614590436355000,25.47535498046875,-4.025225822174549,8.716566944617032,1.9973454915896056
1757614590446310400,25.485310302734376,-4.012558940564095,8.713092546504736,2.0375899698249995
1757614590456266200,25.49526635742188,-3.998663686202466,8.713242768630385,2.064094530390948
1757614590466221000,25.505220947265624,-3.980558705191314,8.71955502051711,2.0724103771850464
1757614590476176400,25.51517626953125,-3.957546370655298,8.734003232586383,2.055571470586955
1757614590486131200,25.525131103515623,-3.9305014196023342,8.757236808657646,2.008067815003544
1757614590496087000,25.53508715820313,-3.9016681238278745,8.787977983880042,1.9284265614032745
1757614590506042400,25.54504248046875,-3.874203486058116,8.823076185268164,1.8205149066083133
1757614590515997200,25.5549970703125,-3.8517560919284817,8.858414625152944,1.6920019239418207
1757614590525953300,25.564953369140625,-3.8402015554741022,8.888973429545759,1.5522250583305954
1757614590535908000,25.574908203125,-3.844217513117194,8.911036792793869,1.409191090619564
1757614590545863200,25.58486328125,-3.8626787602201103,8.924066954758763,1.269312518199533
1757614590555819300,25.5948193359375,-3.891095291887224,8.929488979807495,1.1375231442108749
1757614590565774000,25.604774169921875,-3.92443963534534,8.92934811003208,1.0178046587008982
1757614590575729200,25.614729248046874,-3.958235814224184,8.926012243607639,0.9105346628103403
1757614590585685200,25.62468530273437,-3.9886335828363895,8.922103545731305,0.8106962782252579
1757614590595640000,25.63464013671875,-4.013369964686036,8.91985898167491,0.7066426870979369
1757614590605595100,25.64459521484375,-4.033350384180247,8.919653814491628,0.5849912972966209
1757614590615550200,25.65455029296875,-4.048879961745441,8.92108823120892,0.4372124000808224
1757614590625506000,25.664506103515624,-4.056409480467439,8.9244276047647,0.2655543588992208
1757614590635461000,25.674461181640623,-4.052764694224297,8.929718696910143,0.0751495362381683
1757614590645416200,25.684416259765623,-4.041645042055845,8.934179183450341,-0.1261792424893006
1757614590655372000,25.6943720703125,-4.030892469634115,8.933763003864884,-0.3319300343435257
1757614590665327000,25.7043271484375,-4.027874583117663,8.925017971873283,-0.5391575111541896
1757614590675282200,25.7142822265625,-4.038575425352156,8.90523599756062,-0.7463426831930875
1757614590685238000,25.724238037109377,-4.06720559976995,8.872679297348856,-0.950664647820592
1757614590695193300,25.734193359375,-4.1122181691899895,8.828785210564732,-1.1456910339016466
1757614590705148200,25.744148193359376,-4.162679943926632,8.780544619008898,-1.320789753589034
1757614590715103200,25.75410327148437,-4.207194500696659,8.738215881845354,-1.4537798816695808
1757614590725059300,25.764059326171875,-4.254140376266837,8.708025326243042,-1.4976564327970143
1757614590735014100,25.77401416015625,-4.319790075524151,8.687692732310294,-1.4261150451526046
1757614590744969200,25.78396923828125,-4.414124601995945,8.658111833038925,-1.312635234836489
1757614590754925300,25.79392529296875,-4.545331353791058,8.600749777394533,-1.239942631330341
1757614590764880100,25.803880126953125,-4.693266245286166,8.525434716430306,-1.208547814504802
1757614590774835200,25.813835205078124,-4.828453591150045,8.450011518916487,-1.20570309259817
1757614590784791300,25.823791259765624,-4.942758600243926,8.380135434135795,-1.2299778482854369
1757614590794746000,25.83374609375,-5.039169640728831,8.31581873704791,-1.2744741387464105
1757614590804701200,25.843701171875,-5.115266207459569,8.26216371922791,-1.3195005905613302
1757614590814657300,25.8536572265625,-5.171566771352291,8.222741809421777,-1.346039199527353
1757614590824612000,25.863612060546878,-5.210072735357285,8.195591352167725,-1.3630102080725133
1757614590834567200,25.873567138671877,-5.231552161237597,8.176617771628498,-1.3943201230935751
1757614590844522200,25.88352221679688,-5.238799063625931,8.16219586304426,-1.4504988141722976
1757614590854478000,25.89347802734375,-5.237582089051604,8.149427566885947,-1.5247630509093404
1757614590864433400,25.903433349609376,-5.235684146475792,8.135259925323725,-1.604858039626479
1757614590874388200,25.91338818359375,-5.239841266155243,8.116946854519844,-1.6821338792696594
1757614590884344000,25.923343994140627,-5.253565255603194,8.09369749635756,-1.750005638490617
1757614590894299400,25.93329931640625,-5.276027847301959,8.067635418862103,-1.8019927230983968
1757614590904254200,25.943254150390626,-5.303628386411071,8.042536048918961,-1.832906770669669
1757614590914210000,25.9532099609375,-5.331391422605514,8.022241448909044,-1.8412683563016357
1757614590924165400,25.963165283203125,-5.354702740088105,8.00981042188108,-1.827705548764765
1757614590934120200,25.9731201171875,-5.37190697286725,8.006110398319363,-1.7930900163270531
1757614590944075000,25.98307495117188,-5.384658902412653,8.009273830786347,-1.739936664418876
1757614590954031000,25.993031005859372,-5.395259206882119,8.016645236337185,-1.67181940600425
1757614590963986200,26.00298608398437,-5.405229981276393,8.026400322154164,-1.5908410585813224
1757614590973941000,26.01294091796875,-5.416470337215066,8.03683345336318,-1.497185600414872
1757614590983897000,26.02289697265625,-5.431507162827253,8.045081057226657,-1.3949142895944415
1757614590993852200,26.03285205078125,-5.451342913153767,8.048611569440364,-1.2934721230745314
1757614591003807000,26.042806884765625,-5.473266575670242,8.048502848368882,-1.1980579846724868
1757614591013763000,26.05276318359375,-5.4913090128391975,8.049206612724065,-1.1073285700205713
1757614591023718100,26.06271826171875,-5.494071463289856,8.058931303402781,-1.0194191812254487
1757614591033673200,26.072673095703124,-5.47093842498362,8.084863617038726,-0.9349900357615202
1757614591043628300,26.082628173828127,-5.42069584595561,8.127515010285377,-0.8543813253685831
1757614591053584100,26.092584228515623,-5.350674215224385,8.181253614735603,-0.7796016133900732
1757614591063539200,26.102539306640622,-5.2707478610724205,8.238898578974604,-0.714258641994372
1757614591073494300,26.112494384765625,-5.189573552685975,8.295016187515854,-0.656803355108574
1757614591083450000,26.1224501953125,-5.111500132924318,8.347633094459772,-0.5999464359747245
1757614591093405200,26.1324052734375,-5.036203192138672,8.397961013683677,-0.5303532963212579
1757614591103360300,26.1423603515625,-4.960817988547682,8.448376611191033,-0.4308181324664503
1757614591113316400,26.15231640625,-4.874565646244585,8.504683020302652,-0.2817946785496548
1757614591123271400,26.162271484375,-4.758421146763861,8.574618141794204,-0.0610611567575018
1757614591133226500,26.1722265625,-4.608951885308325,8.65303233781755,0.2302642151355743
1757614591143181300,26.18218139648437,-4.474868701294064,8.712945246988534,0.4800950082674622
1757614591153137400,26.192137451171877,-4.375422530896961,8.757362480863929,0.5784787370648234
1757614591163092500,26.202092529296877,-4.286106709370017,8.799463839012384,0.6075297672431915
1757614591173047600,26.21204760742188,-4.194109978196025,8.837240904220938,0.694979575702548
1757614591183003400,26.22200341796875,-4.102870202869177,8.864576654914021,0.869545869013667
1757614591192958500,26.23195849609375,-4.017705655802786,8.881648201224207,1.0699209957115352
1757614591202913500,26.24191357421875,-3.937415436774492,8.896728281456232,1.231002515158057
1757614591212869400,26.251869384765627,-3.8601191388651728,8.915098050883412,1.3382320329077542
1757614591222824400,26.261824462890623,-3.7869025114849206,8.935994708439708,1.4063286869257687
1757614591232779500,26.271779541015626,-3.722151806893944,8.95627995609939,1.4495007430456577
1757614591242734300,26.281734375,-3.668637074327469,8.974050590589641,1.4757687183767556
1757614591252690400,26.2916904296875,-3.625021804484725,8.989420009157062,1.489949219420552
1757614591262645500,26.3016455078125,-3.586898410056531,9.003674159958958,1.49611738666147
1757614591272600300,26.31160034179688,-3.5504236596181986,9.018376639050246,1.4945784866563976
1757614591282556400,26.32155639648437,-3.513337499283254,9.034986413067578,1.4818454079419374
1757614591292511500,26.33151147460937,-3.474748533169925,9.054577833244204,1.4529846396386623
1757614591302466300,26.34146630859375,-3.4338328776746985,9.077866938894989,1.404102389178425
1757614591312421400,26.35142138671875,-3.390346202647686,9.104850222888588,1.3332792328059673
1757614591322377500,26.36137744140625,-3.3481615501299498,9.133395933893322,1.241480654552579
1757614591332332300,26.371332275390625,-3.314502149373293,9.159706433191896,1.133241594434157
1757614591342287600,26.38128759765625,-3.2978336309060454,9.179611157101393,1.0146076892904936
1757614591352243500,26.391243408203124,-3.304406287294626,9.190064746576548,0.8910600008811801
1757614591362198300,26.4011982421875,-3.3347304061487315,9.190197433045508,0.7682706565584987
1757614591372153600,26.411153564453127,-3.384409798336029,9.180948543184996,0.6529728370349854
1757614591382109400,26.421109375,-3.4472894483581182,9.164111974674462,0.5528144997805357
1757614591392064300,26.43106420898437,-3.519372395533323,9.141143187019228,0.4731519841965287
1757614591402019600,26.44101953125,-3.6004748077273367,9.112482325202226,0.4118813037410378
1757614591411974400,26.450974365234377,-3.691966219727695,9.078018914586304,0.3596837181877345
1757614591421930200,26.46093017578125,-3.793964120434224,9.037940586698054,0.3031126850568689
1757614591431885600,26.47088549804688,-3.902734584015608,8.993625644153356,0.2317892510120756
1757614591441840400,26.48084033203125,-4.012081093919277,8.947358983018994,0.1353846859337296
1757614591451796500,26.49079638671875,-4.11615200150758,8.900988861510157,0.0064033967731433
1757614591461751600,26.50075146484375,-4.213697891241312,8.853719160813093,-0.1636369578166864
1757614591471706400,26.51070629882813,-4.313198129913211,8.798883993297816,-0.3825970127960666
1757614591481662500,26.520662353515625,-4.416169844087958,8.731834656375646,-0.6503378123562783
1757614591491617500,26.530617431640625,-4.505804814566671,8.65765590596497,-0.9555476706217974
1757614591501572400,26.540572265625,-4.568642086751759,8.583233409926295,-1.2751558374002576
1757614591511527400,26.55052734375,-4.601932069674134,8.515278064075112,-1.575644804623723
1757614591521483500,26.5604833984375,-4.598379930150509,8.467005323815345,-1.8262278774276373
1757614591531438300,26.570438232421875,-4.55780446639508,8.448237494981289,-2.006009128908068
1757614591541393400,26.580393310546874,-4.529868119460344,8.423973991340398,-2.165028893519193
1757614591551349500,26.590349609375,-4.558608768515288,8.36400964424312,-2.330850154838711
1757614591561304300,26.60030419921875,-4.6268531604409215,8.286922897431253,-2.467695350912213
1757614591571259400,26.61025927734375,-4.703301901610195,8.219204282945395,-2.5483318991601465
1757614591581214500,26.62021435546875,-4.766676933933795,8.175107951587439,-2.5723107406407597
1757614591591170600,26.63017065429688,-4.808418518859148,8.155056512683629,-2.558227562491596
1757614591601125400,26.64012548828125,-4.8368645688816905,8.155157050448656,-2.503715927842259
1757614591611080400,26.65008056640625,-4.8576875766798855,8.17460292467475,-2.39773597176224
1757614591621036500,26.66003662109375,-4.873357439498603,8.206654597973824,-2.252018317925185
1757614591630991400,26.66999145507813,-4.885808632531762,8.23985602582991,-2.098581906404346
1757614591640946400,26.679946533203125,-4.896071083348989,8.266136129990219,-1.9671964370414612
1757614591650902500,26.689902587890625,-4.901865741102397,8.284683009549974,-1.8724524529859423
1757614591660857300,26.699857421875,-4.898505032497644,8.299481934753059,-1.8148425600603224
1757614591670812400,26.7098125,-4.882611297795176,8.315050090762972,-1.7861726381540295
1757614591680767500,26.719767578125,-4.854639002764225,8.334285537108778,-1.7727363796062767
1757614591690723300,26.729723388671875,-4.818757542043924,8.357528465530276,-1.761154662884027
1757614591700678400,26.739678466796875,-4.781523205409944,8.382949322512745,-1.7417092270493506
1757614591710633500,26.749633544921878,-4.7489331874504686,8.408046354368329,-1.7096194136969745
1757614591720589300,26.75958935546875,-4.725760986177623,8.430130760404467,-1.6644826333753764
1757614591730544400,26.76954443359375,-4.715867076411843,8.446497373315692,-1.6086109624192118
1757614591740499500,26.77949951171875,-4.722458145239949,8.454674834552407,-1.545081031794846
1757614591750454500,26.78945458984375,-4.748074232533574,8.452516779735683,-1.4768760950967668
1757614591760410600,26.79941064453125,-4.793047638987004,8.439059916791319,-1.4068825214162468
1757614591770365400,26.809365478515623,-4.853747606882453,8.416031507903337,-1.3348745391733945
1757614591780320500,26.819320556640623,-4.921562082958221,8.388321078678965,-1.258832186847925
1757614591790276600,26.82927661132813,-4.984045134878159,8.363298865625262,-1.1768351639017465
1757614591800231400,26.8392314453125,-5.031139479008317,8.34694803480506,-1.0892859136559068
1757614591810186500,26.8491865234375,-5.056318343928456,8.342764611640572,-1.0011593019135296
1757614591820141300,26.85914135742188,-5.0586780587971205,8.351116260400413,-0.9160008923269808
1757614591830097400,26.869097412109376,-5.043934078651667,8.369052314585447,-0.8295163487032056
1757614591840052500,26.879052490234372,-5.020945417252182,8.391786708962917,-0.7337895641554146
1757614591850007600,26.88900756835937,-4.999661221683025,8.413388884440064,-0.6234395032323896
1757614591859963400,26.89896337890625,-4.98678303540945,8.428811494499444,-0.5074575008369981
1757614591869918500,26.90891845703125,-4.984930101019144,8.435655076783895,-0.4007021764703095
1757614591879873500,26.91887353515625,-4.992763278862833,8.434749652376771,-0.3125380457291379
1757614591889828400,26.928828369140625,-5.00737398801744,8.428419864833355,-0.2415984964353963
1757614591899784400,26.938784423828125,-5.020086170074343,8.4223870144099,-0.1803550327803939
1757614591909739500,26.948739501953124,-5.013275321015716,8.427564709308744,-0.1165203653221018
1757614591919694300,26.9586943359375,-4.962647542062402,8.458233988338709,-0.0281028785910806
1757614591929650400,26.968650390625,-4.835902445851266,8.530418934583663,0.1280188516071531
1757614591939605500,26.97860546875,-4.630030913694203,8.635627029508353,0.3989326095145195
1757614591949560300,26.98856030273437,-4.450649036794901,8.710945597603917,0.6939318202152848
1757614591959515400,26.998515380859374,-4.369092451092601,8.740396148493886,0.8287724715333431
1757614591969471500,27.008471435546877,-4.329878923340141,8.75998756867051,0.8277570108804851
1757614591979426300,27.01842626953125,-4.277232205779851,8.785376276949048,0.8323612898055464
1757614591989381400,27.02838134765625,-4.21284448928237,8.808060402444005,0.9167503224547952
1757614591999337500,27.03833740234375,-4.146843200108409,8.824095591443777,1.0532967547774317
1757614592009292300,27.048292236328123,-4.0763051442876455,8.840062391382455,1.1863395628932862
1757614592019247600,27.05824755859375,-3.9959535504609343,8.862579928138851,1.287410046556592
1757614592029202400,27.06820239257813,-3.9098230809718366,8.889599452489614,1.3633290647633374
1757614592039158300,27.078158203125,-3.8286803367674342,8.914645046418904,1.4285330660797655
1757614592049113600,27.088113525390625,-3.758222652706504,8.935055966284871,1.4869224189452823
1757614592059068400,27.098068359375,-3.6965804355248806,8.952561227837204,1.5353640860311686
1757614592069024300,27.10802416992188,-3.6400077766925096,8.97013604749441,1.567589800722897
1757614592078979600,27.1179794921875,-3.586246668149531,8.99012903420925,1.5769675776600838
1757614592088934400,27.127934326171875,-3.534360413567722,9.01368409731984,1.5595505789130926
1757614592098890500,27.13789038085937,-3.484795879931748,9.040817018917204,1.5133463154904545
1757614592108845600,27.14784545898437,-3.439109941294789,9.070552231967447,1.4380413375288248
1757614592118800400,27.15780029296875,-3.397845910753309,9.101443629315495,1.3374528652288018
1757614592128755500,27.16775537109375,-3.363014835868776,9.130960231178998,1.2190475812092425
1757614592138711600,27.17771166992188,-3.3392011218219992,9.155554574209452,1.0935845606978982
1757614592148666600,27.18766650390625,-3.331270036561787,9.172069655680655,0.9727050685845317
1757614592158621400,27.197621337890624,-3.3424104392573235,9.17870105651915,0.8660754164241253
1757614592168577800,27.207577880859372,-3.376814520901441,9.173985133913158,0.7781444003190845
1757614592178532600,27.21753271484375,-3.438172368183732,9.156979054054617,0.7064560054194182
1757614592188487400,27.2274873046875,-3.525698091423511,9.128472506016491,0.6409829779032618
1757614592198442500,27.2374423828125,-3.63691156424284,9.089652069234848,0.5669873289745301
1757614592208398600,27.247398681640625,-3.766295484524965,9.042494012218713,0.4677152730353176
1757614592218353400,27.257353515625,-3.90527462388724,8.989521131443977,0.328228732140176
1757614592228308500,27.26730859375,-4.046427307896316,8.93186739937663,0.1363380594021175
1757614592238264600,27.2772646484375,-4.184305792540312,8.868405857813357,-0.1153863837229553
1757614592248219400,27.287219482421875,-4.311237351234257,8.79775411248505,-0.4279694285044446
1757614592258174700,27.2971748046875,-4.417122030246258,8.720255277740955,-0.7852064476598054
1757614592268129500,27.307129638671874,-4.498111337454617,8.636330209341645,-1.162421950080618
1757614592278085400,27.31708544921875,-4.556068436382711,8.548485337150096,-1.5284128055885433
1757614592288040700,27.327040771484373,-4.598986371611058,8.459998659923672,-1.8569180531151592
1757614592297995500,27.33699560546875,-4.640025068964063,8.371599660980701,-2.134675110179186
1757614592307951400,27.346951416015624,-4.681168687996268,8.28674228016734,-2.363672812510281
1757614592317906700,27.35690673828125,-4.713845799717307,8.215340008732676,-2.5413120835259555
1757614592327861500,27.366861572265623,-4.746211069010198,8.169123616480826,-2.628559866607189
1757614592337816600,27.376816650390627,-4.802912030397355,8.154267408132553,-2.571058110231161
1757614592347772700,27.38677270507813,-4.8926539683818815,8.1511022220999,-2.406632541053742
1757614592357727500,27.3967275390625,-5.012438870191573,8.12959590821266,-2.226093749204278
1757614592367682600,27.4066826171875,-5.146320686414837,8.093260273984074,-2.0456990420006216
1757614592377638700,27.416638671875,-5.259492307564616,8.062842923888564,-1.8704842216528952
1757614592387593500,27.426593505859376,-5.334347934323549,8.045883021259307,-1.7259367806389927
1757614592397548500,27.436548583984376,-5.376262829989194,8.037940537822246,-1.6302316964663564
1757614592407503600,27.44650366210937,-5.396838585028052,8.036337194278836,-1.5690106273062527
1757614592417459500,27.45645947265625,-5.404736060279608,8.040453981947898,-1.5199614958465095
1757614592427414500,27.46641455078125,-5.404626754686236,8.047590994220972,-1.4821255400575697
1757614592437369600,27.47636962890625,-5.401463322219252,8.051914118117093,-1.47012384435758
1757614592447325400,27.486325439453125,-5.399693974459171,8.048712107205391,-1.4939664922378957
1757614592457280500,27.496280517578125,-5.39986348580718,8.038468945610523,-1.5475504906482993
1757614592467235600,27.506235595703124,-5.398468232056498,8.026131442084909,-1.6149829816691577
1757614592477190400,27.5161904296875,-5.391595423677563,8.016516056999563,-1.6842039635419843
1757614592487146500,27.526146484375,-5.377704260969161,8.012208130672574,-1.7479169956482945
1757614592497101600,27.5361015625,-5.359797432878613,8.012314513656497,-1.801596563387662
1757614592507056400,27.54605639648437,-5.342815902939439,8.014316501128674,-1.842675300490111
1757614592517011700,27.55601171875,-5.331519432899356,8.01574039645195,-1.8690037738367915
1757614592526967600,27.565967529296877,-5.3289995590329164,8.01493901694119,-1.8796026170015332
1757614592536922400,27.57592236328125,-5.336344076576829,8.01109637003839,-1.875147537288815
1757614592546877700,27.58587768554688,-5.352534163877368,8.004687087517976,-1.856276832602173
1757614592556833500,27.59583349609375,-5.376013823664188,7.996308550751209,-1.8242497092224657
1757614592566788600,27.60578857421875,-5.4046752700030805,7.986907685199379,-1.7802289273187517
1757614592576743700,27.61574365234375,-5.436885933256149,7.977258982366323,-1.7245212147526443
1757614592586698500,27.62569848632813,-5.4713224558651445,7.968094263657927,-1.6566474097050723
1757614592596654600,27.635654541015622,-5.505412941515446,7.961147220999002,-1.5751052909195422
1757614592606609700,27.645609619140625,-5.53453440658152,7.959367936366796,-1.4791196362398564
1757614592616564500,27.655564453125,-5.552559892615675,7.966673290944099,-1.368066614679247
1757614592626520600,27.6655205078125,-5.555429895094036,7.98733497070074,-1.2288448987327516
1757614592636475600,27.6754755859375,-5.541319536677003,8.023727303552628,-1.0411481979526578
1757614592646430500,27.685430419921875,-5.509363140445947,8.07221222525835,-0.8103816593181341
1757614592656385500,27.695385498046875,-5.459224021792411,8.126638227450847,-0.5701076894847675
1757614592666341600,27.70534155273437,-5.398413286998868,8.179334044849872,-0.3550380478063598
1757614592676296400,27.71529638671875,-5.337966124820709,8.2245088190943,-0.1842002552327699
1757614592686251500,27.72525146484375,-5.281359855979681,8.262847609838843,-0.0544679827372776
1757614592696207600,27.73520751953125,-5.225222958216071,8.298487663018703,0.0501583713432773
1757614592706162400,27.745162353515624,-5.164197119367122,8.335461595150829,0.1466308870912995
1757614592716117500,27.755117431640624,-5.092963190236687,8.376824702152609,0.2467842650428414
1757614592726072600,27.765072509765623,-5.00448294275105,8.42572580344379,0.3642279740212485
1757614592736028700,27.775028564453127,-4.882166476637125,8.488993868261575,0.521351476556994
1757614592745983500,27.7849833984375,-4.705696980053186,8.571180568560957,0.7494285203792155
1757614592755938600,27.7949384765625,-4.507921952851117,8.648429227936267,1.026503805724159
1757614592765893400,27.804893310546877,-4.358701405459642,8.697389365938305,1.2359483009971677
1757614592775849500,27.814849365234377,-4.266726009334624,8.729790583327413,1.3252232059918343
1757614592785804500,27.824804443359376,-4.191559416930377,8.757071388962864,1.3838164108663795
1757614592795759400,27.83475927734375,-4.108493595708906,8.778574195718765,1.4924123946636914
1757614592805715500,27.844715576171875,-4.018534800103306,8.791852779486774,1.6507856780648231
1757614592815670500,27.85467041015625,-3.928064547844231,8.801310343661903,1.810413637702167
1757614592825625600,27.86462548828125,-3.8376328740298735,8.81532308692336,1.9320972127400335
1757614592835580700,27.87458056640625,-3.749456577926874,8.836702559560537,2.0061594971641896
1757614592845536500,27.88453662109375,-3.6711873433321713,8.861381073743104,2.041741682676971
1757614592855491600,27.89449169921875,-3.6095001179650414,8.883792812037468,2.0542939979970454
1757614592865446700,27.90444677734375,-3.5630806043565277,8.902227463394404,2.055528654358536
1757614592875402500,27.914402587890624,-3.526483396582305,8.917496344196795,2.052460791220516
1757614592885357600,27.924357666015624,-3.495673247776925,8.931432515090703,2.0445371586143968
1757614592895312600,27.934312744140627,-3.468132914422452,8.945995293450355,2.027719440934807
1757614592905267500,27.94426733398437,-3.4418671310484408,8.963038782709836,1.9969607300557195
1757614592915223600,27.9542236328125,-3.4155691989704966,8.984128917011619,1.946710113851726
1757614592925178600,27.9641787109375,-3.3887174324020743,9.009865415814518,1.873323536732048
1757614592935133400,27.97413354492188,-3.3608275549575684,9.039950172954796,1.7761046869955956
1757614592945088500,27.98408862304688,-3.332394072155654,9.073015991732476,1.6570863856442273
1757614592955044600,27.994044677734376,-3.306007000489533,9.106796680781244,1.518861864041537
1757614592964999400,28.00399951171875,-3.287897051042318,9.137748283883928,1.36444798579067
1757614592974954500,28.01395458984375,-3.28654183704108,9.161381088405848,1.199214242035523
1757614592984910600,28.02391064453125,-3.306940189686417,9.17448490012884,1.0312039462391287
1757614592994865700,28.03386572265625,-3.3496891980886456,9.17571999488175,0.869553467798233
1757614593004820500,28.043820556640625,-3.410934232646227,9.165874892693758,0.7229200873557478
1757614593014775600,28.053775634765625,-3.4841403386324643,9.147302878692743,0.5983722819931805
1757614593024731600,28.063731689453125,-3.5622833164989944,9.123248049366474,0.4968535065731033
1757614593034686500,28.0736865234375,-3.637863165879249,9.0977763389796,0.4084214456107467
1757614593044641500,28.0836416015625,-3.703514326441288,9.074965372234582,0.3151839936606586
1757614593054596600,28.0935966796875,-3.7552801695138216,9.05695742185712,0.1994046559642069
1757614593064552400,28.10355249023437,-3.792660052098334,9.043427493676544,0.0504090581687167
1757614593074507500,28.11350756835937,-3.8171003736108537,9.032305795681475,-0.1327546022916212
1757614593084462600,28.123462646484374,-3.8286867665082216,9.022032823470234,-0.3383140728248283
1757614593094418400,28.13341845703125,-3.828725344952941,9.011940468522903,-0.5442285673407837
1757614593104373500,28.14337353515625,-3.824498082646728,9.000548136892915,-0.7305650491509587
1757614593114328600,28.15332861328125,-3.8237367428854103,8.98649447709918,-0.8901508501470089
1757614593124284000,28.163283935546875,-3.822924841980636,8.97228241187334,-1.0265471334092318
1757614593134240300,28.173240234375,-3.804069627124071,8.966904225966333,-1.1375615034598856
1757614593144195000,28.18319506835937,-3.7617297840446233,8.976600275072455,-1.2001859366118908
1757614593154150000,28.19314990234375,-3.711377022640407,8.998452625918388,-1.1932652705032378
1757614593164106200,28.203106201171877,-3.682368662559986,9.01627878998816,-1.147740440712124
1757614593174061000,28.21306103515625,-3.7011408753082153,9.012200580763816,-1.1189941656339912
1757614593184016000,28.223015869140625,-3.763012517331541,8.98557970034182,-1.12668968857266
1757614593193971200,28.23297119140625,-3.842111480748653,8.947591038209199,-1.161533915199712
1757614593203927000,28.242927001953124,-3.9150165579617022,8.907894403114915,-1.221651260901615
1757614593213882000,28.252882080078123,-3.975756273345649,8.870441163033247,-1.2957822997130453
1757614593223837200,28.262837158203126,-4.0276577254965895,8.837411584612727,-1.3596044912822545
1757614593233792000,28.2727919921875,-4.074009434565902,8.809810460981726,-1.4000253489978611
1757614593243748000,28.282748046875,-4.118990439803898,8.785300289103388,-1.4222649455957117
1757614593253703200,28.292703125,-4.165673865045607,8.760127269402146,-1.4414347793594002
1757614593263658000,28.302657958984376,-4.2136078748703,8.731897200217842,-1.4730470383279024
1757614593273614000,28.31261401367188,-4.262169661204517,8.699889366060495,-1.5219173060894011
1757614593283569200,28.32256909179688,-4.31212582450658,8.66408915388286,-1.5841408302903175
1757614593293524000,28.33252392578125,-4.364027861179411,8.624913912314176,-1.6542266122989355
1757614593303479300,28.342479248046875,-4.418736479705572,8.582565301406383,-1.7276304328143597
1757614593313435100,28.35243505859375,-4.477205327548086,8.537367730808258,-1.79955862781927
1757614593323390000,28.362389892578125,-4.540685573811829,8.48991916641295,-1.8638325086787344
1757614593333345300,28.37234521484375,-4.609904071466625,8.441077101832628,-1.9150433482170104
1757614593343300000,28.382300048828125,-4.685704870121181,8.391395079296826,-1.949119513081014
1757614593353256000,28.392255859375,-4.768559678940474,8.341309152135253,-1.96311472068578
1757614593363211300,28.402211181640624,-4.858054364165663,8.291936341679095,-1.952818659859896
1757614593373166000,28.412166015625,-4.952054251855611,8.245506598937512,-1.912890700227767
1757614593383122200,28.4221220703125,-5.047217338106036,8.204358011469244,-1.8396974537231028
1757614593393077200,28.4320771484375,-5.1389370059043165,8.170681367316842,-1.7325490383855997
1757614593403032000,28.442031982421877,-5.221511828738451,8.146461702817678,-1.594171518178284
1757614593412987000,28.45198681640625,-5.288965654808282,8.133399976670741,-1.4300510694272814
1757614593422943200,28.461943115234376,-5.336923922291398,8.132260158985853,-1.2466013585671782
1757614593432898000,28.47189794921875,-5.36041936416924,8.143992682355641,-1.054361242203787
1757614593442853000,28.48185302734375,-5.357261192399263,8.168191304066777,-0.8664914498791098
1757614593452808200,28.49180810546875,-5.328156093946099,8.203804469239712,-0.6918908159069717
1757614593462764000,28.501763916015623,-5.279640192580223,8.246690255764126,-0.5365982185928151
1757614593472719000,28.511718994140622,-5.219712670361996,8.292280625072122,-0.4038473426282405
1757614593482674200,28.521674072265625,-5.155142290773988,8.336919392743706,-0.3011173099885694
1757614593492630000,28.531630126953125,-5.090152808991074,8.37883954910636,-0.2361363403056748
1757614593502585000,28.541585205078125,-5.025639128026366,8.4185613186419,-0.202826410573814
1757614593512540200,28.5515400390625,-4.959973354417086,8.457893212077021,-0.1818489245999604
1757614593522495000,28.561494873046875,-4.888332305790484,8.500114397212862,-0.1504642455759458
1757614593532451000,28.571451171875,-4.79598310791701,8.553432730424404,-0.0877435307089239
1757614593542406100,28.58140625,-4.653314466387033,8.632239140635729,0.0388677191226277
1757614593552361000,28.59136083984375,-4.424604494956135,8.746921750870346,0.2908642115215771
1757614593562316300,28.60131640625,-4.151808421300351,8.859041817140579,0.6710057757232338
1757614593572272000,28.611272216796877,-3.9398037932157512,8.924955428031087,0.9967574136927724
1757614593582227000,28.62122705078125,-3.8089758116051553,8.968597001358866,1.1074290347203612
1757614593592182300,28.63118237304688,-3.705017132219672,9.009856063464284,1.1250558037605136
1757614593602137000,28.64113720703125,-3.5977374917179343,9.04393661224246,1.1974587766703215
1757614593612093200,28.65109326171875,-3.495442653891444,9.06260565687716,1.349617934796959
1757614593622048300,28.66104833984375,-3.4064009731307623,9.068986882346868,1.5232450475618242
1757614593632003000,28.67100317382813,-3.3247824281081555,9.072872783869505,1.6730714518919587
1757614593641959200,28.680959228515626,-3.245815274377167,9.079275052127242,1.7893663196288048
1757614593651914200,28.690914306640625,-3.179863377302885,9.084896983662247,1.8770994020089504
1757614593661869000,28.700869140625,-3.137656512953341,9.085894178006052,1.942176269814372
1757614593671824000,28.710823974609376,-3.1189839611873027,9.08384893591404,1.9814216540098188
1757614593681780200,28.7207802734375,-3.116169780549406,9.082666448131205,1.9912474669754503
1757614593691735000,28.730735107421875,-3.122081927202642,9.085104488933084,1.970754567914456
1757614593701690000,28.740690185546875,-3.134938778427243,9.091834673970936,1.9186185763552783
1757614593711645200,28.750645263671878,-3.156502375459671,9.101945149096846,1.8334334248922763
1757614593721601000,28.76060107421875,-3.18622151415795,9.114528736338018,1.7157357046201824
1757614593731556000,28.77055615234375,-3.219902249963581,9.129097944438456,1.5691421447314322
1757614593741511200,28.78051123046875,-3.2534155202478168,9.14492855077684,1.3985491389654576
1757614593751467000,28.790467041015624,-3.283848067912459,9.160971338561176,1.2096819331012665
1757614593761422000,28.800422119140624,-3.31034853682518,9.175724086534975,1.0089862692121416
1757614593771377200,28.810377197265623,-3.33507848893404,9.187142137128117,0.8025419786684215
1757614593781332000,28.82033203125,-3.362551017749309,9.192736596134305,0.5976965016234665
1757614593791288000,28.8302880859375,-3.397240930597484,9.190653944641353,0.4012683589857071
1757614593801243100,28.8402431640625,-3.443054587267339,9.179739751917124,0.2194263025179505
1757614593811198000,28.850197998046877,-3.502487019445002,9.15966317857206,0.0594168829820817
1757614593821153300,28.8601533203125,-3.574422374843061,9.131741736945507,-0.0720648863621288
1757614593831109000,28.870109130859376,-3.655064768309891,9.098388917919992,-0.1737293675629422
1757614593841064200,28.880064208984376,-3.737727561688423,9.062821929976344,-0.2550821743214503
1757614593851019300,28.89001928710937,-3.814685129162669,9.0280820405066,-0.3350650809662416
1757614593860974000,28.89997412109375,-3.878927591970563,8.996281127098202,-0.4372799123590812
1757614593870930200,28.90993017578125,-3.9272731052055954,8.9674899168998,-0.5753517276180907
1757614593880885200,28.91988525390625,-3.9608515496805303,8.939442218545079,-0.7539588572852313
1757614593890840000,28.929840087890625,-3.9852497856169937,8.908547898587583,-0.9622563014149664
1757614593900796200,28.939796142578125,-4.0071091507256025,8.872513877654075,-1.179810088059306
1757614593910751200,28.949751220703124,-4.034908135016262,8.829654979136585,-1.3882082160845397
1757614593920706000,28.9597060546875,-4.07560664062947,8.77871565001607,-1.5792420984633266
1757614593930661000,28.9696611328125,-4.129331508815288,8.72054520059824,-1.752442656379193
1757614593940617000,28.97961694335937,-4.189202916932106,8.65898160161078,-1.9086618304863567
1757614593950572000,28.98957202148437,-4.249301996324956,8.601329038587211,-2.032467512244731
1757614593960527000,28.999527099609374,-4.311203448964656,8.55980051189065,-2.076958980400115
1757614593970482200,29.009482177734377,-4.3882986713439225,8.532820150506495,-2.0258907642029222
1757614593980438000,29.01943798828125,-4.513434871053695,8.483805067446827,-1.9555971846625209
1757614593990393000,29.02939306640625,-4.691860762402415,8.3931422152251,-1.92666364338398
1757614594000348200,29.03934814453125,-4.882384795562922,8.28390734900236,-1.926038204962015
1757614594010303000,29.049302978515627,-5.0496904502213,8.182025183629989,-1.9301431560628115
1757614594020259000,29.059259033203126,-5.18184383521676,8.097310426157712,-1.9371118260316549
1757614594030214100,29.06921411132813,-5.278105822619795,8.033921949830651,-1.9411537948988375
1757614594040169000,29.0791689453125,-5.342406153094768,7.994050542691349,-1.9298172851093112
1757614594050125000,29.089125,-5.385030073812604,7.972897864547371,-1.8986248589880763
1757614594060080000,29.099080078125,-5.415815088176727,7.960873080232739,-1.861146192204207
1757614594070035000,29.109034912109376,-5.436382659909129,7.951862675303221,-1.839579380301386
1757614594079990300,29.118990234375,-5.444890960535407,7.944552060028911,-1.845971127165109
1757614594089946000,29.128946044921875,-5.441909898898005,7.939425803056359,-1.876570263568312
1757614594099901200,29.138901123046875,-5.431732788276672,7.935978877472877,-1.92014052522555
1757614594109856300,29.148856201171878,-5.419704496830701,7.932814275962114,-1.9666276972427963
1757614594119811000,29.15881103515625,-5.414004823884367,7.927546564692259,-2.003232942193001
1757614594129766700,29.1687666015625,-5.413043285375833,7.919370857021212,-2.0378591421552
1757614594139722000,29.178721923828125,-5.419070290580391,7.907213386237621,-2.0688224356956777
1757614594149676800,29.1886767578125,-5.435860097339749,7.890552758815884,-2.0882972437553105
1757614594159631600,29.198631591796875,-5.462637629628182,7.871181118869781,-2.0915280423700806
1757614594169588000,29.208587890625,-5.49665738812983,7.851625354528426,-2.075848681070656
1757614594179542800,29.21854272460937,-5.534779321253299,7.8343124006778,-2.039646610093861
1757614594189497600,29.22849755859375,-5.573825383484364,7.821044922825694,-1.9834649964056907
1757614594199453000,29.238452880859374,-5.611734550639986,7.812966830310225,-1.90692711564824
1757614594209408800,29.24840869140625,-5.646442875927686,7.811644641795754,-1.8072718325451016
1757614594219363600,29.258363525390624,-5.675798149749636,7.818110622939467,-1.683116606696695
1757614594229319000,29.26831884765625,-5.697269976845384,7.832866293522715,-1.535476168103516
1757614594239274800,29.278274658203124,-5.707687910485268,7.856847473090887,-1.3647909540094434
1757614594249229800,29.288229736328127,-5.703479937401414,7.890956078919768,-1.1719843628697098
1757614594259185000,29.298184814453126,-5.6815866700232025,7.935418905502558,-0.958710007110238
1757614594269139700,29.3081396484375,-5.641733967584371,7.988087834894657,-0.7291405693057924
1757614594279095800,29.318095703125,-5.589184280657768,8.042997236689924,-0.4915015145532787
1757614594289051000,29.32805078125,-5.532686148366332,8.092753493505716,-0.2591282348418608
1757614594299005700,29.338005615234376,-5.480086777079105,8.132427332246303,-0.0511854904678883
1757614594308961000,29.3479609375,-5.4344046378344295,8.162418565884233,0.1120720532768871
1757614594318916900,29.357916748046875,-5.394215835309028,8.186680900481344,0.2260479126147925
1757614594328871700,29.36787158203125,-5.355131194633245,8.209596496644616,0.3090065836673602
1757614594338827000,29.377826904296874,-5.310609331339597,8.235114968782662,0.388221647744812
1757614594348781800,29.38778173828125,-5.246386742275953,8.270957266536355,0.4868768138946965
1757614594358737700,29.397737548828125,-5.137949748432636,8.329241113200784,0.6289493526950478
1757614594368693000,29.40769287109375,-4.971542796179652,8.409688276356459,0.8551501177839934
1757614594378647800,29.417647705078124,-4.789451952582597,8.477996673429011,1.1640780467245726
1757614594388602600,29.4276025390625,-4.649621164827049,8.516843413695693,1.4194304528221486
1757614594398559000,29.43755908203125,-4.5419858427554365,8.56110224213898,1.4994156975544988
1757614594408513800,29.447513671875,-4.44285443739593,8.617460089176893,1.473357711712271
1757614594418468600,29.45746850585937,-4.34505340385735,8.67002029749751,1.4565768189117312
1757614594428424000,29.467423828125,-4.251452744618058,8.710275735518335,1.4922076658718286
1757614594438379800,29.4773798828125,-4.168551466308534,8.737206412541866,1.5667768769048154
1757614594448334600,29.48733447265625,-4.097354946579038,8.755482658466697,1.6503374959059058
1757614594458290000,29.4972900390625,-4.036296374504268,8.768981606987118,1.72733597991243
1757614594468245800,29.507245849609376,-3.98518198107779,8.778840737700461,1.7946248246788978
1757614594478200800,29.517200927734372,-3.941791752162576,8.787771063131093,1.8460038603909312
1757614594488156000,29.52715600585937,-3.90271120314002,8.798468982756138,1.8778209942817687
1757614594498110700,29.53711083984375,-3.8644837638154623,8.812184788897634,1.8925005308888847
1757614594508066800,29.54706689453125,-3.826724818785488,8.828914389902353,1.8912484850011768
1757614594518022000,29.55702197265625,-3.792024969065189,8.848107750672101,1.871339523307979
1757614594527976700,29.566976806640625,-3.763253632611036,8.869467934086918,1.8277957112662493
1757614594537932000,29.57693212890625,-3.741838211877644,8.892938241523504,1.7563354260340331
1757614594547887900,29.586887939453124,-3.7274908298343417,8.91838540199101,1.6548799616411327
1757614594557842700,29.5968427734375,-3.7186060971111057,8.945356411024928,1.5241224149182435
1757614594567798000,29.606798095703127,-3.7128172845765945,8.972744768688083,1.3693801814958453
1757614594577752800,29.6167529296875,-3.7081010697096586,8.998985125359892,1.1994175095226616
1757614594587708700,29.62670874023437,-3.703302144995332,9.022680473724009,1.023334820299223
1757614594597664000,29.6366640625,-3.6983261101484297,9.042864014574883,0.848172095464915
1757614594607618800,29.646618896484377,-3.694995504420996,9.058491207295656,0.6790839413039386
1757614594617573600,29.65657373046875,-3.697273678486049,9.068131142300366,0.5191913393810391
1757614594627530000,29.66653002929688,-3.7092908640161153,9.070522421351075,0.3703509138809517
1757614594637484800,29.67648486328125,-3.735632342974841,9.064232965818046,0.2348305732030421
1757614594647439600,29.686439697265627,-3.7792119569823135,9.048512834116815,0.111015849621687
1757614594657395000,29.69639501953125,-3.8388787824377415,9.024042994248866,-0.0079661308865965
1757614594667350800,29.70635083007813,-3.90702877407819,8.993762422275543,-0.1332643693115096
1757614594677305600,29.7163056640625,-3.972680519162118,8.961624824258685,-0.2783406839045695
1757614594687261000,29.726260986328125,-4.02891590886414,8.929484888154267,-0.4500492314307019
1757614594697216800,29.736216796875,-4.072568003585935,8.897369501969218,-0.6491314322412014
1757614594707171800,29.746171875,-4.104762884747982,8.864698235467076,-0.8593509304746985
1757614594717127000,29.756126953125,-4.133719806902111,8.830273987817764,-1.0530821621786803
1757614594727081700,29.76608178710937,-4.171482843585312,8.792231549671293,-1.210682999902591
1757614594737037800,29.776037841796875,-4.222498160551488,8.750267554166912,-1.3318126673847437
1757614594746993000,29.785992919921878,-4.2796705388426775,8.70797155022919,-1.4233850356668234
1757614594756947700,29.79594775390625,-4.33651120096147,8.670818754398823,-1.477138837686181
1757614594766903000,29.80590307617188,-4.395922298090159,8.64262200296223,-1.4667418007038533
1757614594776859000,29.81585888671875,-4.471251972101628,8.616369955852628,-1.391562056557089
1757614594786813700,29.825813720703124,-4.598488943482935,8.563373694202303,-1.3011265833504495
1757614594796769000,29.83576904296875,-4.788142915810645,8.468252109006047,-1.2380384051442146
1757614594806723800,29.845723876953127,-4.997312612730265,8.350729306909441,-1.2093790046319364
1757614594816679700,29.8556796875,-5.178606168469786,8.237654716393351,-1.2220793501205742
1757614594826635000,29.865635009765622,-5.3154807367682455,8.140840940326452,-1.28171110426262
1757614594836589800,29.87558984375,-5.414440877214074,8.061494431889058,-1.3662068121567368
1757614594846544600,29.885544677734377,-5.487246585705876,7.999858936709165,-1.43624101010859
1757614594856501000,29.8955009765625,-5.548250797244906,7.952102329277991,-1.4667450155742463
1757614594866455800,29.90545581054688,-5.606228938961029,7.91213856768012,-1.4624185306772588
1757614594876410600,29.91541064453125,-5.663198780417442,7.874564331567287,-1.4456262396998705
1757614594886366000,29.925365966796875,-5.718199952149391,7.836600803875923,-1.435376648364216
1757614594896321800,29.93532177734375,-5.769476550400257,7.798385347250104,-1.438313870859891
1757614594906276600,29.94527661132813,-5.816673770383,7.761062455549836,-1.4500412796631454
1757614594916232000,29.95523193359375,-5.861334749886393,7.724635051384568,-1.464645705207437
1757614594926186800,29.965186767578125,-5.905190842747688,7.68848763320446,-1.4785992656275628
1757614594936142800,29.975142822265624,-5.950314763587713,7.651691395726799,-1.488555573105067
1757614594946098000,29.985097900390624,-5.997736439976096,7.614458520397544,-1.489134688167274
1757614594956052700,29.995052734375,-6.041848553425074,7.579146968519687,-1.4909578119412064
1757614594966007800,30.0050078125,-6.076286245077848,7.549104881477356,-1.5033818247064947
1757614594975964000,30.0149638671875,-6.098807873487472,7.52583915670216,-1.528604967159778
1757614594985918700,30.024918701171877,-6.107512573468685,7.511083486118912,-1.565972136393189
