time,seconds_elapsed,z,y,x
1757614290198110200,75.02311010742187,-1.2598249912261963,4.229666709899902,0.0048842243850231
1757614290208066000,75.03306616210938,-1.172114014625549,4.136338233947754,-0.14860600233078
1757614290218021000,75.04302124023438,-0.9495874047279358,3.859577894210816,-0.3122174143791199
1757614290227977000,75.05297705078125,-0.562074601650238,3.343672513961792,-0.4441123306751251
1757614290237933000,75.06293310546874,-0.0188866052776575,2.545876979827881,-0.507676362991333
1757614290247888100,75.07288818359375,0.6100332736968994,1.4304766654968262,-0.4841412305831909
1757614290257844000,75.08284399414063,1.2048892974853516,-0.0013699333649128,-0.4024912118911743
1757614290267800000,75.09280004882812,1.7016996145248413,-1.61618173122406,-0.3158165216445923
1757614290277755100,75.10275512695313,2.118743658065796,-3.1610708236694336,-0.3318798243999481
1757614290287711200,75.11271118164062,2.523916244506836,-4.434171676635742,-0.4955148100852966
1757614290297667000,75.1226669921875,2.9983813762664795,-5.314128398895264,-0.8106861710548401
1757614290307622000,75.13262182617187,3.651868343353272,-5.8086700439453125,-1.3066635131835938
1757614290317578000,75.14257788085938,4.70014238357544,-5.897220611572266,-2.0254170894622803
1757614290327534000,75.1525341796875,6.331878662109375,-5.595014572143555,-2.7487032413482666
1757614290337489200,75.1624892578125,7.983945846557617,-5.303423881530762,-2.8868587017059326
1757614290347445000,75.17244506835938,8.419046401977539,-5.650379180908203,-2.3497018814086914
1757614290357401000,75.18240112304687,7.078952789306641,-5.590676784515381,-1.9392229318618772
1757614290367356200,75.19235620117188,4.6229166984558105,-4.260868549346924,-1.870358943939209
1757614290377312000,75.20231201171875,2.481145143508911,-2.6916370391845703,-1.817999601364136
1757614290387268000,75.21226806640625,1.618624567985535,-1.438893437385559,-1.6407276391983032
1757614290397223000,75.22222290039062,1.5834659337997437,-0.719980001449585,-1.4812816381454468
1757614290407179000,75.23217895507813,1.7721083164215088,-0.552233874797821,-1.3591864109039309
1757614290417135000,75.24213500976562,1.823557019233704,-0.6528782248497009,-1.2190314531326294
1757614290427090000,75.25208984375,1.6358095407485962,-0.6990742087364197,-1.0896575450897217
1757614290437046000,75.2620458984375,1.2974445819854736,-0.6927928328514099,-1.0066269636154177
1757614290447001900,75.272001953125,0.8994114995002747,-0.7738038301467896,-0.986413836479187
1757614290456958000,75.2819580078125,0.4686837792396545,-0.971103012561798,-1.000055909156799
1757614290466913000,75.2919130859375,0.0391417294740676,-1.212091088294983,-1.0000399351119995
1757614290476869000,75.301869140625,-0.3629080355167389,-1.4684898853302002,-0.9846777319908142
1757614290486825000,75.31182495117187,-0.7263416647911072,-1.758853554725647,-0.9580370783805848
1757614290496780000,75.32178002929687,-1.050618290901184,-2.0955071449279785,-0.9166582822799684
1757614290506736000,75.33173608398438,-1.3118007183074951,-2.481127977371216,-0.8652963042259216
1757614290516692200,75.34169213867187,-1.4840787649154663,-2.8826820850372314,-0.8108946084976196
1757614290526647000,75.35164697265625,-1.5473318099975586,-3.266662836074829,-0.7481889128684998
1757614290536603000,75.36160278320312,-1.502236008644104,-3.6536383628845215,-0.6816884875297546
1757614290546559000,75.37155908203125,-1.3810659646987915,-4.040726661682129,-0.619040310382843
1757614290556514000,75.38151416015624,-1.238194227218628,-4.351156711578369,-0.5444134473800659
1757614290566470100,75.39147021484375,-1.098721623420715,-4.433703422546387,-0.4300658106803894
1757614290576426000,75.40142602539062,-0.9805306196212769,-4.269704341888428,-0.2235878705978393
1757614290586381000,75.41138110351562,-0.8561071753501892,-3.930924654006958,0.0365260057151317
1757614290596337200,75.42133715820313,-0.7011817693710327,-3.4420042037963867,0.264858603477478
1757614290606293000,75.43129296875,-0.5422515273094177,-2.850975513458252,0.4010228514671325
1757614290616248000,75.441248046875,-0.399625688791275,-2.2160720825195312,0.4077063202857971
1757614290626204000,75.45120385742187,-0.2862440049648285,-1.834563970565796,0.2583410739898681
1757614290636160300,75.46116015625,-0.2711272239685058,-1.7731915712356567,0.0673940405249595
1757614290646115000,75.47111499023437,-0.4438609182834625,-1.7847555875778198,-0.0260565523058176
1757614290656071000,75.48107080078125,-0.8083329796791077,-1.513873815536499,0.0062817744910717
1757614290666027000,75.49102709960937,-1.2200320959091189,-0.8281774520874023,0.0584959760308265
1757614290675982000,75.50098217773437,-1.6166713237762451,0.1012653186917305,0.1245147958397865
1757614290685938200,75.51093823242188,-1.9563287496566768,1.058376669883728,0.182443082332611
1757614290695894000,75.52089404296875,-2.173363447189331,1.9426696300506592,0.1751387268304824
1757614290705848800,75.53084887695313,-2.198091983795166,2.734624147415161,0.0768161341547966
1757614290715805000,75.54080493164062,-1.8307976722717283,3.4642257690429688,-0.0444936640560627
1757614290725761000,75.55076098632813,-0.9299679398536682,4.055871963500977,-0.206300675868988
1757614290735716000,75.56071606445313,-0.0665463432669639,3.907996654510498,-0.2299670726060867
1757614290745672000,75.570671875,-0.113302931189537,3.5893256664276123,0.1844133287668228
1757614290755628000,75.5806279296875,-1.2557306289672852,4.123905181884766,0.7363262176513672
1757614290765584000,75.590583984375,-2.7624573707580566,5.157444953918457,0.8396168947219849
1757614290775539200,75.60053930664063,-3.891312837600708,5.2640910148620605,0.5170081853866577
1757614290785495000,75.6104951171875,-4.057285785675049,4.252148151397705,-0.0064087104983627
1757614290795451100,75.620451171875,-3.5423247814178467,2.9864823818206787,-0.314481109380722
1757614290805406200,75.63040625,-2.734705924987793,2.133277654647827,-0.2460583746433258
1757614290815362000,75.64036206054688,-1.8657737970352173,1.793699026107788,-0.0523363165557384
1757614290825318100,75.65031811523437,-1.1897077560424805,1.7176638841629028,0.0985301584005355
1757614290835273000,75.66027294921875,-0.9132011532783508,1.6095463037490845,0.0572628527879715
1757614290845229000,75.67022900390624,-1.106769323348999,1.4574776887893677,-0.1539628356695175
1757614290855184600,75.6801845703125,-1.56901752948761,1.3134952783584597,-0.3675966262817383
1757614290865139700,75.6901396484375,-2.001746892929077,1.2421760559082031,-0.4766360223293304
1757614290875095600,75.70009545898438,-2.2906925678253174,1.2387878894805908,-0.4965158998966217
1757614290885051600,75.7100517578125,-2.472266674041748,1.2824299335479736,-0.4517532289028168
1757614290895006700,75.7200068359375,-2.582010269165039,1.4154279232025146,-0.3526144325733185
1757614290904962800,75.729962890625,-2.632556676864624,1.6985933780670166,-0.2208228260278701
1757614290914918700,75.73991870117187,-2.6300718784332275,2.166299343109131,-0.082822673022747
1757614290924873500,75.74987353515625,-2.5941708087921143,2.786543369293213,0.0665782615542411
1757614290934829800,75.75982983398437,-2.5465681552886963,3.4727795124053955,0.2133015692234039
1757614290944785700,75.76978564453125,-2.5061440467834477,4.1493072509765625,0.3092765510082245
1757614290954740700,75.77974072265626,-2.4570038318634038,4.702487468719482,0.3259911835193634
1757614290964696600,75.78969653320313,-2.3663198947906494,5.060186386108398,0.2222623974084854
1757614290974652700,75.79965258789062,-2.209394931793213,5.134345531463623,-0.0004276091349311
1757614290984607700,75.80960766601562,-1.9381589889526367,4.86195707321167,-0.2962574064731598
1757614290994563600,75.8195634765625,-1.4857643842697144,4.299036502838135,-0.5382530689239502
1757614291004519700,75.82951977539062,-0.7736626267433167,3.550095558166504,-0.6626332998275757
1757614291014474800,75.83947485351563,0.1588405817747116,2.6309561729431152,-0.6662896871566772
1757614291024430800,75.84943090820312,1.0841121673583984,1.480305314064026,-0.5880271196365356
1757614291034386700,75.85938671875,1.777459740638733,0.126502588391304,-0.4383171796798706
1757614291044341500,75.86934155273437,2.1928703784942627,-1.3419843912124634,-0.318036824464798
1757614291054297600,75.87929760742188,2.4172134399414062,-2.7764759063720703,-0.3359007537364959
1757614291064253700,75.88925366210937,2.5594255924224854,-3.957625150680542,-0.4871169030666351
1757614291074208800,75.89920874023437,2.7364494800567627,-4.762871265411377,-0.7015722990036011
1757614291084164600,75.90916455078126,3.018106460571289,-5.136967658996582,-0.8948392271995544
1757614291094120700,75.91912060546875,3.464233875274658,-5.1024489402771,-1.0618078708648682
1757614291104075800,75.92907568359375,4.187392234802246,-4.7670416831970215,-1.3127468824386597
1757614291114031600,75.93903149414062,5.361922740936279,-4.184842586517334,-1.6037845611572266
1757614291123987700,75.94898779296875,7.162949085235596,-3.449983835220337,-1.7553281784057615
1757614291133943600,75.95894360351562,9.181219100952148,-3.079714775085449,-1.645969033241272
1757614291143898600,75.96889868164062,9.988252639770508,-3.873982191085816,-1.035323977470398
1757614291153854700,75.97885473632813,8.486506462097168,-4.247117519378662,-0.3295894861221313
1757614291163810800,75.98881079101562,5.391969680786133,-2.8094003200531006,0.043205689638853
1757614291173765600,75.998765625,2.7535383701324463,-1.4197108745574951,-0.104268692433834
1757614291183721700,76.0087216796875,1.7468804121017456,-0.7925289273262024,-0.275225281715393
1757614291193677600,76.01867749023438,1.8011257648468018,-0.5847423076629639,-0.2586261928081512
1757614291203632600,76.02863256835937,2.139886379241944,-0.8038618564605713,-0.1156631782650947
1757614291213588700,76.03858862304688,2.2166404724121094,-1.1459404230117798,0.031460516154766
1757614291223544600,76.04854467773437,1.8426257371902464,-1.3220189809799194,0.0786184445023536
1757614291233499600,76.05849975585937,1.1580743789672852,-1.3216536045074463,0.0648426637053489
1757614291243455700,76.06845581054688,0.4080680012702942,-1.3227801322937012,0.0525614954531192
1757614291253411800,76.07841186523437,-0.2717315256595611,-1.3950541019439695,0.0339703485369682
1757614291263366700,76.08836669921875,-0.8341173529624939,-1.4826939105987549,0.0246050748974084
1757614291273322500,76.09832250976562,-1.27483332157135,-1.5751025676727295,0.0393657349050045
1757614291283278600,76.10827856445313,-1.5912586450576782,-1.6900107860565186,0.0614404119551181
1757614291293233700,76.11823364257812,-1.8013166189193726,-1.7981505393981934,0.0832552090287208
1757614291303189800,76.12818969726563,-1.9151352643966677,-1.872529983520508,0.106281965970993
1757614291313145600,76.1381455078125,-1.9626866579055784,-1.8642103672027588,0.1499190181493759
1757614291323100700,76.1481005859375,-1.972607135772705,-1.7898839712142944,0.2005204111337661
1757614291333056800,76.15805688476563,-1.962558627128601,-1.7274450063705444,0.2160677909851074
1757614291343012600,76.1680126953125,-1.9371778964996336,-1.7448277473449707,0.1733128726482391
1757614291352967700,76.1779677734375,-1.909963607788086,-1.8122658729553225,0.1074249669909477
1757614291362923500,76.18792358398437,-1.8934298753738403,-1.8104935884475708,0.0583008304238319
1757614291372879600,76.19787963867188,-1.848047971725464,-1.6497762203216553,0.0454206690192222
1757614291382834700,76.20783471679688,-1.7513360977172852,-1.3773317337036133,0.0724450945854187
1757614291392790500,76.21779052734375,-1.5933592319488523,-1.094715595245361,0.1075412556529045
1757614291402746600,76.22774658203124,-1.391505241394043,-0.9261330366134644,0.0996119603514671
1757614291412701700,76.23770166015625,-1.176643967628479,-0.9279804229736328,0.040444191545248
1757614291422657800,76.24765771484375,-0.9709795117378236,-1.1625657081604004,-0.019299030303955
1757614291432613600,76.25761352539062,-0.819129228591919,-1.5162951946258545,-0.030258297920227
1757614291442568700,76.26756860351563,-0.7314220070838928,-1.7417759895324707,-0.0381678864359855
1757614291452524500,76.27752465820312,-0.689269483089447,-1.6416345834732056,-0.0874268859624862
1757614291462481000,76.28748095703125,-0.7155663371086121,-1.1727962493896484,-0.1554088741540908
1757614291472435700,76.29743579101563,-0.8908873796463013,-0.4448245465755462,-0.2026431411504745
1757614291482391600,76.3073916015625,-1.2193825244903564,0.4228820502758026,-0.2318574786186218
1757614291492347600,76.31734765625,-1.5367536544799805,1.3486032485961914,-0.2881897985935211
1757614291502303500,76.32730346679688,-1.5280072689056396,2.3003430366516118,-0.3799737989902496
1757614291512258800,76.3372587890625,-1.0236049890518188,3.220543146133423,-0.4724320471286773
1757614291522214700,76.34721459960937,-0.4418901801109314,3.741543054580689,-0.4117053151130676
1757614291532170800,76.35717065429688,-0.5026569962501526,3.9971799850463863,0.0214908048510551
1757614291542125800,76.36712573242187,-1.2550204992294312,4.593792915344238,0.5804808735847473
1757614291552081700,76.37708154296875,-2.286121129989624,5.478903770446777,0.8346864581108093
1757614291562037800,76.38703784179687,-3.246833324432373,5.735165596008301,0.7280310988426208
1757614291571992600,76.39699267578125,-3.663429260253906,4.938937664031982,0.3902982473373413
1757614291581948700,76.40694873046876,-3.420940637588501,3.551063776016236,0.0092289093881845
1757614291591904800,76.41690478515625,-2.7147250175476074,2.277167558670044,-0.1438859701156616
1757614291601859600,76.42685961914063,-1.70278799533844,1.4611642360687256,-0.1264228224754333
1757614291611815700,76.43681567382812,-0.7340311408042908,1.059062123298645,-0.0588746070861816
1757614291621771500,76.446771484375,-0.1487647145986557,0.8405651450157166,-0.0182185247540473
1757614291631726800,76.45672680664063,-0.0892256796360015,0.6613208651542664,-0.0730724856257438
1757614291641682700,76.4666826171875,-0.4208108186721802,0.585215151309967,-0.1886462271213531
1757614291651638800,76.476638671875,-0.8890869617462158,0.7147953510284424,-0.2983477711677551
1757614291661593600,76.48659350585937,-1.2806048393249512,1.0083556175231934,-0.3594153821468353
1757614291671549400,76.49654956054688,-1.5319478511810305,1.3031740188598633,-0.3777382969856262
1757614291681505800,76.506505859375,-1.653228998184204,1.5303142070770264,-0.3532260358333587
1757614291691460600,76.51646069335938,-1.6706128120422363,1.7065234184265137,-0.2891222834587097
1757614291701416700,76.52641674804687,-1.6241507530212402,1.8985507488250728,-0.1919318288564682
1757614291711372500,76.53637255859375,-1.5426207780838013,2.158435344696045,-0.0467649921774864
1757614291721327900,76.54632788085938,-1.4508991241455078,2.5068671703338623,0.1153125911951065
1757614291731283700,76.55628369140625,-1.3582921028137207,2.9134907722473145,0.2569321691989898
1757614291741239800,76.56623974609376,-1.2664728164672852,3.3356146812438965,0.3736531734466553
1757614291751194600,76.57619458007812,-1.1848140954971311,3.76718807220459,0.4586469233036041
1757614291761150700,76.58615063476563,-1.1128307580947876,4.170523166656494,0.519661545753479
1757614291771106800,76.59610693359375,-1.051137924194336,4.489602565765381,0.5430288314819336
1757614291781061600,76.6060615234375,-0.9997498393058776,4.696986198425293,0.512893557548523
1757614291791017700,76.61601782226562,-0.9085549116134644,4.736212253570557,0.445914477109909
1757614291800973600,76.6259736328125,-0.7735075950622559,4.618590354919434,0.3473285138607025
1757614291810928600,76.6359287109375,-0.5521002411842346,4.32749605178833,0.2327751815319061
1757614291820884700,76.645884765625,-0.2304766625165939,3.8739359378814697,0.1254657655954361
1757614291830840600,76.65584057617187,0.1940075159072876,3.23469352722168,0.0522531829774379
1757614291840795600,76.66579565429687,0.7257270812988281,2.4018383026123047,-0.011026719585061
1757614291850752500,76.67575244140625,1.338003396987915,1.2665640115737915,-0.0762141346931457
1757614291860708400,76.68570825195313,1.9651334285736084,-0.199907973408699,-0.1509826481342315
1757614291870663700,76.69566357421876,2.54715895652771,-1.7635927200317385,-0.2583646178245544
1757614291880619500,76.70561962890625,3.0746371746063232,-3.134080648422241,-0.4551604986190796
1757614291890575600,76.71557568359376,3.600770711898804,-4.134038925170898,-0.7743857502937317
1757614291900530700,76.72553076171874,4.19914436340332,-4.733731746673584,-1.2683627605438232
1757614291910486500,76.73548657226563,5.046559810638428,-4.942384719848633,-1.9913370609283447
1757614291920442600,76.74544262695312,6.473496913909912,-4.7126641273498535,-2.882467031478882
1757614291930397400,76.7553974609375,8.437021255493164,-4.14303731918335,-3.3695285320281982
1757614291940353500,76.765353515625,9.678544998168944,-4.226321220397949,-2.8871426582336426
1757614291950309600,76.7753095703125,8.947186470031738,-4.926158905029297,-2.060265064239502
1757614291960265700,76.785265625,6.1122355461120605,-4.270926475524902,-1.6201916933059692
1757614291970220500,76.79522045898437,2.6037707328796387,-2.620887994766236,-1.5057049989700315
1757614291980176400,76.80517626953124,0.7757644653320312,-0.997726559638977,-1.4157819747924805
1757614291990132500,76.81513256835937,0.5438405275344849,-0.0698680058121681,-1.4066731929779053
1757614292000087600,76.82508764648438,0.9762169718742372,0.1042071208357811,-1.3696757555007937
1757614292010043600,76.83504370117187,1.4423167705535889,-0.2319180816411972,-1.2555880546569824
1757614292019999500,76.84499951171875,1.633276104927063,-0.5307815074920654,-1.0966734886169434
1757614292029954600,76.85495458984374,1.5257079601287842,-0.6316335201263428,-0.8528971076011658
1757614292039910700,76.86491064453125,1.278170108795166,-0.6615727543830872,-0.6476501822471619
1757614292049866500,76.87486645507812,0.9230260848999025,-0.699898362159729,-0.542522132396698
1757614292059821600,76.88482153320312,0.4630936682224273,-0.7403997182846069,-0.4640587568283081
1757614292069777400,76.89477734375,-0.0516381971538066,-0.77116459608078,-0.3821575045585632
1757614292079733500,76.9047333984375,-0.554918646812439,-0.8647379279136658,-0.2914273142814636
1757614292089688600,76.9146884765625,-1.0160373449325562,-1.0744338035583496,-0.2064013034105301
1757614292099644700,76.92464477539062,-1.4236650466918943,-1.3810893297195437,-0.1417368203401565
1757614292109600500,76.9346005859375,-1.761526584625244,-1.7419462203979492,-0.1191653162240982
1757614292119555600,76.9445556640625,-1.990593791007996,-2.153271436691284,-0.1594908982515335
1757614292129511700,76.95451171875,-2.0792574882507324,-2.67675518989563,-0.2228681445121765
1757614292139467500,76.96446752929687,-2.043225049972534,-3.297415018081665,-0.273150235414505
1757614292149422600,76.97442260742187,-1.922168254852295,-3.7960712909698486,-0.2642370164394378
1757614292159378400,76.98437841796876,-1.7530690431594849,-4.000694751739502,-0.1372795850038528
1757614292169334500,76.99433447265625,-1.547014594078064,-4.041110992431641,0.0796368196606636
1757614292179289600,77.00428955078125,-1.3106731176376345,-4.084670543670654,0.3442777991294861
1757614292189245400,77.01424536132812,-1.065775752067566,-4.190516471862793,0.5763047933578491
1757614292199201500,77.02420141601563,-0.8377670645713806,-4.203474521636963,0.7379666566848755
1757614292209156600,77.03415649414063,-0.6289447546005249,-4.094784259796143,0.7976487874984741
1757614292219112700,77.04411279296875,-0.4304761588573456,-3.899446487426758,0.7466639280319214
1757614292229068500,77.05406860351563,-0.2455723285675048,-3.667017936706543,0.5951699614524841
1757614292239023400,77.0640234375,-0.1134883239865303,-3.4320919513702397,0.4075974225997925
1757614292248979500,77.0739794921875,-0.0989854782819747,-3.157254457473755,0.2237300723791122
1757614292258935600,77.083935546875,-0.2827033698558807,-2.6255338191986084,0.0384134836494922
1757614292268890600,77.093890625,-0.7598880529403687,-1.7105427980422974,-0.088622398674488
1757614292278846500,77.10384643554687,-1.5288633108139038,-0.4451538622379303,-0.1538088619709015
1757614292288802600,77.11380249023438,-2.290766716003418,0.9586068391799928,-0.2289320826530456
1757614292298757600,77.12375756835938,-2.589406490325928,2.2561240196228027,-0.3493922054767608
1757614292308713500,77.13371337890625,-2.3077282905578613,3.2838735580444336,-0.4693180024623871
1757614292318669600,77.14366967773438,-1.795873999595642,3.787652969360352,-0.5178719162940979
1757614292328624400,77.15362426757812,-1.577028751373291,3.8186514377594,-0.4455633759498596
1757614292338580700,77.16358081054688,-1.727735161781311,3.8664143085479736,-0.2788849174976349
1757614292348536600,77.17353662109375,-2.021876573562622,4.125634670257568,-0.2780771255493164
1757614292358491600,77.18349169921875,-2.297520399093628,4.216228008270264,-0.5954944491386414
1757614292368447500,77.19344750976562,-2.487400770187378,3.878475189208984,-1.056281328201294
1757614292378403600,77.20340356445313,-2.4910926818847656,3.20412826538086,-1.3985179662704468
1757614292388359400,77.213359375,-2.2199008464813232,2.615742444992065,-1.45228910446167
1757614292398314500,77.223314453125,-1.779446721076965,2.3385305404663086,-1.3010694980621338
1757614292408270600,77.2332705078125,-1.412582516670227,2.2384159564971924,-1.0842047929763794
1757614292418226400,77.24322631835938,-1.2672470808029177,2.1934311389923096,-0.8712051510810852
1757614292428181800,77.253181640625,-1.316569209098816,2.215733528137207,-0.7047805190086365
1757614292438137600,77.2631376953125,-1.4572749137878418,2.343281507492065,-0.5874778628349304
1757614292448093700,77.27309375,-1.590243220329285,2.495563268661499,-0.512262761592865
1757614292458048500,77.28304858398438,-1.6735221147537231,2.581044435501098,-0.4630475342273712
1757614292468004400,77.29300439453125,-1.7016257047653198,2.6204800605773926,-0.4219082295894623
1757614292477960700,77.30296069335938,-1.7034244537353516,2.700860023498535,-0.3762587010860443
1757614292487915500,77.31291552734375,-1.6880837678909302,2.862168788909912,-0.3134033977985382
1757614292497871600,77.32287158203125,-1.67139995098114,3.0798354148864746,-0.238562986254692
1757614292507827500,77.33282739257812,-1.651362657546997,3.339912414550781,-0.1265576034784317
1757614292517782500,77.34278247070313,-1.6234769821166992,3.629685640335083,0.0232713017612695
1757614292527738600,77.35273852539062,-1.57783842086792,3.924534559249878,0.1894288510084152
1757614292537694500,77.36269458007813,-1.5175042152404783,4.217142105102539,0.3521074950695038
1757614292547649500,77.3726494140625,-1.4576005935668943,4.518765449523926,0.4772359430789947
1757614292557605600,77.38260571289062,-1.379246950149536,4.780488014221191,0.5325806736946106
1757614292567561700,77.39256176757813,-1.257319092750549,4.960659027099609,0.5214632749557495
1757614292577516500,77.4025166015625,-1.0958101749420166,5.051024436950684,0.4414563775062561
1757614292587472400,77.41247241210938,-0.8828751444816589,4.982093334197998,0.321487545967102
1757614292597428500,77.42242846679687,-0.5886168479919434,4.784564018249512,0.1510511040687561
1757614292607383600,77.43238354492188,-0.2118305712938308,4.46596622467041,-0.0260319393128156
1757614292617339600,77.44233959960937,0.2076801508665084,4.011497497558594,-0.1581854522228241
1757614292627295500,77.45229541015625,0.6505194306373596,3.311737537384033,-0.2577037811279297
1757614292637250600,77.46225048828126,1.1262249946594238,2.308958053588867,-0.3053871393203735
1757614292647206700,77.47220654296875,1.6472418308258057,0.8738117218017578,-0.2902673184871673
1757614292657162500,77.48216259765626,2.1671385765075684,-0.9438774585723876,-0.2579016387462616
1757614292667117600,77.49211767578124,2.6733949184417725,-2.827633857727051,-0.3328521847724914
1757614292677073400,77.50207348632813,3.2116565704345703,-4.427023410797119,-0.6363198757171631
1757614292687029500,77.51202954101562,3.826330423355103,-5.565594673156738,-1.0708194971084597
1757614292696984600,77.52198461914062,4.551609516143799,-6.149124622344971,-1.5577913522720337
1757614292706940700,77.53194067382813,5.4239654541015625,-6.215296745300293,-2.058071613311768
1757614292716896500,77.541896484375,6.51468563079834,-5.802322864532471,-2.5440211296081543
1757614292726851600,77.5518515625,7.799460411071777,-5.165225028991699,-2.8739030361175537
1757614292736807700,77.5618076171875,8.934492111206055,-4.842741966247559,-2.986215114593506
1757614292746763500,77.57176342773438,8.931262016296387,-4.966538429260254,-2.6820733547210693
1757614292756718600,77.58171850585937,6.861326217651367,-4.19135046005249,-2.0033857822418213
1757614292766674400,77.59167431640626,3.334275484085083,-2.3209943771362305,-1.3602782487869265
1757614292776630500,77.60163061523437,0.6392520070075989,-0.7965570092201233,-1.0703705549240112
1757614292786585600,77.61158569335937,-0.292046844959259,0.1406227648258209,-0.8735461831092834
1757614292796541400,77.62154150390624,-0.3702428340911865,0.3929167985916137,-0.7550991773605347
1757614292806497500,77.63149755859375,-0.1574974060058593,0.0451522916555404,-0.7201030254364014
1757614292816452600,77.64145263671875,0.0786330997943878,-0.4691046476364136,-0.7331093549728394
1757614292826408700,77.65140869140625,0.2114659547805786,-0.9198518395423888,-0.718654990196228
1757614292836364500,77.66136450195313,0.2350679486989975,-1.3055905103683472,-0.6814937591552734
1757614292846319400,77.6713193359375,0.1524743437767028,-1.6558139324188232,-0.6689482927322388
1757614292856275000,77.68127490234374,-0.0267260409891605,-1.9526466131210327,-0.6813181042671204
1757614292866231000,77.69123095703125,-0.2493910789489746,-2.176534414291382,-0.6924723386764526
1757614292876185900,77.70118579101562,-0.4535742998123169,-2.347348213195801,-0.6919525265693665
1757614292886142000,77.71114184570312,-0.6282157301902771,-2.5021791458129883,-0.6773982048034668
1757614292896097800,77.72109790039063,-0.7828476428985596,-2.6799840927124023,-0.6608536243438721
1757614292906052900,77.73105297851562,-0.912440061569214,-2.9378182888031006,-0.6739477515220642
1757614292916009000,77.74100903320313,-1.0026514530181885,-3.3012752532958984,-0.7123470306396484
1757614292925964800,77.75096484375,-1.045462727546692,-3.732311725616455,-0.7450294494628906
1757614292935920000,77.76092016601562,-1.0605343580245972,-4.119875431060791,-0.7253955602645874
1757614292945876000,77.7708759765625,-1.0733880996704102,-4.31537389755249,-0.5930856466293335
1757614292955832000,77.78083203125,-1.076079487800598,-4.282011985778809,-0.3292878270149231
1757614292965787000,77.79078686523438,-1.0693119764328003,-4.120569705963135,0.002071772236377
1757614292975742700,77.80074267578125,-1.017900466918945,-3.920890331268311,0.3195975124835968
1757614292985698800,77.81069873046874,-0.897520899772644,-3.710813522338867,0.5734043121337891
1757614292995654000,77.82065380859375,-0.6664469242095947,-3.510605812072754,0.6991580128669739
1757614293005610000,77.83060986328125,-0.3492300510406494,-3.303834915161133,0.6452137231826782
1757614293015565800,77.84056591796875,-0.0077638020738959,-3.032526016235352,0.4199430644512176
1757614293025522000,77.85052197265625,0.2298148572444915,-2.8542308807373047,0.1064715832471847
1757614293035477000,77.86047705078126,0.2501065731048584,-2.9074337482452397,-0.172578677535057
1757614293045432800,77.87043286132813,0.0366880521178245,-2.903992891311645,-0.3487825691699981
1757614293055389000,77.88038891601562,-0.280355155467987,-2.440232753753662,-0.4247300624847412
1757614293065343700,77.89034375,-0.5918834805488586,-1.3599984645843506,-0.3805980384349823
1757614293075300000,77.90030004882813,-0.9574564695358276,0.1216124221682548,-0.2444826066493988
1757614293085256000,77.910255859375,-1.416123867034912,1.5298302173614502,-0.0854330509901046
1757614293095211000,77.9202109375,-1.725379228591919,2.6146724224090576,-0.0846162587404251
1757614293105166800,77.93016674804687,-1.5225040912628174,3.528860092163086,-0.2314319759607315
1757614293115123000,77.940123046875,-0.818165123462677,4.224220275878906,-0.3519581258296966
1757614293125078000,77.950078125,-0.2407181113958358,4.392749786376953,-0.2585970461368561
1757614293135033900,77.96003393554687,-0.4029783904552459,4.671933650970459,0.1840967386960983
1757614293144990000,77.96998999023438,-1.2753697633743286,5.4944047927856445,0.63079434633255
1757614293154945000,77.97994506835937,-2.424429178237915,6.322525024414063,0.7479614019393921
1757614293164901000,77.98990112304688,-3.401145696640014,6.053553581237793,0.5350470542907715
1757614293174857000,77.99985693359375,-3.772183656692505,4.80869722366333,0.1788913756608963
1757614293184811800,78.00981176757813,-3.425246477127075,3.3560914993286133,-0.1017437279224395
1757614293194768000,78.01976782226562,-2.551844358444214,2.2299320697784424,-0.1376125216484069
1757614293204723700,78.0297236328125,-1.4245359897613523,1.5261369943618774,0.0038317469879984
1757614293214679000,78.03967895507813,-0.4182585477828979,1.1281148195266724,0.1325330138206482
1757614293224635000,78.049634765625,0.1582106798887252,0.903861939907074,0.1482305824756622
1757614293234591000,78.05959106445313,0.200309932231903,0.8272640705108643,0.062025923281908
1757614293244546000,78.06954614257812,-0.1603643000125885,0.9371084570884703,-0.0496510006487369
1757614293254502000,78.079501953125,-0.6598034501075745,1.2456483840942385,-0.1391771584749221
1757614293264458000,78.0894580078125,-1.087948441505432,1.666491985321045,-0.1754823476076126
1757614293274412800,78.09941284179688,-1.3809666633605957,2.0594398975372314,-0.1657929718494415
1757614293284369000,78.10936889648437,-1.5680299997329712,2.354656219482422,-0.1153099462389946
1757614293294325000,78.11932495117188,-1.6830660104751587,2.565204620361328,-0.0400285124778747
1757614293304279800,78.12927978515626,-1.7284561395645142,2.745570659637451,0.0400776825845241
1757614293314236000,78.13923583984375,-1.7114739418029783,2.936222553253174,0.1357890367507934
1757614293324191700,78.14919165039062,-1.6568293571472168,3.1901862621307373,0.2236522883176803
1757614293334147000,78.15914697265625,-1.5691745281219482,3.477259874343872,0.3006069958209991
1757614293344103000,78.16910302734375,-1.4782849550247192,3.775574207305908,0.358724296092987
1757614293354059000,78.17905908203124,-1.3906779289245603,4.07326602935791,0.3860217034816742
1757614293364013800,78.18901391601563,-1.307607889175415,4.349847316741943,0.3823436200618744
1757614293373970000,78.19896997070313,-1.2229630947113037,4.553280353546143,0.3461152911186218
1757614293383926000,78.20892602539062,-1.1357417106628418,4.656620025634766,0.2728652656078338
1757614293393880800,78.218880859375,-1.0104697942733765,4.63606071472168,0.1420268267393112
1757614293403837000,78.2288369140625,-0.8004858493804932,4.472984790802002,-0.0309666655957698
1757614293413792800,78.23879272460937,-0.4611532986164093,4.198425769805908,-0.2118522971868515
1757614293423748000,78.248748046875,0.009943064302206,3.5685667991638184,-0.3579009175300598
1757614293433704000,78.25870385742188,0.6061130166053772,2.557687282562256,-0.4204244911670685
1757614293443660000,78.26865991210937,1.2313802242279053,1.1452807188034058,-0.3885051608085632
1757614293453614800,78.27861474609375,1.7778939008712769,-0.5020449161529541,-0.3141728639602661
1757614293463571000,78.28857104492188,2.220608949661255,-2.1104233264923096,-0.2799253165721893
1757614293473527000,78.29852709960937,2.5915515422821045,-3.4202656745910645,-0.3628289699554443
1757614293483481900,78.30848193359375,2.940093278884888,-4.305374622344971,-0.5587199330329895
1757614293493438000,78.31843798828125,3.3395936489105225,-4.766281604766846,-0.8876919746398926
1757614293503393800,78.32839379882813,3.9013593196868896,-4.900393486022949,-1.4218697547912598
1757614293513348900,78.33834887695312,4.807548999786377,-4.77770471572876,-2.155333995819092
1757614293523305000,78.34830493164063,6.114847660064697,-4.534624576568604,-2.873978614807129
1757614293533260800,78.3582607421875,7.342380523681641,-4.596184253692627,-3.110748529434204
1757614293543215900,78.3682158203125,7.39909029006958,-5.090370655059815,-2.599295854568481
1757614293553172000,78.378171875,5.749236583709717,-4.5679779052734375,-1.92523455619812
1757614293563128000,78.38812817382812,3.0704853534698486,-2.869500637054444,-1.4961925745010376
1757614293573083000,78.39808276367188,1.0037811994552612,-1.3067584037780762,-1.3659133911132812
1757614293583038700,78.40803881835937,0.1639133095741272,-0.3826093077659607,-1.2890913486480713
1757614293592994800,78.41799487304688,0.0031720912083983,-0.0678473785519599,-1.2701739072799685
1757614293602950000,78.42794995117187,0.1780951768159866,-0.2920133173465729,-1.3531666994094849
1757614293612906000,78.43790600585938,0.4529879987239837,-0.7688307166099548,-1.4132119417190552
1757614293622861800,78.44786181640625,0.6639485359191895,-1.2095845937728882,-1.3675966262817385
1757614293632817200,78.45781713867187,0.6793858408927917,-1.5335133075714111,-1.2478435039520264
1757614293642773000,78.46777294921876,0.4607747495174408,-1.7311372756958008,-1.1439132690429688
1757614293652729000,78.47772900390625,0.0802609398961067,-1.805161714553833,-1.0747888088226318
1757614293662684000,78.48768383789063,-0.3658348619937897,-1.8043445348739624,-1.0272589921951294
1757614293672639700,78.4976396484375,-0.8000228404998779,-1.8204894065856931,-0.9654942154884338
1757614293682596000,78.50759619140625,-1.1725085973739624,-1.9107890129089355,-0.8924840688705444
1757614293692551000,78.51755102539063,-1.4668337106704712,-2.080409288406372,-0.8305924534797668
1757614293702507000,78.52750708007812,-1.6623939275741575,-2.332703113555908,-0.8147692680358887
1757614293712462800,78.537462890625,-1.7730780839920044,-2.65363883972168,-0.8217996954917908
1757614293722418000,78.54741796875,-1.828005075454712,-2.9997987747192383,-0.7686660885810852
1757614293732374000,78.5573740234375,-1.832650899887085,-3.269698143005371,-0.6300914287567139
1757614293742329900,78.56732983398437,-1.792587399482727,-3.335953950881958,-0.3823998570442199
1757614293752285000,78.57728491210938,-1.6900615692138672,-3.175722360610962,-0.0442236773669719
1757614293762240800,78.58724072265625,-1.50556743144989,-2.882913112640381,0.3254936933517456
1757614293772197000,78.59719702148438,-1.231149673461914,-2.5679993629455566,0.6324253678321838
1757614293782153000,78.60715307617187,-0.905913472175598,-2.309133529663086,0.7996674180030823
1757614293792107800,78.61710766601563,-0.5936104655265808,-2.115349054336548,0.8267517685890198
1757614293802064000,78.62706396484376,-0.353441059589386,-1.95580530166626,0.756277859210968
1757614293812019700,78.63701977539063,-0.2229208797216415,-1.8759198188781736,0.6716082692146301
1757614293821975000,78.64697509765625,-0.2272257357835769,-1.9398810863494875,0.6325004696846008
1757614293831931000,78.65693090820312,-0.3668930828571319,-2.011136054992676,0.6158320307731628
1757614293841887000,78.66688696289063,-0.5691156983375549,-1.8570232391357424,0.6043540835380554
1757614293851842000,78.67684204101562,-0.7798300385475159,-1.4148378372192385,0.6499175429344177
1757614293861798400,78.68679833984375,-0.9870668649673462,-0.7389811873435974,0.7384629845619202
1757614293871754800,78.69675463867188,-1.1824086904525757,0.0145655963569879,0.7927637696266174
1757614293881709600,78.70670947265624,-1.3237459659576416,0.6842632293701172,0.7589149475097656
1757614293891665400,78.71666552734375,-1.3259669542312622,1.2430449724197388,0.5967130064964294
1757614293901621500,78.72662158203126,-1.0514476299285889,1.76668381690979,0.3017944693565368
1757614293911576600,78.73657666015625,-0.4384080171585083,2.26442813873291,0.0651070848107338
1757614293921532700,78.74653271484375,0.1392078399658203,2.42922592163086,0.080094389617443
1757614293931488500,78.75648852539062,0.1245631277561187,2.5544161796569824,0.2784354388713836
1757614293941443300,78.766443359375,-0.6252610683441162,3.2299091815948486,0.4944391250610351
1757614293951399700,78.77639965820312,-1.6441184282302856,4.160415172576904,0.495416522026062
1757614293961355500,78.78635546875,-2.342636108398437,4.439051628112793,0.2275887131690979
1757614293971310600,78.796310546875,-2.45460057258606,3.931217670440674,-0.2396623641252517
1757614293981266400,78.80626635742188,-2.1050264835357666,3.1089255809783936,-0.6483035087585449
1757614293991222500,78.81622241210937,-1.5080373287200928,2.5575056076049805,-0.7580220103263855
1757614294001177600,78.82617749023437,-0.935370147228241,2.477062940597534,-0.6240927577018738
1757614294011133400,78.83613354492188,-0.6708120107650757,2.6519551277160645,-0.3771980106830597
1757614294021089500,78.84608959960937,-0.7585999369621277,2.8617334365844727,-0.1427605301141739
1757614294031044600,78.85604467773437,-1.0340899229049685,3.03843092918396,0.0252298060804605
1757614294041000700,78.86600073242188,-1.3374125957489014,3.1682333946228027,0.1354566216468811
1757614294050956500,78.87595654296875,-1.5781855583190918,3.214508295059204,0.2051424980163574
1757614294060911600,78.88591162109375,-1.7437794208526611,3.161628007888794,0.2249248772859573
1757614294070867500,78.89586743164062,-1.8554799556732176,3.0316507816314697,0.2048686146736145
1757614294080823600,78.90582348632813,-1.9393558502197263,2.8757646083831787,0.1766557544469833
1757614294090778600,78.91577856445312,-2.019847631454468,2.734261989593506,0.1612147539854049
1757614294100734500,78.925734375,-2.095432758331299,2.6505141258239746,0.1567826122045517
1757614294110690600,78.93569067382812,-2.1608002185821533,2.6544768810272217,0.161087080836296
1757614294120645600,78.94564575195312,-2.2092220783233643,2.7214317321777344,0.1645701974630355
1757614294130601700,78.95560180664063,-2.2272868156433105,2.804394006729126,0.1492895185947418
1757614294140557600,78.9655576171875,-2.220362663269043,2.9012629985809326,0.098187617957592
1757614294150512400,78.97551245117188,-2.201025485992432,3.053786277770996,0.0120042627677321
1757614294160468500,78.98546850585937,-2.166940689086914,3.2193918228149414,-0.0937676578760147
1757614294170424600,78.99542456054688,-2.1177072525024414,3.3685545921325684,-0.1801629960536956
1757614294180379600,79.00537963867187,-2.0682759284973145,3.515359878540039,-0.2209976017475128
1757614294190335500,79.01533544921875,-2.0044939517974854,3.657992124557495,-0.1956554949283599
1757614294200291600,79.02529150390625,-1.876194953918457,3.844374895095825,-0.1689541488885879
1757614294210246700,79.03524658203125,-1.603868842124939,4.001093864440918,-0.2129407823085785
1757614294220202500,79.04520239257812,-1.1717431545257568,3.9716830253601074,-0.3311177790164947
1757614294230158600,79.05515869140625,-0.5657581686973572,3.619906425476074,-0.5497335195541382
1757614294240113400,79.06511352539063,0.2052230387926101,2.8260793685913086,-0.8015813231468201
1757614294250069500,79.07506958007812,1.0471491813659668,1.5422013998031616,-1.008302092552185
1757614294260025600,79.08502563476563,1.7916332483291626,-0.1627951711416244,-1.1495696306228638
1757614294269980400,79.09498046875,2.378936767578125,-2.025289535522461,-1.280044436454773
1757614294279936500,79.1049365234375,2.8544087409973145,-3.687803268432617,-1.4457111358642578
1757614294289892400,79.11489233398437,3.310872793197632,-4.898292541503906,-1.6276776790618896
1757614294299847700,79.12484765625,3.8055403232574463,-5.607649803161621,-1.8435022830963133
1757614294309803500,79.13480346679688,4.415642261505127,-5.922237396240234,-2.178221702575684
1757614294319759600,79.14475952148437,5.290108680725098,-5.929716110229492,-2.688051462173462
1757614294329714400,79.15471435546876,6.52418851852417,-5.7158522605896,-3.2554128170013428
1757614294339670800,79.1646708984375,7.769384860992432,-5.580746650695801,-3.5202441215515137
1757614294349626600,79.17462670898438,8.069914817810059,-5.867095470428467,-3.1700379848480225
1757614294359581400,79.18458154296874,6.845015048980713,-5.639782905578613,-2.4932057857513428
1757614294369537500,79.19453759765625,4.469227313995361,-4.374505996704102,-1.8808144330978396
1757614294379493400,79.20449340820312,2.2550182342529297,-2.812721014022827,-1.3888237476348877
1757614294389448700,79.21444873046875,1.1137869358062744,-1.5657329559326172,-1.0816028118133545
1757614294399404500,79.22440454101563,0.7373993992805481,-0.8790455460548401,-0.9326453804969788
1757614294409360600,79.23436059570312,0.6055039763450623,-0.6398635506629944,-0.8348101377487183
1757614294419315500,79.2443154296875,0.4808289408683777,-0.6522281765937805,-0.7100713849067688
1757614294429271600,79.254271484375,0.328003466129303,-0.7374884486198425,-0.5739348530769348
1757614294439227600,79.2642275390625,0.1505561769008636,-0.8338809609413147,-0.4597295224666595
1757614294449182500,79.27418237304687,-0.0119232768192887,-0.9290516972541808,-0.3611933588981628
1757614294459138600,79.284138671875,-0.1663567572832107,-1.0150339603424072,-0.2857657074928283
1757614294469094400,79.29409448242187,-0.3363633751869201,-1.0992372035980225,-0.2233209758996963
1757614294479049500,79.30404956054687,-0.5244885683059692,-1.1632026433944702,-0.1537823677062988
1757614294489005600,79.31400561523438,-0.7224836945533752,-1.2197892665863037,-0.0771893337368965
1757614294498961400,79.32396142578125,-0.9267388582229614,-1.2902015447616575,-0.0101091638207435
1757614294508916700,79.33391674804687,-1.130906105041504,-1.406818985939026,0.0252552181482315
1757614294518872600,79.34387255859374,-1.3278894424438477,-1.6159240007400513,0.0219387952238321
1757614294528828700,79.35382861328125,-1.5067356824874878,-1.9329307079315183,-0.0019380415324121
1757614294538783500,79.36378344726562,-1.6832319498062134,-2.2705233097076416,0.001890348852612
1757614294548739300,79.3737392578125,-1.8515602350234983,-2.4735896587371826,0.0961577221751213
1757614294558695700,79.38369580078125,-1.9917057752609253,-2.487391948699951,0.3035124540328979
1757614294568650500,79.393650390625,-2.073986053466797,-2.386817216873169,0.584966778755188
1757614294578606600,79.40360668945313,-2.0697479248046875,-2.2487504482269287,0.8800505995750427
1757614294588562400,79.4135625,-1.938095569610596,-2.1333508491516118,1.128306269645691
1757614294598517800,79.42351782226562,-1.674396276473999,-2.065470933914185,1.2737146615982056
1757614294608473600,79.4334736328125,-1.313890814781189,-2.004004955291748,1.2758142948150637
1757614294618429700,79.4434296875,-0.9855652451515198,-1.8945887088775637,1.1373136043548584
1757614294628384500,79.45338452148438,-0.8337754607200623,-1.7209479808807373,0.895030677318573
1757614294638340400,79.46334033203125,-0.8936021327972412,-1.5941046476364136,0.618672251701355
1757614294648296700,79.47329663085938,-1.080445408821106,-1.478703260421753,0.3944607079029083
1757614294658251500,79.48325146484375,-1.336469650268555,-1.2310082912445068,0.2346042990684509
1757614294668207600,79.49320751953125,-1.564838171005249,-0.6484972834587097,0.1127412319183349
1757614294678163500,79.50316357421875,-1.7216898202896118,0.2794556319713592,0.0478178933262825
1757614294688118500,79.51311840820313,-1.8330498933792116,1.3495970964431765,0.0160117596387863
1757614294698074600,79.52307470703126,-1.8055860996246336,2.443833351135254,-0.0727178454399108
1757614294708030500,79.53303051757813,-1.4837517738342283,3.4880599975585938,-0.1988680511713028
1757614294717985500,79.54298559570313,-1.0427101850509644,4.182668209075928,-0.1747694313526153
1757614294727941600,79.55294165039062,-1.0398364067077637,4.57759428024292,0.1283401101827621
1757614294737897700,79.56289770507813,-1.684204339981079,5.3310370445251465,0.635298490524292
1757614294747852500,79.5728525390625,-2.695978879928589,6.497226238250732,0.8477100729942322
1757614294757808400,79.58280834960938,-3.744486808776856,7.012493133544922,0.5318137407302856
1757614294767764500,79.59276440429687,-4.303395748138428,6.19492769241333,-0.0116061409935355
1757614294777719600,79.60271948242188,-4.0736494064331055,4.651453018188477,-0.4345811009407043
1757614294787675600,79.61267553710937,-3.2458982467651367,3.3159334659576416,-0.5163529515266418
1757614294797631500,79.62263159179687,-2.0968542098999023,2.5275075435638428,-0.3284326791763305
1757614294807586300,79.63258642578126,-1.0507477521896362,2.104444980621338,-0.0450944527983665
1757614294817542700,79.64254272460937,-0.4684377610683441,1.7663490772247314,0.2093583792448043
1757614294827498500,79.65249853515625,-0.3546946942806244,1.4490400552749634,0.3341306746006012
1757614294837453600,79.66245361328124,-0.552466869354248,1.256165862083435,0.2939667701721191
1757614294847409400,79.67240942382813,-0.8683627843856812,1.2987312078475952,0.1816167831420898
1757614294857365200,79.682365234375,-1.1758478879928589,1.5896666049957275,0.086757443845272
1757614294867320000,79.69232006835938,-1.3914296627044678,1.9827805757522583,0.0350788012146949
1757614294877276200,79.70227612304687,-1.5063562393188477,2.349621534347534,0.0182948689907789
1757614294887232000,79.71223193359376,-1.5396835803985596,2.6645193099975586,0.0275725238025188
1757614294897187300,79.72218725585938,-1.5083881616592407,2.9397943019866943,0.0500625148415565
1757614294907143200,79.73214306640625,-1.4310534000396729,3.2270846366882324,0.0617798902094364
1757614294917099300,79.74209936523438,-1.3332282304763794,3.528892755508423,0.0688918754458427
1757614294927054000,79.75205419921875,-1.2211922407150269,3.833820104598999,0.0753359273076057
1757614294937010200,79.76201025390625,-1.146080732345581,4.147918224334717,0.0725859850645065
1757614294946966300,79.77196630859375,-1.0838775634765625,4.4343461990356445,0.0691704824566841
1757614294956921000,79.78192114257813,-1.0255076885223389,4.638667106628418,0.0525082051753997
1757614294966877200,79.79187719726562,-0.9659584164619446,4.673070430755615,0.0160790923982858
1757614294976833000,79.8018330078125,-0.8714674115180969,4.52513599395752,-0.0466618649661541
1757614294986788400,79.81178833007813,-0.7154908180236816,4.164865970611572,-0.1625226885080337
1757614294996744200,79.821744140625,-0.4830225706100464,3.5873255729675293,-0.3297448754310608
1757614295006700300,79.8317001953125,-0.1490960121154785,2.8537251949310303,-0.5274792909622192
1757614295016655000,79.84165502929687,0.2842951714992523,1.9726969003677368,-0.722118616104126
1757614295026611200,79.85161108398438,0.7736592888832092,0.8429434299468994,-0.8568305969238281
1757614295036567300,79.8615673828125,1.2377369403839111,-0.5750777125358582,-0.913818657398224
1757614295046522000,79.87152221679688,1.6466517448425293,-2.143496036529541,-0.932044506072998
1757614295056478200,79.88147827148437,2.03017520904541,-3.6609601974487305,-0.9627901911735536
1757614295066434000,79.89143408203125,2.4347593784332275,-4.914522647857666,-1.0550260543823242
1757614295076389000,79.90138916015626,2.894960403442383,-5.746823310852051,-1.263598084449768
1757614295086345200,79.91134521484375,3.4641566276550293,-6.145878791809082,-1.616453766822815
1757614295096301000,79.92130102539062,4.255675315856934,-6.236184597015381,-2.165127277374268
1757614295106256100,79.93125610351562,5.4935688972473145,-6.026222229003906,-2.848906278610229
1757614295116212200,79.94121215820313,7.267524719238281,-5.6532392501831055,-3.3397927284240723
1757614295126168300,79.95116821289062,8.652297973632812,-5.741767406463623,-3.1657516956329346
1757614295136123100,79.961123046875,8.218327522277832,-6.152534484863281,-2.4562478065490723
1757614295146079000,79.97107885742187,5.782898426055908,-5.150064468383789,-1.7593660354614258
1757614295156035000,79.98103515625,2.8035120964050293,-3.3322865962982178,-1.405170440673828
1757614295165990100,79.990990234375,1.0388402938842771,-1.8872400522232056,-1.2280012369155884
1757614295175946200,80.0009462890625,0.5370359420776367,-1.0331546068191528,-1.1022377014160156
1757614295185902000,80.01090209960938,0.6562163829803467,-0.7842289805412292,-1.0779882669448853
