time,seconds_elapsed,z,y,x
1757614460830584600,17.55358447265625,-5.641460995861888,4.395440944314003,2.3354282764092087
1757614460840540700,17.563540771484377,-3.5472330468833446,5.663035698810219,3.075934508533776
1757614460850495500,17.57349560546875,-2.170133961573243,6.920965968382358,3.9291339306414126
1757614460860451600,17.58345166015625,-1.665763466966152,7.672696774354576,4.332895640812814
1757614460870407700,17.59340771484375,-1.7446826899021863,7.803362551140784,4.421409206046164
1757614460880362500,17.603362548828127,-1.557772463324666,7.0953533979952335,4.16111693239361
1757614460890318600,17.613318603515626,-0.91252868617177,5.7307256717234845,3.605714754207432
1757614460900273700,17.623273681640626,0.0746732559293508,4.217912294065952,3.0821830475345253
1757614460910229800,17.633229736328126,1.3276368430048229,2.9558962164849043,2.718399127486348
1757614460920185600,17.643185546875,2.705212313655019,1.9616233130842449,2.485110596093535
1757614460930140400,17.653140380859377,3.981772464895248,1.112944291010499,2.2962061269588765
1757614460940096500,17.663096435546876,5.07123066637814,0.2911503532528877,2.153464712453633
1757614460950051600,17.673051513671876,5.905853106048703,-0.4884264910221099,2.0808039653904733
1757614460960007700,17.683007568359375,6.537241960850357,-1.2564940992891789,2.107338336572796
1757614460969963500,17.692963623046875,7.034888700160384,-2.02843650316298,2.3011450446657835
1757614460979918600,17.702918701171875,7.439581261441111,-2.833209163492918,2.7865497036486864
1757614460989874700,17.712874755859374,7.821206835389137,-3.6922932597249742,3.558144316998124
1757614460999830500,17.72283056640625,8.285058272603154,-4.655294826549292,4.4448765908733
1757614461009787600,17.73278759765625,8.714022520831227,-5.7484121350616215,5.251943791881203
1757614461019743700,17.74274365234375,8.968952975189685,-6.898280089321732,5.970419978505372
1757614461029698600,17.752698486328125,9.02888400453925,-7.846283993500471,6.52461161185801
1757614461039654700,17.762654541015625,8.764515275228023,-8.536102240917087,6.914243382129072
1757614461049610500,17.772610595703124,8.305560962405801,-9.0143042750448,7.193862287542223
1757614461059565800,17.78256591796875,7.6699927760928865,-9.441882037350537,7.474876446706056
1757614461069521700,17.792521728515624,6.949343921604752,-9.97934933039546,7.79716194293499
1757614461079476500,17.8024765625,6.0642152835339305,-10.602834280204773,8.012460644128918
1757614461089432800,17.812432861328126,5.109245047473907,-11.101796193766594,7.894870037493109
1757614461099388700,17.822388671875,4.219546617269516,-11.18671553390026,7.417605576476454
1757614461109343700,17.83234375,3.4757471888184543,-10.594368065154551,6.653936495429277
1757614461119299600,17.842299560546873,3.1224107207655907,-9.30676980254948,5.652100463297963
1757614461129255700,17.852255615234377,2.3919997661978005,-7.260303137177228,4.437283651526272
1757614461139210800,17.862210693359376,0.284150411362946,-4.120476586708426,2.9841935056865214
1757614461149166600,17.87216650390625,-2.743282224330306,1.132455631688237,0.763634667320922
1757614461159121700,17.88212158203125,-2.9521076378569004,7.790811112603545,-1.6092745408944784
1757614461169077800,17.892077880859375,0.0614168839931488,13.585894982469082,-1.575581383998692
1757614461179033900,17.902033935546875,2.0854130666211246,18.882624257016182,2.4769699597358703
1757614461188988700,17.91198876953125,0.1471735517337918,23.805037403845784,5.617679722779989
1757614461198944500,17.921944580078126,-1.4131962346076965,25.302245800614354,6.741634652626514
1757614461208899800,17.93189990234375,-1.0375412595018745,22.893064013469218,6.0990638940751545
1757614461218855700,17.941855712890625,-2.037131266272068,20.03880387864113,3.1158129299357533
1757614461228811800,17.951811767578125,-3.2398274321392178,18.664893360239265,-0.0075591832078993
1757614461238766600,17.9617666015625,-3.265440596823394,17.089638431715965,-2.0801978161908683
1757614461248722700,17.97172265625,-2.368227553205192,15.406913308554888,-3.0790777749955653
1757614461258677800,17.981677734375,-1.6395923761382698,13.532088573479651,-3.5227322273552417
1757614461268633600,17.991633544921875,-1.498287716437876,11.27080719103813,-3.095250911161304
1757614461278589700,18.001589599609375,-1.760274519048631,9.354915701559186,-2.3800315343759952
1757614461288544800,18.011544677734374,-2.0150746250256897,7.716364651167392,-1.8307975234307348
1757614461298500900,18.0215009765625,-2.140415115135908,5.976646305674314,-1.487634074345976
1757614461308455700,18.03145556640625,-2.130724034465849,4.201650895094871,-1.5121740568406878
1757614461318411500,18.04141162109375,-1.954587715359032,2.3135300405949355,-1.774778406827897
1757614461328367600,18.05136767578125,-1.667257504916191,0.3960042279124259,-1.9636744003951547
1757614461338322700,18.06132275390625,-1.2423173976376651,-1.4547984110623595,-1.915591337488592
1757614461348278800,18.07127880859375,-0.7065510632917285,-3.2001591463565826,-1.8417716296486557
1757614461358234600,18.081234619140623,-0.2331128825649619,-4.831350481635332,-1.8720228293970227
1757614461368189700,18.091189697265627,-0.0320049115478992,-6.503042169606685,-2.048505331593007
1757614461378145800,18.101145751953126,0.0444751015424728,-8.237495141917467,-2.277011743275821
1757614461388100600,18.1111005859375,0.0508203789159655,-9.899816943997145,-2.462633975869417
1757614461398056700,18.121056640625,0.122941027753055,-11.577814454114437,-2.5995453690469263
1757614461408012500,18.131012451171877,0.345779476802051,-13.17216337468624,-2.8876234752476213
1757614461417967900,18.1409677734375,0.5794315808102488,-14.474001175045968,-3.2564562031179665
1757614461427923700,18.150923828125,0.7892576958119869,-15.41576413900852,-3.774220432305336
1757614461437878500,18.16087841796875,0.9026844607666136,-15.766358030354976,-4.238151949018239
1757614461447834600,18.170834716796875,1.1525950411364436,-15.221011966758963,-4.718505900482833
1757614461457790700,18.18079077148437,1.5518053716138005,-13.575775739514826,-5.154810282340645
1757614461467745800,18.19074584960937,1.8927602047383785,-11.180470502030849,-5.8152072049617765
1757614461477701600,18.20070166015625,1.9914500038102267,-8.889430525663494,-6.754153942459821
1757614461487656700,18.21065673828125,1.7168945192664862,-6.680218937677145,-7.686942157328128
1757614461497612800,18.22061279296875,1.5184771025076509,-4.819755905431509,-8.083264365148544
1757614461507568600,18.230568603515625,2.025766407170892,-3.8891222382485866,-7.8911828734129665
1757614461517523700,18.240523681640624,2.7023814741432663,-4.09439697355628,-7.660674912649393
1757614461527479600,18.2504794921875,2.6540958744019267,-4.391377348136902,-7.741521304255723
1757614461537434600,18.2604345703125,1.2594909430176018,-2.7502929798752067,-8.790745695027708
1757614461547390700,18.270390625,-0.754926387143135,3.2287031037956475,-11.124376274365186
1757614461557346600,18.2803466796875,-2.153414297440648,14.291215334922075,-13.174451193362474
1757614461567301600,18.290301513671874,-1.290557696932554,23.78723520517349,-9.705064187225698
1757614461577257700,18.3002578125,-1.439243406794965,24.78172438167333,-0.1877225658737122
1757614461587213800,18.3102138671875,-7.097598546573519,19.691078820729256,6.076703009185195
1757614461597168600,18.320168701171877,-12.796636117613314,12.412862425720691,6.570282060664892
1757614461607124500,18.33012451171875,-12.655077775412796,6.398598044791817,4.778534544987976
1757614461617079800,18.340079833984376,-9.522284192320704,3.987676135981083,2.617035725291073
1757614461627035600,18.35003564453125,-6.702800771841407,4.5965749265551565,1.4104454745948314
1757614461636991700,18.35999169921875,-4.198483370974659,6.64941755670011,1.1770621775906531
1757614461646946600,18.369946533203127,-2.616163326370716,8.245466851449013,1.3254640290103852
1757614461656903000,18.37990283203125,-1.8601503130346533,8.832391126102209,1.6331896694891157
1757614461666857700,18.389857666015622,-1.0466104088813066,8.435434127509593,1.837404666610807
1757614461676813600,18.3998134765625,0.158277421811223,7.065005606004595,1.885061320798844
1757614461686769700,18.409769775390625,1.426869370651245,5.257684965881705,1.8752716020599007
1757614461696724700,18.419724853515625,2.5287825645595787,3.662372168713808,1.7879674126163123
1757614461706680800,18.429680908203125,3.5663252853661773,2.329066047900915,1.588876918901503
1757614461716635600,18.4396357421875,4.4982168436557055,1.0818027182936667,1.3970239752247928
1757614461726591500,18.449591552734372,5.310090860423445,-0.0947632732778787,1.333494336861372
1757614461736547600,18.459547607421875,5.9912581838727,-1.1269085189551111,1.3451795139580964
1757614461746502700,18.469502685546875,6.583165507635474,-2.055207605710625,1.404077839259058
1757614461756458800,18.47945874023437,7.130023144838214,-2.941720976138115,1.514171075876802
1757614461766413600,18.48941357421875,7.746956773307919,-3.776048232254386,1.7687521322757005
1757614461776369700,18.49936962890625,8.374021335169672,-4.579427976921201,2.3140786143884062
1757614461786325800,18.50932568359375,9.155187494462728,-5.417381606841087,3.0595801705822345
1757614461796280600,18.519280517578125,9.93061657140851,-6.320830914500355,3.750970781882107
1757614461806236700,18.529236572265624,10.465682064008712,-7.317886142095923,4.399639272786676
1757614461816191700,18.539191650390624,10.729615909034012,-8.317172489744424,4.898114571875333
1757614461826147800,18.54914794921875,10.53870053846836,-9.145117935869097,5.35543865314722
1757614461836103700,18.559103759765627,10.09533133279085,-9.793497088438272,5.733305166822672
1757614461846058500,18.56905859375,9.477970418819783,-10.308732091408968,5.831739237567782
1757614461856014800,18.57901489257813,8.808118854632973,-10.580278749525547,5.926425353956223
1757614461865969700,18.5889697265625,8.47402718527615,-10.87908400144577,6.053859893736242
1757614461875925800,18.59892578125,8.27495831887126,-11.220421404147148,6.037597910243273
1757614461885881600,18.60888159179688,8.06948952229619,-11.421749447655678,5.819402903085947
1757614461895836700,18.61883666992188,7.761034983021021,-11.301487575984,5.52744883223474
1757614461905792800,18.628792724609376,7.279031218522786,-10.722509291899204,5.281138322183489
1757614461915747600,18.63874755859375,6.507851031193137,-9.691588619580864,4.915415835288167
1757614461925703700,18.64870361328125,5.253229740038514,-8.019791717669367,4.27616048489511
1757614461935658800,18.65865869140625,2.959170123589039,-5.355155160030722,3.2543563082292675
1757614461945614600,18.66861450195313,-0.6955348714977503,-0.6619272009283304,1.3624068353518843
1757614461955570700,18.67857080078125,-3.4976807882070537,7.5265592876702545,-1.2992740873515605
1757614461965525500,18.688525390625,-1.3491630306363105,16.25606345527172,-3.272686330167949
1757614461975481900,18.69848193359375,3.0087568690568207,23.67660625424385,1.992616271110624
1757614461985436700,18.708436767578124,1.2713999919980763,29.83067248909473,12.3421984054327
1757614461995392500,18.718392578125,-2.347360998526216,28.37806077442169,13.708897092759608
1757614462005346000,18.728345947265623,-3.332592517337203,21.25745953792333,7.468604526829719
1757614462015300900,18.73830078125,-5.423470571365952,18.50413698109388,3.1155957800537344
1757614462025257200,18.74825732421875,-5.843079546749592,17.209554266428945,0.5645350404515862
1757614462035212000,18.7582119140625,-3.952538187104463,15.527005668878555,-1.0549522668994962
1757614462045168000,18.768168212890625,-3.473545879381895,14.78265328271985,-1.398856743609905
1757614462055124000,18.7781240234375,-3.95504344792366,13.903928666472432,-1.039496485222876
1757614462065079000,18.7880791015625,-4.199090396957099,12.938373323512076,-0.230494224499166
1757614462075035100,18.79803515625,-4.184395516650379,11.935974396800994,0.2510974520668387
1757614462084990000,18.807989990234372,-3.765460202744603,10.39906761137247,-0.1474237271025776
1757614462094946000,18.817946044921875,-2.995603957495093,8.45797036896646,-1.1468901074931024
1757614462104902100,18.82790209960937,-2.26157101303786,6.402185255628824,-2.156349620240181
1757614462114857000,18.83785693359375,-1.693936545266211,4.152983602559567,-2.7832567995831368
1757614462124813000,18.84781298828125,-1.2513845011904834,1.821722674962878,-3.021808073809743
1757614462134768000,18.85776806640625,-0.8773670641586184,-0.4373059601157903,-3.1224718033030627
1757614462144724200,18.86772412109375,-0.4382882491514086,-2.5032284365862605,-3.2389608784377573
1757614462154680000,18.87768017578125,0.0797749629825353,-4.398788501176238,-3.42235199097842
1757614462164635000,18.887634765625,0.7019456153228879,-6.195512343961,-3.5828055877849456
1757614462174591000,18.897591064453124,1.4923887215271592,-7.966526575949787,-3.645267889177799
1757614462184546000,18.907546142578123,2.269427571757137,-9.798487151810528,-3.820597275815904
1757614462194502100,18.917502197265627,2.9329484716176983,-11.713377939814327,-4.170903874653577
1757614462204458000,18.9274580078125,3.80009838540554,-13.683666789913175,-4.544668798229098
1757614462214413000,18.9374130859375,4.673943705178797,-15.635627371639012,-5.1121390153497455
1757614462224369200,18.947369140625,5.128379956054687,-17.204467756944894,-6.052109835198522
1757614462234324000,18.957323974609373,4.8849382794380185,-17.778268346130847,-7.2965125146776435
1757614462244280000,18.96728002929688,3.838595581582189,-17.09025919396281,-8.596503225865959
1757614462254236000,18.97723583984375,2.5408181625291704,-14.947251139724251,-9.260683174157142
1757614462264191200,18.987191162109376,1.616296548485756,-11.969371639490127,-9.0983035777241
1757614462274147000,18.99714697265625,1.3613026735022664,-8.874142355638742,-8.540774324381351
1757614462284102000,19.007101806640627,1.7810796989291906,-6.126997610661388,-7.908715607494115
1757614462294058000,19.01705810546875,2.657724586293101,-3.9686704067379233,-7.304970546421408
1757614462304014000,19.02701416015625,3.7033074056923385,-2.5696663636118173,-6.77560355772376
1757614462313969200,19.03696923828125,4.60375723927468,-1.985962220048904,-6.449295381850003
1757614462323925000,19.046925048828125,4.7368414753794665,-2.142308381536602,-6.503319817504287
1757614462333880000,19.056880126953125,3.3295565106421705,-2.2998779473394158,-7.05447836677134
1757614462343836200,19.066836181640625,0.9974293216049672,-0.6488777497410774,-8.63882144163549
1757614462353791000,19.076791015625,0.3252481454268097,5.276106173235178,-11.185350090765953
1757614462363747000,19.0867470703125,0.0465659363418817,16.19246747367382,-12.012418169534206
1757614462373703000,19.09670288085937,-0.4919131640940904,25.76819391784668,-7.314999188482761
1757614462383658200,19.106658203125,-1.0185025047719478,25.112065758585928,1.9243201489977535
1757614462393614000,19.116614013671875,-6.12949176556468,17.357454671132565,8.07433813137114
1757614462403569000,19.12656884765625,-12.713619980752467,9.957021763253213,8.468402331131696
1757614462413525000,19.13652490234375,-12.329728215438127,4.475290726098418,6.397243707573414
1757614462423481000,19.146481201171877,-8.592805540391803,2.635770528638363,4.310310299517214
1757614462433436200,19.15643627929688,-5.775847838997841,3.926286724516749,2.687358092534542
1757614462443392000,19.16639208984375,-3.2000510098069905,6.218939396777749,2.8548794357702136
1757614462453347000,19.17634716796875,-1.367905725029111,7.925874247565865,3.5350194619983437
1757614462463303200,19.18630322265625,-0.795572285786271,8.806877914661168,4.141108455848694
1757614462473259000,19.196259033203123,-0.664635875365138,8.541776194900274,4.264218118166923
1757614462483214000,19.206214111328126,-0.0128933838427066,7.005478481280803,3.785723823094368
1757614462493170000,19.216169921875,1.0723533374249934,4.994058579370379,3.290245367734134
1757614462503125000,19.226125,2.1881126858562228,3.228651665869355,2.98745981400609
1757614462513081000,19.2360810546875,3.3417133969038724,1.7894436226487158,2.7363506715014574
1757614462523036000,19.24603588867188,4.320057494288682,0.5804992100417614,2.6051293066591024
1757614462532992000,19.255991943359376,5.042688462504744,-0.5774222868144512,2.5916949478074907
1757614462542948000,19.26594799804688,5.507451169344782,-1.7198440167218445,2.6801135282337665
1757614462552903000,19.27590283203125,5.828399279490113,-2.8454934755265717,2.749531932374835
1757614462562859000,19.28585888671875,6.165751996469497,-3.906502996638417,2.866120668491721
1757614462572814000,19.29581396484375,6.697185854569077,-4.8974675061434505,3.002167553794384
1757614462582770200,19.305770263671874,7.340193835493922,-5.8731543670177455,3.1116701310426
1757614462592726000,19.31572607421875,8.018528565865754,-6.785952517780661,3.3786753463372587
1757614462602681000,19.32568115234375,8.71826848783791,-7.66107004944682,3.72655237994045
1757614462612637000,19.335636962890625,9.337155588462949,-8.34677969250083,4.113787610463798
1757614462622592000,19.345592041015625,9.80661142155528,-8.872366578137875,4.410893657250703
1757614462632548000,19.355548095703124,9.954788889634608,-9.089608230093122,4.756439909818768
1757614462642504000,19.36550390625,9.815689046502111,-9.068224665802717,5.217029130366444
1757614462652459300,19.375459228515624,9.299904592955112,-9.067979751130938,5.619920195183157
1757614462662415000,19.3854150390625,8.5210087166816,-9.228211814141272,6.09088526379466
1757614462672370000,19.395369873046874,7.637548888605832,-9.640516603991388,6.358429116010665
1757614462682326000,19.40532592773437,6.720971219304204,-10.259550419610738,6.080712829348444
1757614462692281000,19.415281005859374,5.98169014506042,-10.71555815758705,5.396887684866786
1757614462702237200,19.4252373046875,5.524079063540697,-10.849883625924589,4.567651614409685
1757614462712193000,19.435193115234377,5.246309000864625,-10.553612860918044,3.9171500628590574
1757614462722147800,19.44514794921875,4.730165650877356,-9.600541151955722,3.4653219486549496
1757614462732104000,19.45510400390625,3.1978111219257115,-7.749918545722961,2.752683674404025
1757614462742059000,19.46505908203125,0.0325754049122333,-4.523717780137062,1.3995103852130473
1757614462752015000,19.47501513671875,-3.90271120314002,1.290610303902626,-1.0404545166000725
1757614462761970000,19.484969970703126,-5.702379282683133,10.849846216523646,-4.596926808732748
1757614462771926300,19.49492626953125,-1.6233014588117598,20.53985604248047,-4.740685875847936
1757614462781882000,19.50488208007813,2.946250436261296,29.970934361743925,4.741293486352265
1757614462791837000,19.5148369140625,-0.0678083385959267,36.42269291883707,15.057819300377368
1757614462801793000,19.52479296875,-2.400820493774116,29.26561284024715,13.165925357079503
1757614462811748000,19.534748046875,-3.798582720145583,19.740744476652143,5.246707060271501
1757614462821704200,19.5447041015625,-5.427318478965759,17.02409014700651,0.7339706928759813
1757614462831660000,19.554659912109376,-5.3996834530651565,15.298701940160988,-1.8521625291511412
1757614462841614800,19.56461474609375,-4.355911190219223,13.4767928027153,-2.921505578844249
1757614462851571200,19.5745712890625,-3.0998455454751848,12.36853345465064,-2.9831513031572103
1757614462861526000,19.584526123046874,-2.767758201678097,11.348529897665976,-2.0291756310924884
1757614462871482000,19.59448217773437,-2.707266908097267,10.414987649559974,-0.5965080955564975
1757614462881437200,19.604437255859374,-2.5843311410412197,9.629344637113809,0.4122840393230318
1757614462891393000,19.61439306640625,-2.366586800260842,8.565610659474133,0.7228063247829676
1757614462901349000,19.62434912109375,-2.0151602574825285,7.160601822975278,0.4526286169320345
1757614462911304000,19.634303955078124,-1.807487521122396,5.438892012381554,-0.2085316912770271
1757614462921260000,19.644260009765624,-1.635267206415534,3.3706302793085574,-0.8264481933042407
1757614462931215000,19.654215087890623,-1.4330954055592418,1.0086597406715154,-1.244964405015111
1757614462941171200,19.664171142578127,-1.1664762669727204,-1.472239375206828,-1.5430479185320436
1757614462951127000,19.674126953125,-0.92542528488487,-3.848979028430581,-1.8868226313829424
1757614462961081900,19.68408178710937,-0.6794014828205108,-6.051961951160431,-2.233656585673988
1757614462971038200,19.6940380859375,-0.1676525683999061,-8.146946271464229,-2.5821447369128463
1757614462980993000,19.703992919921877,0.6304919059619307,-10.160119739043711,-2.951060466891527
1757614462990949000,19.71394921875,1.354194010540843,-12.042595865654944,-3.4460856255263086
1757614463000904200,19.723904296875,1.9889783529996872,-13.737052343142032,-3.956859557434916
1757614463010860800,19.73386083984375,2.7992811749279496,-15.256168620336055,-4.527622094099224
1757614463020816600,19.743816650390624,3.4137729632034897,-16.369023479497432,-5.304145103761553
1757614463030771700,19.753771728515623,3.168312640240788,-16.964997322046756,-6.965259283617138
1757614463040727600,19.7637275390625,2.0704376158073545,-16.685719777417184,-9.003692864659428
1757614463050683000,19.77368286132813,1.2415537197887896,-15.195888046896457,-10.032572386538982
1757614463060638700,19.783638671875,1.0460700183942913,-12.689363491374252,-10.178177958303689
1757614463070594800,19.7935947265625,1.3752169248253103,-9.698483639791608,-9.637207625573874
1757614463080549600,19.80354956054688,1.8709449710324408,-6.602138503652811,-8.627711434078217
1757614463090505500,19.81350537109375,2.63116975684464,-3.985652521198988,-7.552147317913175
1757614463100460800,19.823460693359376,3.381875895944237,-2.359468784949183,-6.576732259717583
1757614463110416600,19.83341674804688,3.6532623950630425,-1.9217261869817968,-6.022219723847508
1757614463120371500,19.843371337890623,3.115177846902609,-2.2246172469109298,-6.06505524148941
1757614463130327800,19.85332788085937,1.5910259136289358,-2.038485018968582,-6.649115943405032
1757614463140283600,19.86328369140625,-0.1984013424068689,0.987020740315318,-8.11396930001378
1757614463150238700,19.87323876953125,-1.348682553642988,9.589308979323508,-10.288396574866772
1757614463160194600,19.88319458007813,-0.934655177783966,20.994684215283392,-9.181357708507775
1757614463170149600,19.893149658203125,0.1571007792472839,23.915161327862737,-0.848227551979199
1757614463180105700,19.903105712890625,-4.705583582806587,17.910985210227967,7.95372963821888
1757614463190060500,19.913060546875,-12.596657150626182,9.823075065100191,9.178397689658404
1757614463200016600,19.9230166015625,-13.530725468432902,3.384835330271721,6.6343275395959616
1757614463209972700,19.93297265625,-10.081319174051284,1.5912351724654434,2.5506962902039287
1757614463219927800,19.942927734375,-7.010739178287983,3.4357051012873647,-0.9995559583701192
1757614463229883600,19.952883544921875,-5.348036852458119,6.330999841815233,-1.594334453655034
1757614463239838700,19.962838623046878,-4.424499281015992,8.042456553941964,-0.4790984715107828
1757614463249794800,19.972794921875,-3.3467706802934405,8.799186775636672,0.8610067348577082
1757614463259750700,19.982750732421877,-2.4108517661839723,9.175430072024463,1.8377850442305208
1757614463269705700,19.99270581054688,-1.776001957273483,8.743606927233934,2.0854186195790767
1757614463279661600,20.00266162109375,-0.9954846172779798,7.4913810067832465,1.8695175685778256
1757614463289616600,20.01261669921875,0.0686392364621162,5.761155881300568,1.6132343844361603
1757614463299572700,20.02257275390625,1.3572265101045369,3.907137202888727,1.4439394556567071
1757614463309527600,20.032527587890623,2.6898563390910626,2.1860750425487754,1.337688573680818
1757614463319483600,20.042483642578127,3.946175081813335,0.5385363835811615,1.2617936670020222
1757614463329439700,20.052439697265623,5.052775556755066,-0.9928075070232152,1.030746265599504
1757614463339394600,20.06239453125,5.869127011197805,-2.282939087498188,0.7841322425570338
1757614463349350700,20.0723505859375,6.388702089199423,-3.3627409873634573,0.553971122469753
1757614463359305700,20.0823056640625,6.848045109078288,-4.204166677308082,0.4522837490171194
1757614463369261800,20.09226171875,7.272589787298441,-4.855233461526036,0.5421094197623432
1757614463379216600,20.102216552734376,7.784164514195918,-5.378071925237775,0.9653318364027887
1757614463389172700,20.1121728515625,8.508914958783985,-5.787479240080714,1.6281620505854486
1757614463399128600,20.122128662109372,9.245827550330755,-6.227075941482186,2.412419161631167
1757614463409083600,20.13208374023437,9.84204630755186,-6.782025115203857,3.271243145622313
1757614463419039700,20.142039794921875,10.109830982786416,-7.496756270080804,4.188586830860376
1757614463428994600,20.15199462890625,9.98595092061758,-8.24047211190164,4.937022686940432
1757614463438950700,20.16195068359375,9.45006066763103,-8.917424448004365,5.513655869203806
1757614463448905700,20.17190576171875,8.641082372304796,-9.449975327435135,6.10313976521194
1757614463458861600,20.181861572265625,7.70512312618494,-9.875408478927612,6.6405030133605
1757614463468817700,20.191817626953124,6.969292484655976,-10.393767166876792,7.156949145686626
1757614463478772700,20.201772705078124,6.316727570834756,-11.007515151047706,7.365089207297563
1757614463488728800,20.211728759765624,5.699284823799133,-11.716641910046338,6.9932309941262005
1757614463498683600,20.22168359375,5.220881714141369,-12.062420510065555,6.330586584839224
1757614463508639500,20.231639404296875,5.138356575667858,-11.827787578326465,5.691963102608919
1757614463518594800,20.2415947265625,5.267206827464699,-11.189975997000932,4.932454063850641
1757614463528550700,20.25155053710937,5.08773581097722,-9.864980608415603,4.141333204515278
1757614463538506800,20.2615068359375,4.68273169952929,-7.950372144484519,3.427119643771648
1757614463548461600,20.27146166992188,0.7845408964231609,-1.3241601068049669,2.152271995537728
1757614463558417700,20.281417724609376,-3.338942178624868,6.355123644724488,0.0990552713833749
1757614463568372700,20.291372802734376,-3.636285541298985,16.21363885651827,-2.80551042470634
1757614463578328600,20.30132861328125,2.576605222964287,24.89693598421812,0.7186211480528116
1757614463588284000,20.311283935546875,2.491978143775463,24.980426752853397,0.3563701366603374
1757614463598239700,20.32123974609375,1.2588017917096614,33.63586790537834,14.59775614953041
1757614463608195800,20.33119580078125,-2.3452158031910657,26.97476867871284,8.266682657957077
1757614463618150700,20.341150634765626,-1.540051513195038,22.141485767710208,1.3451099558532238
1757614463628106500,20.3511064453125,-2.382064647638797,19.206127896863222,-0.63946373244673
1757614463638061800,20.361061767578125,-2.5386583541467784,19.12268622806668,-0.5888917753338814
1757614463648017700,20.371017578125,-3.9841196125432847,12.831195389819143,0.5630284352809191
1757614463657972500,20.380972412109376,-4.064843546813727,11.390145518124102,-1.4787176313102244
1757614463667928600,20.39092846679688,-4.091102608186007,9.60516998080015,-2.7273148398697376
1757614463677884700,20.400884765625,-3.778593240562081,8.45438841882646,-2.449071606723964
1757614463687839700,20.41083984375,-3.846195535191893,8.435639294692873,-2.4617881726950404
1757614463697795600,20.420795654296874,-3.307617650556564,7.809120676276088,-1.4408634092122317
1757614463707750700,20.430750732421878,-3.033330461560189,7.310054717817902,-1.2128326522171498
1757614463717706800,20.440706787109374,-2.7896616981893776,5.95649257543981,-1.2679998281657694
1757614463727661600,20.45066162109375,-2.771732366006076,3.723395084953308,-1.6548209249302743
1757614463737617700,20.46061767578125,-2.767665262697637,3.688724169066548,-1.5384721350491046
1757614463747572700,20.47057275390625,-2.574299576370418,-1.8068302262574436,-2.623269066722691
1757614463757528800,20.48052880859375,-2.007450706018507,-4.27964774248898,-3.1251763860866424
1757614463767484700,20.490484619140624,-1.1587436268940567,-6.494777030086517,-3.634448388999701
1757614463777439500,20.500439453125,0.1353089264169335,-8.408823768481613,-4.140920824322104
1757614463787395800,20.510395751953126,0.1989958011686801,-8.42214151521623,-3.987051282081008
1757614463797350700,20.5203505859375,1.2800552998796104,-11.552495303940772,-5.781731051817536
1757614463807306800,20.530306640625,1.713759436111152,-12.66185939837694,-6.448012940824031
1757614463817261600,20.540261474609373,2.5884724786296487,-13.527103770804404,-7.266106270498037
1757614463827217700,20.5502177734375,3.211441880132258,-14.10753634535074,-7.958187202149629
1757614463837173800,20.560173828125,3.4338165110617878,-14.040617941331863,-7.780984130594134
1757614463847128600,20.570128662109376,2.5852204910963774,-15.258074161696433,-10.03682419876456
1757614463857084700,20.580084716796875,1.6460861220717429,-14.466207160168883,-10.748210719388725
1757614463867039700,20.590039794921875,1.1772189025223254,-12.082357382678984,-10.606108771830796
1757614463876995600,20.59999560546875,2.0059101985782384,-9.370202702540158,-9.729601831632852
1757614463886950700,20.60995068359375,2.1481582766085863,-9.29414646781981,-9.440282200938462
1757614463896906500,20.619906494140626,4.999666482380032,-5.865424065026641,-7.728748331922292
1757614463906862800,20.62986279296875,6.502565784266591,-5.222668013036251,-6.824988058617711
1757614463916817700,20.639817626953125,7.353989721134305,-5.462280486753583,-5.9459624135971065
1757614463926773800,20.649773681640625,6.932687385836243,-6.0242883468151085,-5.105799290934205
1757614463936728800,20.659728759765624,4.662798334047198,-5.5495425906211135,-4.335211224278807
1757614463946684700,20.6696845703125,1.512838512098789,-2.40233235964179,-4.496898454533517
1757614463956639700,20.6796396484375,-0.4966530520975589,5.083038008549809,-5.930106672817469
1757614463966595600,20.689595703125,-1.3140712589889765,16.53988156594038,-6.392239031153917
1757614463976551700,20.6995517578125,0.3235428028136491,23.36871285598278,0.0183148061032406
1757614463986506800,20.7095068359375,-0.332733825007081,19.59606128042936,10.983266844975947
1757614463996462600,20.719462646484374,-8.649429344889521,11.589490863382816,13.30236211848259
1757614464006418000,20.72941796875,-12.209928116059302,3.79797306381464,8.482134503886103
1757614464016374000,20.7393740234375,-11.527992146325111,1.3338164084225892,5.324926610505581
1757614464026329000,20.7493291015625,-10.3009485979259,3.347780734118819,2.3614678498119117
1757614464036285200,20.75928515625,-7.293529114952683,7.730609449619054,2.009427412918955
1757614464046240000,20.76923999023437,-4.529267230957746,11.14658459904194,3.146813340616226
1757614464056196000,20.779196044921875,-3.268177036049962,11.713771907567978,3.5990368838787075
1757614464066152200,20.78915209960937,-2.8482284534484146,10.501938787782192,2.941480153119564
1757614464076107000,20.79910693359375,-2.397184475359321,8.526421389380097,1.9889593560382723
1757614464086063000,20.80906298828125,-1.51516783182919,6.358789181494712,1.263027008189261
1757614464096018200,20.81901806640625,-0.5447527738779783,4.456275059983134,1.02678357251361
1757614464105974000,20.82897412109375,0.2960679359108209,2.752031932497024,1.1084113237559794
1757614464115929000,20.83892919921875,0.9221563462167978,1.1876853514790535,1.2999920263625682
1757614464125885000,20.848885009765624,1.4972200872063637,-0.1152326453328132,1.435132610475272
1757614464135841000,20.858841064453124,2.195606256482005,-1.0884896487116813,1.589568992818892
1757614464145796000,20.868796142578127,3.143274645096064,-1.7809376601099969,1.7531581111721692
1757614464155752000,20.878751953125,4.343558196863532,-2.309731232833862,1.904428138439357
1757614464165707000,20.88870703125,5.553611447495221,-2.785689287427068,1.9917308665782207
1757614464175663000,20.8986630859375,6.6236869031161065,-3.300754779049754,1.9637484885446723
1757614464185618200,20.9086181640625,7.452990193590521,-3.925843656924367,1.9674584489785132
1757614464195574000,20.918573974609377,8.135452817547321,-4.60701331846118,2.2552292427957057
1757614464205529000,20.928529052734376,8.627357798334955,-5.406378566789627,2.844894048328697
1757614464215485200,20.93848510742188,9.099563806918264,-6.432533632141351,3.669922145701944
1757614464225441000,20.94844091796875,9.445407288867235,-7.541361135482788,4.550337491515278
1757614464235396000,20.95839599609375,9.556145545390248,-8.523537942898272,5.424433863440155
1757614464245352000,20.96835205078125,9.218319365680218,-9.236502088102698,6.289595818281174
1757614464255307000,20.97830712890625,8.559322957506776,-9.645655135923624,7.166044306290149
1757614464265263000,20.98826318359375,7.9687892601847645,-9.902923093318938,8.061403246474265
1757614464275218000,20.998218017578125,7.219887540158629,-10.096666380786894,8.682082491213082
1757614464285174000,21.008174072265625,6.367101667287946,-10.424060598331687,8.592423847597837
1757614464295130000,21.018130126953125,5.717766236907243,-10.78792196753025,7.9438009494006625
1757614464305085000,21.0280849609375,5.309142765918374,-10.963963594090938,6.992472284713387
1757614464315041000,21.038041015625,5.195821507164836,-10.769189210009577,5.928692129844427
1757614464324996000,21.04799609375,5.254603951001167,-10.038099625527858,5.034086053854227
1757614464334952200,21.0579521484375,4.9530742425531145,-8.725016208532452,4.019354299792648
1757614464344907000,21.067906982421874,3.586370879051089,-6.525103194767237,2.845641067303717
1757614464354863000,21.07786303710937,1.2132716281563043,-2.806320572045445,1.536444136352837
1757614464364818200,21.087818115234374,-1.6948060215771197,4.42097753663063,-1.0634690430931746
1757614464374774000,21.09777392578125,-1.6622627653688191,14.5952006198287,-4.293500326752662
1757614464384730000,21.107730224609377,3.439497479307651,22.241011140823364,-1.9042719249643385
1757614464394685000,21.117684814453124,3.3757457226261494,22.310442988967893,-2.294300001076609
1757614464404641000,21.12764111328125,0.5719090763509274,29.986417177557943,10.830881988334657
1757614464414596000,21.13759619140625,-1.2252967047318817,24.24098084343672,7.060356903415918
1757614464424552000,21.147552001953127,-1.5111369688779115,19.69503954105377,1.573782225622237
1757614464434507000,21.15750708007813,-2.4806302358090875,18.26982787448168,-0.9138914989575744
1757614464444463000,21.167463134765622,-2.652595991232991,18.20128566865325,-0.9410621222168206
1757614464454418000,21.17741796875,-2.5988684926986694,14.888777907967569,-2.681710734297335
1757614464464374000,21.1873740234375,-3.079813395793736,14.255312831413743,-2.6650889775812625
1757614464474329900,21.197329833984377,-4.096593899078667,13.568936833405497,-1.6092364008411764
1757614464484285200,21.20728515625,-4.320187550409138,12.748536980354784,-0.2059770383581519
1757614464494241000,21.21724096679688,-4.384083976258338,12.752081521093844,-0.2814575190171599
1757614464504196000,21.227196044921875,-3.850238965363801,9.974127211833,0.976523019437492
1757614464514152000,21.23715185546875,-3.648220016981661,8.070735722965,0.3815823193281888
1757614464524107000,21.24710693359375,-3.450058328549564,5.870636246716976,-0.4262558660522103
1757614464534063000,21.25706298828125,-3.295424523937702,3.4388165113061664,-1.016950306893885
1757614464544018000,21.267017822265625,-3.295842749349773,3.39293095844388,-0.8816486870005726
1757614464553974300,21.276974365234373,-2.965291236817837,-1.2399018609285355,-1.814413813254237
1757614464563930000,21.28693017578125,-2.622461257471144,-3.205074975448847,-2.106401201853156
1757614464573885000,21.296885009765624,-1.7026202024593948,-4.9979170083642,-2.3058216581746933
1757614464583841000,21.306841064453124,-0.4547811187908053,-6.772626003217697,-2.602198513904214
1757614464593796000,21.316796142578124,-0.4091629846930503,-6.801207370057702,-2.412085545762628
1757614464603752200,21.326752197265623,0.884329888908565,-10.53804821203947,-3.958832318812608
1757614464613707000,21.33670703125,1.1460676851943137,-12.548854950487613,-4.723390457653999
1757614464623662800,21.346662841796874,1.5721446875482796,-14.36804138497114,-5.443390492844581
1757614464633618200,21.3566181640625,2.053043413414061,-15.654507428675888,-6.065034198701381
1757614464643574000,21.366573974609373,2.1713123577028512,-15.62499959464073,-5.942350068318843
1757614464653530000,21.37653002929688,2.3049320158585904,-16.32330217728615,-8.235025536933541
1757614464663485000,21.38648486328125,2.2051526679843665,-15.399170731604098,-9.69967547992468
1757614464673441300,21.396441162109376,2.1341148459479213,-13.448939165627957,-10.899408996593952
1757614464683396000,21.40639599609375,2.231776178754866,-10.55507650372982,-11.174944432085752
1757614464693352000,21.41635205078125,2.375868423347175,-10.490015710276364,-11.102539705610274
1757614464703307300,21.426307373046875,3.38140477130115,-4.464591637429595,-9.065266400519011
1757614464713263000,21.43626318359375,4.433353034079075,-2.946440990397334,-7.59277509637773
1757614464723218000,21.44621801757813,5.290874703299999,-2.6942577889204022,-6.601596067339181
1757614464733174000,21.456174072265625,5.749989759641886,-3.2603912044793364,-6.112590899646282
1757614464743129900,21.4661298828125,5.896880695042014,-3.1760634004980326,-5.960767768540978
1757614464753085200,21.476085205078125,4.04109559147954,-4.001542748770118,-6.265206642434
1757614464763041000,21.486041015625,2.1774463304132223,-1.6795301265120506,-7.19897860764265
1757614464772995800,21.495995849609372,0.6993897933602332,4.669912549966574,-8.48428612896204
1757614464782952200,21.5059521484375,-0.5212848045289517,15.4486259596467,-8.807972139638661
1757614464792907000,21.515906982421875,-0.3577981236368417,15.595782852506638,-9.146320881918072
1757614464802863000,21.52586303710937,1.2725579298615457,25.85231363203525,5.847727080294489
1757614464812818200,21.53581811523437,-2.366318212452531,20.3665336117506,12.431209398794174
1757614464822774000,21.54577392578125,-8.154976433184743,13.23755383848548,12.234721196532249
1757614464832730000,21.555730224609373,-8.982923048353195,7.479555544432997,9.34828780785203
1757614464842685000,21.565684814453125,-9.004671354302763,7.473215235495567,9.290469240611792
1757614464852641000,21.57564111328125,-7.66901662453711,5.246591324937343,6.599880495592951
1757614464862596000,21.58559619140625,-5.384065612694621,5.439209407767653,7.52132606319189
1757614464872552200,21.59555224609375,-3.7817157564967863,5.538001790431141,8.90937616610527
1757614464882507000,21.605507080078127,-3.330476548096537,5.363139729043841,8.704731545394658
1757614464892462800,21.615462890625,-3.312121976238489,5.368713145262003,8.749268606257438
1757614464902418200,21.625418212890622,-1.670334428143501,3.643237260133028,6.514716825309395
1757614464912374000,21.6353740234375,-0.0730120447188615,2.4329145449101923,5.708400442668795
1757614464922330000,21.645330078125,1.936215900105238,1.3195002983003854,5.130704015088081
1757614464932285200,21.65528515625,4.035974010682105,0.4917313777863979,4.431704682350159
1757614464942241000,21.66524096679688,5.666308436870574,-0.144632927340269,3.5112516329199077
1757614464952196000,21.67519604492188,6.542211565956473,-0.6388040994942188,2.522134212586284
1757614464962152000,21.68515185546875,6.666907620683312,-1.017394251269102,1.653620901490748
1757614464972107000,21.69510693359375,6.609892771041393,-1.3905220459848642,1.0883940793827176
1757614464982063000,21.70506298828125,6.992039738515019,-1.901718587219715,1.0976586782690136
1757614464992018000,21.715017822265622,7.810535803771018,-2.7365876951277253,1.7444396749265492
1757614465001974000,21.72497412109375,9.001911241939663,-3.988100498872995,2.605489372143149
1757614465011928800,21.7349287109375,10.266785631561278,-5.344840102243423,3.2815628795847296
1757614465021885000,21.744885009765625,11.3838093008399,-6.544938945093751,3.830363467548787
1757614465031840800,21.7548408203125,12.107268536573647,-7.63884068198204,4.108886102157831
1757614465041795800,21.7647958984375,12.11992928070426,-8.750669705227017,4.450786107178033
1757614465051752000,21.774751953125,11.668277399849892,-9.965821155780551,5.459726710617542
1757614465061706800,21.78470678710937,10.85715040205717,-11.381368337428569,6.717386346554756
1757614465071662800,21.794662841796875,9.529128359127045,-12.909437151885031,7.485165785530209
1757614465081618000,21.804617919921878,8.103421602514386,-14.24737385510802,7.85033180758655
1757614465091573800,21.81457373046875,6.883133958116173,-15.233708951246738,7.788984481698274
1757614465101528800,21.82452880859375,6.300936711984872,-15.539339080750942,7.1991311678558585
1757614465111484700,21.834484619140625,6.110065765082836,-14.909964488381146,6.057701956117153
1757614465121440800,21.844440673828124,5.957170036309957,-13.041812655198571,4.891547468444704
1757614465131395800,21.854395751953124,5.974616261151433,-10.304657973837852,4.144787436622381
1757614465141351700,21.8643515625,6.175801681318879,-7.254144030025601,3.790896841818094
1757614465151306800,21.874306640625,6.068071958962083,-3.5902293080449104,3.718477502295375
1757614465161262800,21.884262939453127,4.7198757275313135,2.0886381661474704,3.577200899645686
1757614465171218000,21.89421801757813,1.7769132268995045,11.882226440000531,2.7130887461185456
1757614465181173800,21.904173828125,1.5562223112732172,25.53908939414024,3.183949185311794
1757614465191128800,21.91412890625,5.385768324959278,35.4929687677145,11.169998207855224
1757614465201085000,21.9240849609375,3.654949325236678,31.626955017852783,13.498258784592151
1757614465211039700,21.93403979492188,-2.3326354308202863,24.30391748434305,5.730432826256751
1757614465220995800,21.943995849609376,-3.879933554142713,22.974137199568748,1.5381290206998586
1757614465230951700,21.95395166015625,-2.2549016182765365,22.9084299249053,0.5539321056336164
1757614465240906800,21.96390673828125,-4.005439171686768,23.32866843036413,3.233358820647001
1757614465250862800,21.97386279296875,-7.404151051619649,22.87362749159336,5.222378674700856
1757614465260817700,21.98381762695313,-8.584891698527336,20.12356189073324,3.744897014926374
1757614465270773800,21.993773681640626,-8.432500996667146,16.488597953426837,2.240446684205532
1757614465280728800,22.003728759765625,-8.626392168173194,16.46934029524922,2.177788275718689
1757614465290684700,22.0136845703125,-6.843954040372371,10.75481932387352,1.8111738084197044
1757614465300639700,22.0236396484375,-6.971903543937206,10.715437746077775,1.8265052330642937
1757614465310595800,22.033595947265624,-6.113102940821647,5.177098101994395,0.1955132197499275
1757614465320551000,22.043551025390624,-5.9284337711691855,2.3208406558692456,-0.9586755203187464
1757614465330506800,22.0535068359375,-5.804676458597183,-0.3437076389640569,-2.1701178872212767
1757614465340462600,22.06346264648437,-5.724838951772451,-2.7447844455868005,-3.173465785220265
1757614465350418000,22.07341796875,-5.727488004976511,-2.803508437234163,-3.0568276570037005
1757614465360373800,22.083373779296878,-5.224160881942511,-6.591991788169741,-4.818163083282113
1757614465370328800,22.093328857421877,-4.641588957279921,-7.851722969684005,-5.255379027026891
1757614465380284700,22.10328466796875,-3.671391341471672,-8.71149738626778,-5.207742831104993
1757614465390239700,22.11323974609375,-1.8938976843357085,-9.31764717039466,-4.661738888122141
1757614465400195800,22.12319580078125,-1.7652577142886816,-9.352523837986588,-4.508174174046516
1757614465410150700,22.133150634765624,1.4120622621417045,-10.282981564080714,-3.944855231386423
1757614465420107000,22.14310693359375,2.5199416709780693,-10.547699837481977,-4.116336418163776
1757614465430061800,22.153061767578127,3.23119725869894,-10.792570085597038,-5.2579766423046586
1757614465440017700,22.163017578125,3.5653400737211105,-11.004945592820643,-7.107413253623247
1757614465449973800,22.17297387695313,3.761516433554888,-11.020753402805328,-6.83110508019328
1757614465459928800,22.1829287109375,2.9133924150154,-10.810594402587412,-11.418402475315332
1757614465469885000,22.192885009765625,2.4007822075903413,-9.99505075739622,-12.762304808944464
1757614465479839700,22.20283984375,2.4892399509832264,-8.724235287287831,-12.64867726072073
1757614465489795600,22.21279565429688,3.1506396209061145,-7.4137249356508255,-11.086101781028509
1757614465499751000,22.2227509765625,3.21817089612633,-7.422355985873937,-10.818361529457569
1757614465509706800,22.23270678710937,4.914838912183046,-5.9667281382501125,-7.060708785593509
1757614465519661800,22.24266186523437,5.551058840402961,-5.894387124660611,-6.007734102377295
1757614465529617700,22.25261767578125,5.626861977145076,-5.87374298056066,-5.78448414991796
1757614465539572700,22.26257275390625,5.343419129529595,-6.145201375871896,-5.2404263725668185
1757614465549528800,22.27252880859375,5.500634475067257,-6.076517715746164,-5.116301980248093
1757614465559484700,22.282484619140625,0.9357885657280685,-4.655152787730097,-5.947628300982713
1757614465569440000,22.29243994140625,-3.3652228673070668,-0.4397837484061718,-7.9596829936653375
1757614465579395800,22.302395751953124,-5.604986829945445,12.610420303040742,-12.41688978154063
1757614465589350700,22.3123505859375,-3.806792330086231,35.54825284804105,-12.543400192213058
1757614465599306800,22.322306640625,-3.6426129907548415,35.664404361784456,-12.842725668615104
1757614465609261800,22.33226171875,0.372829688552022,28.895570736587047,16.936643334221838
1757614465619218000,22.342218017578126,-7.877108170831203,14.928430703920125,15.249367123627662
1757614465629172700,22.3521728515625,-9.946550638121366,5.468786215385794,10.174733955329655
1757614465639128600,22.36212866210937,-9.100192752471566,1.118165825051069,7.109978135675192
1757614465649084000,22.372083984375,-9.079939653515815,1.1377478928774594,7.064631511995196
1757614465659039700,22.38203979492188,-8.566154264831543,-0.1587006156593561,2.850044562959671
1757614465668995800,22.391995849609376,-5.853178331437706,1.4413824646502733,5.077717105787992
1757614465678951000,22.401950927734376,-4.2948318676173685,3.4238334617078303,7.07171124112308
1757614465688907000,22.41190698242188,-2.9515052880495785,4.771110824728011,7.097672780853509
1757614465698861800,22.42186181640625,-1.3481670053362846,5.330860676729679,5.8040860914886
1757614465708817700,22.431817626953126,0.626770547351241,5.046252292466163,4.095850971756875
1757614465718773000,22.44177294921875,2.7386300146102904,4.006733303150535,2.444069268392026
1757614465728728800,22.451728759765626,4.609966907569766,2.45889829647243,1.123212879307568
1757614465738683600,22.46168359375,6.096325409021973,0.7532417950570582,0.1289577307593077
1757614465748639700,22.4716396484375,7.354386026975512,-0.7061836912840604,-0.4093355647809803
1757614465758594800,22.4815947265625,8.254457382634282,-1.8440940812468527,-0.5761987363688648
1757614465768551000,22.491551025390624,9.09177329917252,-2.718366978782415,-0.3821282627731561
1757614465778505700,22.50150561523437,9.108564274975658,-2.70567642403543,-0.36608196785748
1757614465788461600,22.511461669921875,10.379925688529012,-3.706856038084626,0.9243919232491404
1757614465798418000,22.52141796875,10.827151569634676,-4.092136627408862,2.0118857658565044
1757614465808372700,22.53137280273437,10.929972477161884,-4.639404598978161,3.1040593637779352
1757614465818328800,22.541328857421878,10.776111118227243,-5.380701104697585,4.380841633336246
