time,seconds_elapsed,z,y,x
1757954311245459500,22.55845947265625,-3.5263597702026366,12.11076982269287,-3.3904888259887693
1757954311255415600,22.56841552734375,-3.7409400939941406,11.386523820495604,-3.688118019866943
1757954311265371600,22.57837158203125,-3.7529111022949215,10.5352354927063,-3.9981671348571775
1757954311275327500,22.58832739257813,-3.659986150360107,9.759364517211914,-4.242525341796875
1757954311285283600,22.59828369140625,-3.490895658111572,9.190143072509764,-4.352359342956543
1757954311295239400,22.608239501953125,-3.286041778564453,8.883834897613525,-4.294599227905273
1757954311305195500,22.618195556640625,-3.1194951255798338,8.796596174621582,-4.118775043487549
1757954311315151400,22.6281513671875,-3.022978871154785,8.836998327636719,-3.836109609985352
1757954311325107500,22.638107421875,-2.948459344482422,8.908824377441405,-3.535487664031982
1757954311335063600,22.6480634765625,-2.9122470443725583,8.89894829559326,-3.206733848571777
1757954311345019600,22.65801953125,-2.845508673095703,8.849418248748778,-2.912097406768799
1757954311354976800,22.667976806640624,-2.726546778106689,8.846874409484863,-2.5800515640258785
1757954311364932600,22.6779326171875,-2.5905261962890624,8.823979856109618,-2.20221661453247
1757954311374888700,22.687888671875,-2.455104164886474,8.762179525756835,-1.8101660926818848
1757954311384844500,22.697844482421875,-2.3362919075012205,8.630947347259522,-1.3941735542297362
1757954311394800600,22.70780053710937,-2.2661118713378903,8.338106556701659,-1.029207438659668
1757954311404756500,22.717756591796874,-2.157026058197021,7.926902421569824,-0.7140706451416016
1757954311414712300,22.72771240234375,-2.0866963844299318,7.4393831085205075,-0.4900631523132324
1757954311424668700,22.737668701171877,-2.038363438415528,6.941838076019287,-0.3411737365722656
1757954311434624500,22.74762451171875,-1.93451494140625,6.481103894042969,-0.2255038688659668
1757954311444580600,22.75758056640625,-1.834257746887207,6.1179334297180175,-0.1062426986694335
1757954311454536400,22.767536376953124,-1.7227777320861817,5.852177045440674,0.009576806640625
1757954311464493600,22.77749365234375,-1.638831036376953,5.689371332550048,0.1520318054199218
1757954311474449700,22.78744970703125,-1.5885528015136718,5.662436563873291,0.2904465888977051
1757954311484405500,22.797405517578124,-1.5728408531188964,5.7330655128479,0.4439747703552246
1757954311494361600,22.807361572265624,-1.6121955429077148,5.855618710327148,0.5562029731750487
1757954311504317400,22.8173173828125,-1.7176900535583497,6.054786360931396,0.6631938598632812
1757954311514273500,22.8272734375,-1.883937431335449,6.232106921386718,0.7474398307800293
1757954311524229600,22.837229736328126,-2.0958242782592773,6.328323900604247,0.8122329132080077
1757954311534185700,22.847185791015622,-2.4274212081909177,6.369773516845703,0.8536825294494629
1757954311544141600,22.8571416015625,-2.818274629211426,6.227767430877686,0.7984662536621093
1757954311554097700,22.86709765625,-3.201646170043945,6.0799254783630365,0.7321767951965331
1757954311564053500,22.877053466796877,-3.549104685974121,6.133944653320312,0.7092822418212891
1757954311574009600,22.887009521484377,-3.895216463470459,6.486041934967041,0.744447078704834
1757954311583965400,22.89696533203125,-4.260631491851807,7.151181083679199,0.8885480911254883
1757954311593922600,22.90692260742188,-4.612728773498535,8.019827373504638,1.1424831047058104
1757954311603878400,22.91687841796875,-4.882226097869872,8.961197538757323,1.4098855026245116
1757954311613834500,22.92683447265625,-5.080196647644042,9.777620304870604,1.6748936988830565
1757954311623790600,22.93679052734375,-5.206490785217285,10.346542474365236,1.906981622314453
1757954311633746700,22.94674658203125,-5.333383473205566,10.581174237060546,2.0280384437561034
1757954311643702500,22.95670263671875,-5.472995357513428,10.664522382354736,2.063352918243408
1757954311653658600,22.96665869140625,-5.6401405609130855,10.694599540710447,1.9601029716491696
1757954311663614500,22.97661450195313,-5.791424178314209,10.786327391815185,1.6753426116943355
1757954311673570600,22.986570556640626,-5.95004003829956,10.907833126068114,1.3263877197265623
1757954311683526400,22.9965263671875,-6.117185241699218,11.078120719146728,0.9347861106872558
1757954311693482800,23.006482666015625,-6.262782630157471,11.144260540008544,0.5657797798156738
1757954311703438600,23.0164384765625,-6.356006857299804,11.111789179992677,0.201711489868164
1757954311713395700,23.026395751953125,-6.266523570251464,11.148749668121336,-0.1859995414733886
1757954311723351600,23.0363515625,-5.989245090484618,11.496357821655272,-0.647332273864746
1757954311733307600,23.0463076171875,-5.634753607177734,12.178406019592284,-1.064970825958252
1757954311743263500,23.056263427734372,-5.259911409759521,12.875717253112793,-1.4761749610900878
1757954311753219600,23.066219482421875,-4.876390231323242,13.190554771423338,-1.843984191131592
1757954311763175400,23.07617553710937,-4.665700485229492,12.962955976104736,-2.177676047515869
1757954311773131500,23.086131591796875,-4.695777643585205,12.279561039733888,-2.480542557525635
1757954311783087600,23.09608764648437,-4.856189154815674,11.36377890472412,-2.727145328521728
1757954311793043700,23.106043701171878,-5.054159704589844,10.460416690826415,-2.9339444969177246
1757954311802999600,23.11599951171875,-5.184494057464599,9.668534491729735,-3.05170929107666
1757954311812955600,23.12595556640625,-5.146186830902099,9.042600395202635,-3.1200936759948728
1757954311822911500,23.135911376953125,-4.947468093109131,8.607304605865478,-3.075052757263184
1757954311832868600,23.14586865234375,-4.661211357116699,8.391826456451415,-3.002328881835937
1757954311842824400,23.155824462890624,-4.273201050567627,8.43342571029663,-2.896385458374023
1757954311852780500,23.165780517578124,-3.828627729797363,8.727463601684569,-2.7666496559143066
1757954311862736400,23.175736328125,-3.315520386505127,9.184157568359376,-2.6358663902282715
1757954311872692500,23.1856923828125,-2.791489498138428,9.585485621643066,-2.544288176727295
1757954311882648600,23.195648681640623,-2.34946001663208,9.863063376617433,-2.510619715881348
1757954311892604700,23.205604736328127,-1.9960159965515136,9.965415497589111,-2.426523382568359
1757954311902560500,23.215560546875,-1.7322049011230467,9.9215716796875,-2.318185757446289
1757954311912516600,23.2255166015625,-1.555183615875244,9.801412683868408,-2.147000338745117
1757954311922472400,23.23547241210937,-1.445349614715576,9.56363853149414,-1.905036333465576
1757954311932428500,23.245428466796877,-1.3760674041748049,9.247753549957276,-1.622819812774658
1757954311942384400,23.25538427734375,-1.3319243110656738,8.8619878074646,-1.305737730407715
1757954311952341500,23.265341552734377,-1.3504793739318848,8.483255032348632,-0.9353846611022948
1757954311962298000,23.275298095703125,-1.3741221153259278,8.098985665893554,-0.535702621459961
1757954311972254200,23.285254150390625,-1.4330793312072754,7.679102549743652,-0.1622071624755859
1757954311982210000,23.2952099609375,-1.4941314735412596,7.226299160766601,0.1521814430236816
1757954311992166400,23.30516650390625,-1.5819687469482422,6.745513539886474,0.4575917922973632
1757954312002122200,23.315122314453124,-1.6404770500183103,6.282385156249999,0.6986579719543456
1757954312012078300,23.325078369140623,-1.709160710144043,5.839457849121094,0.9099462684631348
1757954312022034200,23.3350341796875,-1.7712603157043456,5.421220746612549,1.0911574066162109
1757954312031990300,23.344990234375,-1.8167501472473144,5.036652104949951,1.269675067901611
1757954312041946000,23.354946044921878,-1.8177976104736329,4.722862049865722,1.4088380393981932
1757954312051902200,23.36490209960937,-1.86418526763916,4.49436542892456,1.5158289260864255
1757954312061858300,23.3748583984375,-2.0172645362854005,4.315249217224121,1.5671546241760252
1757954312071814400,23.384814453125,-2.1082441993713377,4.129100038146972,1.5376760162353516
1757954312081771000,23.39477099609375,-2.230049208831787,3.988590328216553,1.448342366790771
1757954312091727400,23.40472729492188,-2.267458609771728,3.933374052429199,1.302445703125
1757954312101683200,23.41468310546875,-2.1543325813293457,4.022707701873779,1.146074407196045
1757954312111639300,23.42463940429688,-1.9750667320251465,4.270058660888672,1.0078092613220215
1757954312121595100,23.43459521484375,-1.7784429206848142,4.716876545715332,0.9576806640625
1757954312131551200,23.44455126953125,-1.6259622024536131,5.426158787536621,1.0417769973754882
1757954312141507000,23.454507080078123,-1.481711552429199,6.48020606842041,1.1695675109863282
1757954312151463200,23.464463134765627,-1.3799579818725585,7.90999337234497,1.3379098152160644
1757954312161419300,23.47441918945313,-1.3631985702514648,9.725097505950927,1.527201383972168
1757954312171375400,23.484375244140622,-1.4755764106750486,12.179004570007324,1.7278654106140137
1757954312181331200,23.49433129882813,-1.4341267944335936,14.81816298751831,1.961300072479248
1757954312191287300,23.504287353515625,-1.1718120750427246,16.183755759429932,1.9475334129333493
1757954312201243100,23.5142431640625,-1.09160631942749,15.681272686004638,1.7226280944824215
1757954312211199200,23.52419921875,-1.408987677001953,14.453196871948242,1.366939510345459
1757954312221156400,23.53415625,-1.820191812133789,13.75049868469238,0.9349357482910156
1757954312231112200,23.5441123046875,-2.08115979309082,13.56045892791748,0.4195838409423827
1757954312241068300,23.554068359375,-2.1835119140625,13.402591255950927,-0.1016039329528808
1757954312251024100,23.56402416992188,-2.264615495300293,13.13982762374878,-0.4676175117492676
1757954312260980500,23.57398046875,-2.376993335723877,12.866439721679686,-0.6576572685241698
1757954312270936300,23.583936279296875,-2.5056816749572755,12.732364428710936,-0.6361094535827636
1757954312280892400,23.59389233398437,-2.6809073089599607,12.824990105438232,-0.4807856208801269
1757954312290848300,23.60384814453125,-2.8324902015686035,13.161525076293945,-0.2668038475036621
1757954312300804000,23.61380419921875,-2.9089550170898435,13.855245007324218,-0.1060930610656738
1757954312310760200,23.62376025390625,-2.888155390167236,14.940865822601316,0.0004489128112792
1757954312320716000,23.633716064453125,-2.754529010009765,15.927725819396972,-0.0013467384338378
1757954312330672400,23.64367236328125,-2.6645968101501465,16.06269893798828,-0.1240495735168457
1757954312340628200,23.653628173828125,-2.752882996368408,15.35446415939331,-0.2961328178405761
1757954312350585300,23.66358544921875,-3.202693633270264,14.860211154174804,-0.3685574180603027
1757954312360541400,23.67354150390625,-3.693953886413574,14.798111548614502,-0.4107552223205566
1757954312370497300,23.683497314453124,-4.013879083251953,14.214973806762696,-0.5629366653442383
1757954312380453400,23.693453369140624,-4.121917433166503,12.950236779785156,-0.9519944351196288
1757954312390409200,23.7034091796875,-4.151844953918457,11.525088241577148,-1.506102481842041
1757954312400365300,23.713365234375,-4.095880490112305,10.3682399269104,-2.109291662597656
1757954312410321200,23.723321044921875,-3.948038537597656,9.4618849609375,-2.6746225296020505
1757954312420277200,23.73327734375,-3.668515493774414,8.796446537017822,-3.1479262702941893
1757954312430233300,23.7432333984375,-3.303848653411865,8.399457974243164,-3.472490232849121
1757954312440189400,23.753189453125,-2.849249613189697,8.290372161102294,-3.6584897743225095
1757954312450145300,23.763145263671877,-2.421435704040527,8.393472470092773,-3.677942662811279
1757954312460101400,23.773101318359377,-2.0952257278442383,8.60625714263916,-3.496282611846924
1757954312470057200,23.78305712890625,-1.85161570892334,8.838045790863037,-3.1919197257995604
1757954312480013300,23.793013427734376,-1.7357962036132812,9.012822512054443,-2.791339860534668
1757954312489970200,23.80297021484375,-1.6894085464477535,9.186252494812011,-2.3337480682373046
1757954312499926300,23.81292626953125,-1.6736965980529783,9.198373140716551,-1.9014450309753417
1757954312509882000,23.822882080078124,-1.675192974090576,8.956858048248291,-1.5261539207458494
1757954312519838200,23.832838134765623,-1.7489643127441403,8.550591954040527,-1.2677297790527342
1757954312529794300,23.842794189453127,-1.815104133605957,8.106916458892822,-1.1110592079162598
1757954312539750400,23.85275048828125,-1.8427870903015136,7.652018143463135,-0.9597755905151366
1757954312549706200,23.86270629882813,-1.8568530250549315,7.224054596710205,-0.8225579078674315
1757954312559662300,23.872662353515626,-1.81315884475708,6.785915692901611,-0.6612485710144043
1757954312569618200,23.8826181640625,-1.760187133026123,6.391919882202148,-0.4872200378417968
1757954312579574300,23.89257421875,-1.6897078216552734,6.035932022857666,-0.2736871772766113
1757954312589530000,23.90253002929688,-1.6270096656799315,5.717353564453124,-0.0770633659362793
1757954312599486500,23.912486572265625,-1.5695488258361816,5.435137043762206,0.1306336280822753
1757954312609442300,23.9224423828125,-1.5177742149353026,5.225195485687255,0.3244143249511718
1757954312619398400,23.9323984375,-1.4640543151855467,5.032312614440918,0.5559036979675293
1757954312629355300,23.942355224609376,-1.418714121246338,4.922628250885009,0.776319888305664
1757954312639311400,23.952311279296875,-1.4136264427185057,4.882974285888672,1.001075569152832
1757954312649267200,23.96226708984375,-1.4404115737915038,4.957493812561035,1.2544120323181152
1757954312659223300,23.972223388671875,-1.563563321685791,5.144091904449462,1.508047770690918
1757954312669179100,23.98217919921875,-1.7319056259155272,5.421968934631347,1.690605647277832
1757954312679135200,23.99213525390625,-1.8781015647888184,5.763741221618652,1.8118121063232424
1757954312689091300,24.00209130859375,-1.9698294158935543,6.133495740509033,1.934066028594971
1757954312699047400,24.01204736328125,-2.039859814453125,6.4914288887023925,2.0159177978515626
1757954312709003300,24.022003173828125,-2.129792014312744,6.836493202972412,2.1425112106323243
1757954312718959400,24.03195947265625,-2.2348376121520994,7.08668727645874,2.235885075378418
1757954312728915200,24.041915283203124,-2.357839722442627,7.321618314361571,2.324470536804199
1757954312738871300,24.051871337890624,-2.480392919921875,7.701398552703857,2.427271570587158
1757954312748827100,24.0618271484375,-2.6159645889282226,8.391976094055176,2.5788544631958006
1757954312758783200,24.071783203125,-2.794033337402344,9.285162950897217,2.7269956909179687
1757954312768740000,24.08173999023437,-2.984821282196045,10.120140779876708,2.830844187927246
1757954312778696200,24.0916962890625,-3.22409181060791,10.474632263183594,2.824559408569336
1757954312788652300,24.10165234375,-3.423708374023437,10.280402653503415,2.640056243133545
1757954312798608400,24.1116083984375,-3.601477847290039,9.913341611480712,2.384624853515625
1757954312808564200,24.12156420898437,-3.8030396995544433,9.69756418685913,2.1583727966308595
1757954312818520300,24.131520263671877,-3.95207875289917,9.62065045852661,2.01127903213501
1757954312828476200,24.14147607421875,-4.069544271850586,9.546280569458007,1.8619407035827635
1757954312838432300,24.15143237304688,-4.14975002746582,9.381529567718506,1.71739077835083
1757954312848388000,24.16138818359375,-4.255992726135253,9.063250384521483,1.5818191093444822
1757954312858344200,24.17134423828125,-4.377797735595703,8.63154589767456,1.451933669281006
1757954312868300300,24.18130029296875,-4.524741862487793,8.183381274414062,1.3531728507995604
1757954312878256400,24.19125634765625,-4.642955569458008,7.747636572265624,1.2841899154663086
1757954312888212200,24.201212158203123,-4.717175820922852,7.394491827392578,1.2660837654113768
1757954312898168300,24.211168212890627,-4.714482344055176,7.16285281677246,1.3111246841430664
1757954312908125200,24.221125244140627,-4.65402875213623,7.13801297454834,1.4208090476989743
1757954312918081300,24.231081298828126,-4.506037162017822,7.343016491699219,1.5493477493286132
1757954312928037000,24.241037109375,-4.235342736816406,7.806144875335693,1.666962905883789
1757954312937993200,24.2509931640625,-3.886986395263672,8.448838383483887,1.7817349479675293
1757954312947949000,24.260948974609374,-3.550451424407959,9.266009337615966,1.904886695861816
1757954312957905400,24.270905517578125,-3.298760974884033,10.260051939392088,2.0000562118530274
1757954312967861200,24.280861328125,-3.1344588859558105,11.268609388732909,2.04315184173584
1757954312977817300,24.2908173828125,-3.0262708984375,12.049268767547607,2.069787335205078
1757954312987773200,24.300773193359376,-3.037344081115722,12.405705539703368,2.1082441993713377
1757954312997729300,24.31072924804688,-3.196408853912353,12.27103169631958,2.1267992622375487
1757954313007685000,24.32068505859375,-3.417573232269287,11.825560549926758,2.078615953826904
1757954313017641200,24.33064111328125,-3.602525310516357,11.310657555389405,1.939004069519043
1757954313027597300,24.34059741210937,-3.6728549842834473,10.857405253601074,1.7598878578186037
1757954313037553400,24.350553466796875,-3.623624212646485,10.455329012298584,1.6033669242858886
1757954313047509200,24.36050927734375,-3.5339912879943847,10.045770890808106,1.569848101043701
1757954313057465300,24.37046533203125,-3.4454058265686034,9.612121115112304,1.661127039337158
1757954313067422200,24.380422119140626,-3.374477602386474,9.085097474670407,1.8375497741699216
1757954313077378300,24.39037841796875,-3.3255461059570317,8.622866916656493,2.07502465133667
1757954313087334100,24.400334228515625,-3.2691327293395998,8.367734802246094,2.3632266761779785
1757954313097290200,24.410290283203125,-3.158101627349853,8.354716330718993,2.69422505569458
1757954313107246000,24.42024609375,-3.0042741706848144,8.494178577423096,3.0392893699645995
1757954313117202200,24.4302021484375,-2.835482953643799,8.671499137878417,3.3364696510314937
1757954313127158300,24.440158203125,-2.6324247253417967,8.773701621246337,3.506158693695068
1757954313137114400,24.4501142578125,-2.352153493499756,8.82338130569458,3.5619735198974607
1757954313147070200,24.4600703125,-2.0973206542968748,8.828468984222411,3.528604334259033
1757954313157026300,24.4700263671875,-1.848922232055664,8.806771531677246,3.454683358001709
1757954313166982100,24.47998217773437,-1.599177071380615,8.799439289093018,3.3387142150878906
1757954313176938200,24.489938232421878,-1.4281412902832031,8.794351610565185,3.212120802307129
1757954313186894000,24.49989404296875,-1.255758770751953,8.81619870071411,3.0328549530029294
1757954313196850200,24.50985009765625,-1.0468646759033202,8.819640365600586,2.869001776885986
1757954313206806300,24.51980615234375,-0.8010100929260253,8.793304147338867,2.677166368865967
1757954313216763100,24.52976318359375,-0.5235819755554199,8.792855234527588,2.4934113914489746
1757954313226719200,24.53971923828125,-0.2615665313720703,8.808267907714843,2.272097375488281
1757954313236675300,24.54967529296875,-0.0514753356933593,8.839542166900634,2.058265239715576
1757954313246631200,24.559631103515624,0.0733224258422851,8.921094660949706,1.8101660926818848
1757954313256587300,24.569587158203124,0.0962169792175293,8.97047507019043,1.5981296081542968
1757954313266543000,24.579543212890623,0.0037409400939941,8.99591346282959,1.435174257659912
1757954313276499200,24.589499267578127,-0.1455973884582519,8.945485590362548,1.329230834197998
1757954313286455000,24.599455078125,-0.3103483901977539,8.790161757659911,1.262193187713623
1757954313296411400,24.60941137695313,-0.4771943183898925,8.609549169921875,1.2253823371887207
1757954313306367200,24.6193671875,-0.6636427726745605,8.44569599380493,1.2337620429992675
1757954313316323300,24.6293232421875,-0.8195651557922363,8.330175763702393,1.2511200050354003
1757954313326279200,24.639279052734373,-0.9166799606323242,8.24203921508789,1.256357321166992
1757954313336235300,24.6492353515625,-1.0161889671325683,8.213308795166014,1.2990040382385253
1757954313346191000,24.659191162109376,-1.0739490821838378,8.309825049591064,1.34718734664917
1757954313356147200,24.66914721679688,-1.0962450851440428,8.47846662902832,1.4312836799621582
1757954313366103300,24.679103271484376,-1.1124059463500977,8.701426658630371,1.5312415992736816
1757954313376060200,24.68906005859375,-1.1864765602111815,8.975413111114502,1.6352397338867186
1757954313386016300,24.69901635742188,-1.2503718170166014,9.209745598602296,1.7082628845214842
1757954313395972400,24.70897241210937,-1.3594576301574706,9.34591581802368,1.7438766342163086
1757954313405928200,24.71892822265625,-1.4755764106750486,9.520991814422606,1.7675193756103516
1757954313415884300,24.72888427734375,-1.6130933685302733,9.77492682800293,1.7733552421569825
1757954313425840000,24.738840087890622,-1.7253215713500976,10.149020837402343,1.7422306205749511
1757954313435796200,24.74879614257813,-1.8257284034729,10.637437976074215,1.6699556579589845
1757954313445752000,24.758751953125,-1.8397943382263184,11.1336362701416,1.5750854171752928
1757954313455708200,24.768708251953125,-1.7999907356262206,11.493365069580078,1.467645617675781
1757954313465664300,24.778664306640625,-1.7024270179748535,11.70869358139038,1.3437456817626952
1757954313475620400,24.788620361328125,-1.6584335624694824,11.950358311462402,1.158045415496826
1757954313485576200,24.798576171875,-1.6068085891723631,12.313528775787352,0.902763663482666
1757954313495532300,24.8085322265625,-1.4923358222961425,12.905495136260985,0.7070376777648926
1757954313505488100,24.818488037109372,-1.3277344581604005,13.616722666931151,0.6582558189392089
1757954313515444200,24.8284443359375,-1.2048819854736328,14.081646701812744,0.8013093681335449
1757954313525400000,24.83840014648437,-1.2192471954345705,14.177714043426512,1.0257657737731931
1757954313535356200,24.848356201171875,-1.3332710494995117,14.016404706573486,1.1673229469299315
1757954313545313300,24.858313232421875,-1.465251416015625,13.82247437210083,1.239897184753418
1757954313555269000,24.86826904296875,-1.5682020874023437,13.680169010925292,1.2457330513000489
1757954313565225500,24.8782255859375,-1.7392378684997558,13.526341554260252,1.1722609878540038
1757954313575181300,24.888181396484374,-1.8568530250549315,13.238289167022703,1.129314995574951
1757954313585137400,24.898137451171877,-1.9250877723693849,12.683432932281493,1.0767921966552734
1757954313595093200,24.90809326171875,-2.008735192871093,11.786205860137938,0.9398737892150878
1757954313605049300,24.91804931640625,-2.185906115722656,10.630853921508788,0.7342717216491699
1757954313615005200,24.928005126953124,-2.4990976203918454,9.39739115371704,0.3731961837768554
1757954313624961000,24.9379609375,-2.8000188415527343,8.274809850311279,-0.0571615646362304
1757954313634917400,24.94791748046875,-2.902520600128174,7.353341486358642,-0.4701613510131835
1757954313644873200,24.957873291015623,-2.776076824951172,6.713191817474365,-0.8276455863952636
1757954313654829300,24.967829345703127,-2.43894330368042,6.452822386932373,-1.0697592292785645
1757954313664785200,24.97778515625,-2.054823574829101,6.618620851898193,-1.1780968544006347
1757954313674741200,24.9877412109375,-1.7099088981628416,7.227945174407958,-1.154304475402832
1757954313684697000,24.99769702148437,-1.3181576515197753,8.124274420928955,-1.0142436782836914
1757954313694653200,25.007653076171877,-1.0440215614318846,9.033023588562012,-0.7775169891357422
1757954313704610300,25.0176103515625,-0.7653963432312011,9.808445651245115,-0.3923497970581054
1757954313714566100,25.027566162109373,-0.6600514701843261,10.395623608398436,0.0641945320129394
1757954313724522200,25.03752221679688,-0.675464143371582,10.829722296905516,0.5542576843261718
1757954313734478300,25.047478271484376,-0.7166144844055176,11.039963130187989,1.0256161361694336
1757954313744434400,25.05743432617188,-0.8277952239990234,11.025448282623293,1.4308347671508788
1757954313754390300,25.067390380859376,-1.0012252067565917,10.8033860786438,1.6730980476379391
1757954313764346400,25.077346435546875,-1.193359889984131,10.385597888946531,1.826626229095459
1757954313774302200,25.08730224609375,-1.4200608596801756,9.929053559875488,1.975964557647705
1757954313784258300,25.09725830078125,-1.6201263359069824,9.51231283340454,2.0560206756591795
1757954313794214100,25.10721411132813,-1.801038198852539,9.14270795211792,2.1959318351745605
1757954313804170500,25.11717041015625,-1.974019268798828,8.8359508644104,2.3282114768981934
1757954313814126300,25.12712622070313,-2.0835539947509765,8.564657888793946,2.45196177520752
1757954313824082200,25.137082275390625,-2.20251588973999,8.367285889434815,2.560449037933349
1757954313834038300,25.147038330078125,-2.2991817817687985,8.173056279754638,2.6574142051696774
1757954313843994000,25.156994140625,-2.3645734146118165,7.98077195892334,2.683451148223877
1757954313853950200,25.1669501953125,-2.412008535003662,7.790133651733398,2.671779415130615
1757954313863906000,25.176906005859376,-2.4341549003601077,7.612064903259277,2.6761189056396484
1757954313873862100,25.18686206054688,-2.477699443054199,7.426214999389648,2.6542718154907226
1757954313883819300,25.1968193359375,-2.4919150154113767,7.287800215911865,2.664297534942627
1757954313893775000,25.20677514648437,-2.4768016174316405,7.126341241455077,2.650830150604248
1757954313903731500,25.2167314453125,-2.4973019691467284,7.014561951446533,2.651279063415527
1757954313913687300,25.22668725585937,-2.557905198669433,6.967276468658447,2.66878666305542
1757954313923643400,25.236643310546874,-2.666691736602783,6.962039152526855,2.70050983505249
1757954313933599200,25.24659912109375,-2.903867338562012,6.99091921005249,2.7608137893676754
1757954313943555300,25.256555419921877,-3.233219704437256,7.023390570068359,2.8067525337219235
1757954313953511200,25.26651123046875,-3.592349953460693,6.95231270828247,2.8248586837768555
1757954313963467000,25.276467041015625,-3.893121537017822,6.861333045196533,2.795529713439941
1757954313973422800,25.2864228515625,-4.131194964599609,6.797886701202392,2.7578210372924805
1757954313983379000,25.29637890625,-4.262127867889404,6.906523601531982,2.6708815895080567
1757954313993334800,25.30633471679688,-4.327220225524902,7.194875263977051,2.513163555145264
1757954314003291000,25.316290771484372,-4.3555017326354974,7.643638437652587,2.324470536804199
1757954314013246700,25.326246826171875,-4.381837950897217,8.16572403717041,2.088791310882568
1757954314023202800,25.33620288085937,-4.43705422668457,8.62526111831665,1.9508254402160643
1757954314033158700,25.34615869140625,-4.624849419403076,9.039158730316162,1.849071869659424
1757954314043115000,25.35611499023437,-4.8713025527954095,9.350255308532716,1.8195932617187496
1757954314053070800,25.36607080078125,-5.302109214019775,9.745148944854735,1.6237176383972167
1757954314063028000,25.376028076171878,-5.72034631652832,10.372729055023193,1.2036848846435546
1757954314072983800,25.38598388671875,-5.901108541870117,11.135282283782958,0.7519289588928222
1757954314082940000,25.39593994140625,-5.812074167633057,11.905616667938231,0.3248632377624511
1757954314092895700,25.405895751953125,-5.557091690826415,12.433687771606444,0.1334767425537109
1757954314102851800,25.415851806640624,-5.363011718749999,12.601281887817382,0.0662894584655761
1757954314112807700,25.4258076171875,-5.252429529571533,12.407052278137206,0.0261865806579589
1757954314122763800,25.435763671875,-5.163844068145751,11.984026772308347,0.0032920272827148
1757954314132719900,25.445719970703124,-5.145887555694579,11.307066252899167,0.0246902046203613
1757954314142676000,25.455676025390623,-5.077203895568847,10.533140566253662,0.0421978042602539
1757954314152631800,25.4656318359375,-5.001337630462646,9.679757312011718,0.0396539649963378
1757954314162588000,25.475587890625,-4.92232897567749,8.851213899993896,0.0291793327331542
1757954314172543700,25.485543701171878,-4.808754034423828,8.25490804901123,0.0863408973693847
1757954314182499800,25.49549975585937,-4.612728773498535,8.059331700897216,0.227898070526123
1757954314192455700,25.50545556640625,-4.30312857131958,8.31251852645874,0.4343979637145996
1757954314202411800,25.515411865234373,-3.9564182434082023,8.90583162536621,0.6356605407714844
1757954314212368000,25.52536791992188,-3.538330778503418,9.643395374298096,0.7992144416809082
1757954314222324000,25.535323974609376,-3.095702746582031,10.404452227020265,0.8698433906555175
1757954314232279800,25.54527978515625,-2.649034499359131,11.113135918426511,0.8479963005065917
1757954314242237000,25.55523681640625,-2.243815868377685,11.584195095062254,0.7459434547424316
1757954314252192800,25.56519287109375,-1.9213468322753904,11.67652149658203,0.6097732353210449
1757954314262148900,25.57514892578125,-1.809268267059326,11.271751778411865,0.5406406623840332
1757954314272104700,25.585104736328127,-1.83889651260376,10.640131452941894,0.4727051902770995
1757954314282060800,25.595060791015623,-1.9083283607482908,9.982324546813963,0.3778349494934082
1757954314292016600,25.6050166015625,-1.912967126464844,9.400084630584717,0.2862567359924316
1757954314301973000,25.614972900390622,-1.860294689941406,8.838195428466797,0.2361281387329101
1757954314311928800,25.6249287109375,-1.7326538139343262,8.308029398345946,0.2195183647155761
1757954314321885000,25.634885009765625,-1.5298948608398435,7.832780368804931,0.232387198638916
1757954314331840800,25.6448408203125,-1.2750620216369628,7.513902635192871,0.2650081962585449
1757954314341796900,25.654796875,-1.0143933158874512,7.395988203430175,0.2587234169006348
1757954314351752700,25.66475268554688,-0.7736264114379883,7.4883146049499505,0.197222361755371
1757954314361708800,25.674708740234376,-0.6236895324707031,7.772326776885986,0.0662894584655761
1757954314371664600,25.68466455078125,-0.6048351943969726,8.072200534820556,-0.14679448928833
1757954314381621000,25.69462109375,-0.668431175994873,8.169764252471923,-0.3818751647949218
1757954314391576800,25.704576904296875,-0.805050308227539,8.067711406707764,-0.5880757827758789
1757954314401533000,25.71453295898437,-0.9337386474609376,7.959673056793212,-0.7728782234191894
1757954314411488800,25.72448876953125,-1.0242693977355957,8.055441123199463,-0.8547299926757812
1757954314421444900,25.73444482421875,-1.1894693122863769,8.501959732818603,-0.8280944992065429
1757954314431400700,25.744400634765626,-1.3911808021545409,9.279925634765624,-0.7164648468017578
1757954314441357800,25.75435791015625,-1.5758336051940918,10.337564218139647,-0.5155015449523925
1757954314451313700,25.764313720703125,-1.826626229095459,11.374103899383543,-0.2926911529541015
1757954314461269800,25.774269775390625,-2.250399922943115,12.177059281158446,-0.1625064376831054
1757954314471225900,25.784225830078125,-2.77083950881958,12.765583976745605,-0.1156698677062988
1757954314481182000,25.794181884765624,-3.240252671813965,13.33091484375,-0.1249473991394043
1757954314491137800,25.8041376953125,-3.646069853210449,13.93096163482666,-0.1282394264221191
1757954314501094000,25.814093994140624,-3.727173434448242,14.374337854766845,-0.136619132232666
1757954314511049700,25.8240498046875,-3.480570663452148,14.538639943695069,-0.2772784797668456
1757954314521005800,25.834005859375,-3.0277672744750976,14.547169287109377,-0.5777507881164551
1757954314530961700,25.843961669921875,-2.530970429992676,14.557195006561278,-0.9620201545715332
1757954314540917800,25.85391772460937,-2.161814461517334,14.708628261566162,-1.2123638656616211
1757954314550873900,25.863873779296878,-1.8888754722595211,15.158588536071775,-1.1917138763427733
1757954314560830000,25.873829833984374,-1.697339339447021,15.80113240661621,-0.8274959487915039
1757954314570785800,25.883785888671877,-1.729511424255371,16.13946302871704,-0.1696890426635742
1757954314580742000,25.893741943359377,-2.150890916442871,15.778986041259763,0.4682160621643066
1757954314590697700,25.90369775390625,-2.721459099578857,14.81098038253784,0.6899789909362792
1757954314600653800,25.91365380859375,-3.193416101837158,13.808408437347412,0.4706102638244628
1757954314610609700,25.923609619140624,-3.450493505096435,13.0497457862854,0.0787093795776367
1757954314620566000,25.93356591796875,-3.4765304481506347,12.134412564086912,-0.3754407478332519
1757954314630521900,25.94352197265625,-3.446453289794922,10.882394733428956,-0.8904933799743652
1757954314640479000,25.95347900390625,-3.4132337417602536,9.639504796600342,-1.444751064300537
1757954314650434800,25.963434814453127,-3.3807623817443844,8.719832083892822,-2.012476132965088
1757954314660391000,25.973390869140623,-3.3066917678833008,8.21630154724121,-2.546083827972412
1757954314670346800,25.9833466796875,-3.1777041534423827,8.145223685455322,-2.9899089607238767
1757954314680302800,25.993302734375,-2.9129952323913573,8.359205458831786,-3.2857425033569334
1757954314690258700,26.0032587890625,-2.6864439002990723,8.745120838928223,-3.4132337417602536
1757954314700214800,26.01321484375,-2.60504104385376,9.09153189163208,-3.3845033218383787
1757954314710170600,26.02317065429688,-2.5611972259521485,9.28157164840698,-3.157054164123535
1757954314720127000,26.033126953125,-2.643497908020019,9.3982889793396,-2.884564087677002
1757954314730082800,26.04308276367188,-2.7439047401428223,9.523834928894042,-2.5555109970092773
1757954314740039000,26.053038818359376,-2.829497449493408,9.62169792175293,-2.124853973388672
1757954314749994800,26.062994873046875,-2.8022634056091307,9.642946461486815,-1.6699556579589845
1757954314759950800,26.07295092773437,-2.709937004089355,9.547627307891846,-1.2774562232971192
1757954314769906700,26.08290673828125,-2.556259185028076,9.30895532989502,-0.9211690887451172
1757954314779862800,26.09286279296875,-2.4226328048706054,8.936956246948242,-0.6549637916564941
1757954314789819000,26.10281884765625,-2.3401824851989743,8.445097443389892,-0.4020762413024902
1757954314799775000,26.11277490234375,-2.281973457336425,7.889343383026122,-0.2064998931884765
1757954314809730800,26.122730712890625,-2.231096672058105,7.372046186828613,0.0062847793579101
1757954314819687000,26.13268701171875,-2.213289797210693,6.947524304962158,0.2250549560546874
1757954314829642800,26.142642822265625,-2.085948196411133,6.549937191772461,0.3824737152099609
1757954314839598800,26.152598876953125,-1.976563108062744,6.250661984252929,0.5029319862365722
1757954314849555700,26.1625556640625,-1.8251298530578608,5.983409223937988,0.598849690246582
1757954314859511800,26.17251171875,-1.6710031211853027,5.788730701446533,0.637755467224121
1757954314869467600,26.18246752929688,-1.5167267517089842,5.62472788772583,0.6265326469421386
1757954314879423700,26.192423828125,-1.4413093994140624,5.574000740051269,0.5998971534729004
1757954314889379800,26.2023798828125,-1.5031097297668456,5.613953980255126,0.6066308456420898
1757954314899336000,26.2123359375,-1.6475100173950197,5.738452466583252,0.6057330200195312
1757954314909291800,26.222291748046874,-1.8860323577880855,5.992387480163574,0.6334159767150879
1757954314919248000,26.23224780273437,-2.120963395690918,6.36558366394043,0.7330746208190918
1757954314929203700,26.24220361328125,-2.4455273582458497,6.822427268218994,0.8692448402404784
1757954314939159800,26.252159912109374,-2.7768250129699705,7.272686817932128,0.9632172554016112
1757954314949115600,26.26211572265625,-3.056647332000732,7.7030445663452145,1.0408791717529295
1757954314959072800,26.27207275390625,-3.4554315460205074,8.05125127029419,1.1058218917846678
1757954314969028900,26.28202880859375,-3.922001594543457,8.328829025268554,1.0869675537109371
1757954314978985000,26.29198486328125,-4.388122730255127,8.460659754180908,1.002721582794189
1757954314988941000,26.301941162109376,-4.837035541534424,8.353818505096434,0.8620622352600097
1757954314998897000,26.31189697265625,-5.203946945953369,8.123376595306397,0.6636427726745605
1757954315008853000,26.32185302734375,-5.453093556213378,7.917475252532959,0.3681085052490234
1757954315018808800,26.331808837890627,-5.622483323669433,7.87856947555542,0.1213560966491699
1757954315028765000,26.341764892578126,-5.776909330749511,8.164377298736571,-0.077213003540039
1757954315038720800,26.351720703125,-5.910386073303222,8.748562503814696,-0.227898070526123
1757954315048676900,26.3616767578125,-6.104765320587158,9.491363568878173,-0.2998737579345703
1757954315058633000,26.371633056640626,-6.270264510345458,10.223690001678468,-0.3742436470031738
1757954315068589800,26.38158984375,-6.2958525405883785,10.967388892364502,-0.5189432098388671
1757954315078546000,26.3915458984375,-6.125116034698486,11.937489477539062,-0.7439981658935546
1757954315088502000,26.401501953125,-5.871480296325683,13.179032675933836,-0.909198080444336
1757954315098457900,26.41145776367188,-5.642834037780761,14.356530979919432,-1.0215759208679198
1757954315108414000,26.4214140625,-5.418676907348632,14.97842486114502,-1.088463929748535
1757954315118369800,26.43136987304688,-5.302408489227295,14.672715236663818,-1.1891700370788574
1757954315128326000,26.441325927734376,-5.400570757293701,13.510928881072996,-1.3564648780822752
1757954315138281700,26.45128173828125,-5.57953733139038,12.096703887939452,-1.5336358009338378
1757954315148237800,26.46123779296875,-5.556493140411376,10.708964750671386,-1.6277578536987305
1757954315158194000,26.47119384765625,-5.331587821960449,9.3730002243042,-1.6117466300964354
1757954315168150000,26.48114990234375,-4.970661921691894,8.142230933380127,-1.4820108276367188
1757954315178105900,26.49110595703125,-4.577115023803711,7.13756406173706,-1.28314245223999
1757954315188062000,26.50106201171875,-4.167856177520751,6.390273868560791,-1.0703577796936037
1757954315198017800,26.511017822265625,-3.73495458984375,5.913977375793457,-0.8960299713134765
1757954315207974000,26.520973876953125,-3.298611337280273,5.736956090545654,-0.7158662963867187
1757954315217929700,26.5309296875,-2.8911481422424314,5.874622686004638,-0.5602431884765625
1757954315227886000,26.540885986328124,-2.4589947425842285,6.285527545928955,-0.4465186096191406
1757954315237842000,26.550842041015624,-2.0310311958312988,6.799831990051269,-0.3417722869873046
1757954315247798000,26.560798095703124,-1.6250643768310546,7.301417237854004,-0.2759317413330078
1757954315257753900,26.57075390625,-1.260247898864746,7.732672811889648,-0.232985749053955
1757954315267710000,26.5807099609375,-0.9783306533813476,8.039429899597167,-0.213233585357666
1757954315277665800,26.59066577148437,-0.7839514060974121,8.341248946380615,-0.2382230651855468
1757954315287622000,26.600621826171874,-0.6886322525024413,8.757391122436523,-0.2422632804870605
1757954315297578000,26.61057788085937,-0.6624456718444823,9.309853155517578,-0.2237082176208496
1757954315307534800,26.62053491210937,-0.6904279037475586,9.890447058105469,-0.151283617401123
1757954315317491000,26.630490966796877,-0.7378630241394043,10.34893667602539,-0.0404021530151367
1757954315327447000,26.640447021484373,-0.886752439880371,10.620977839660643,0.1230021102905273
1757954315337403000,26.65040283203125,-1.068711766052246,10.793659634399411,0.2805705070495605
1757954315347359000,26.66035888671875,-1.3150152618408202,10.95466969604492,0.4023755165100097
1757954315357314800,26.670314697265624,-1.5891513519287108,11.111938817596435,0.4287117347717284
1757954315367271000,26.68027099609375,-1.868075845336914,11.183166316986084,0.3558382217407226
1757954315377226800,26.690226806640624,-2.130989115142822,11.118822147369384,0.1930325088500976
1757954315387182800,26.700182861328123,-2.369960368347168,10.849474460601806,-0.0137666595458984
1757954315397139000,26.710138916015627,-2.5650878036499023,10.455628287506103,-0.2775777549743652
1757954315407095000,26.720094970703126,-2.670582314300537,10.01778865890503,-0.5621884773254394
1757954315417051000,26.73005078125,-2.7232547508239744,9.61556277999878,-0.8596680335998534
1757954315427007000,26.74000708007813,-2.857479681396484,9.34786110687256,-1.1028291397094725
1757954315436962800,26.749962890625,-2.8636148231506344,9.273341580200194,-1.306336280822754
1757954315446919000,26.7599189453125,-2.7766753753662106,9.34636473083496,-1.4821604652404785
1757954315456874800,26.769874755859377,-2.582445765686035,9.52607949295044,-1.678335363769531
1757954315466830800,26.77983081054688,-2.300977433013916,9.813533329772948,-1.925686322784424
1757954315476787000,26.789786865234376,-1.9846435386657717,10.26648635635376,-2.1534347557067868
1757954315486743000,26.79974291992188,-1.7061679580688476,10.820444765472413,-2.29199917678833
1757954315496699000,26.809698974609372,-1.508047770690918,11.320982550048829,-2.3882161560058592
1757954315506655000,26.819655029296875,-1.3756184913635252,11.533318309783937,-2.408866145324707
1757954315516610800,26.82961083984375,-1.372027188873291,11.31275248184204,-2.4335563499450683
1757954315526567000,26.83956689453125,-1.444152513885498,10.772560732269287,-2.5092729774475098
1757954315536522800,26.84952270507813,-1.6014216354370117,10.314071114349364,-2.667589562225342
1757954315546479000,26.85947900390625,-1.7085621597290035,10.043526326751708,-2.940079638671875
1757954315556435700,26.869435791015626,-1.6525976959228514,9.963320571136476,-3.2727240318298336
1757954315566392000,26.87939208984375,-1.4772224243164065,10.218602323150634,-3.633051381683349
1757954315576348000,26.889347900390625,-1.1837830833435057,10.91022732772827,-3.788375214385986
1757954315586304000,26.899303955078125,-1.0187328063964842,11.679813523864745,-3.5685575744628903
1757954315596259800,26.909259765625,-1.1840823585510254,11.935394551086423,-3.01355170211792
1757954315606216000,26.9192158203125,-1.6964415138244628,11.647791076660155,-2.4486697479248045
1757954315616171800,26.929171875,-2.3144448173522947,11.24332063369751,-2.1722890937805173
1757954315626128000,26.9391279296875,-2.858676782226562,10.976367148590088,-2.124853973388672
1757954315636084000,26.949083984375,-3.2390555709838864,10.882694008636474,-2.1006126815795896
1757954315646040000,26.9590400390625,-3.4249054748535155,10.792163258361816,-2.0311808334350583
1757954315655996000,26.96899584960937,-3.6351463081359854,10.593893433380126,-1.948580876159668
1757954315665952000,26.978951904296878,-3.8627451034545897,10.236109922790527,-1.884835256958008
1757954315675907800,26.98890795898437,-4.186860153198242,9.776872116851806,-1.87061968460083
1757954315685864000,26.998864013671877,-4.501847309112549,9.312995545196532,-1.915361328125
1757954315695819800,27.00881982421875,-4.715529807281494,8.957755873870848,-1.9214964698791503
1757954315705775900,27.01877587890625,-4.747552254486084,8.693346228027343,-1.8408418014526369
1757954315715732000,27.02873193359375,-4.6347255012512205,8.4789155418396,-1.7488146751403808
1757954315725688000,27.03868798828125,-4.408772719573975,8.290072885894775,-1.616983946228027
1757954315735644000,27.048643798828124,-4.093785563659668,8.180687797546387,-1.4341267944335936
1757954315745600000,27.05860009765625,-3.710713298034668,8.161384546661376,-1.1941080780029296
1757954315755555800,27.068555908203123,-3.3373674766540526,8.228122917938231,-0.898274535369873
1757954315765512000,27.078511962890627,-3.012354601287841,8.342894960021972,-0.5556044227600098
1757954315775467800,27.0884677734375,-2.735225759124756,8.415319560241699,-0.2082955444335937
1757954315785424000,27.098423828125,-2.486827336883545,8.426243105316162,0.1119289276123046
1757954315795380000,27.1083798828125,-2.3220763351440428,8.327931199645995,0.3916016090393066
1757954315805335800,27.118335693359374,-2.2111948707580567,8.124274420928955,0.5989993278503417
1757954315815292000,27.1282919921875,-2.121412308502197,7.819911534881592,0.7249941902160644
1757954315825247700,27.138247802734377,-2.0198083755493164,7.492205182647704,0.8620622352600097
1757954315835203800,27.14820385742188,-1.9315221893310544,7.224204234313964,0.9898527488708496
1757954315845161000,27.15816088867188,-1.9301754508972169,6.988824283599853,1.109562831878662
1757954315855116800,27.16811669921875,-1.970128691101074,6.735787095642089,1.1777975791931152
1757954315865073000,27.17807299804688,-2.014271784210205,6.560860736846924,1.2292729148864745
1757954315875028700,27.18802880859375,-2.103156520843506,6.440252828216552,1.2930185340881346
1757954315884985000,27.197985107421875,-2.176329309082031,6.448931809234619,1.407042388153076
1757954315894941000,27.20794091796875,-2.2457611572265623,6.65902300491333,1.507898133087158
1757954315904897000,27.21789697265625,-2.318933945465088,7.014262676239014,1.624914739227295
1757954315914852900,27.22785278320313,-2.436249826812744,7.338527363586425,1.7226280944824215
1757954315924809000,27.23780908203125,-2.594566411590576,7.59066672592163,1.7812860351562498
1757954315934764800,27.247764892578125,-2.857479681396484,7.719953615570068,1.8101660926818848
1757954315944721000,27.257720947265625,-3.158101627349853,7.722647092437744,1.8372504989624023
1757954315954677000,27.267677001953125,-3.44106633605957,7.644087350463867,1.8568530250549315
1757954315964632300,27.27763232421875,-3.665672379302978,7.6008420829772945,1.9015946685791012
1757954315974588400,27.28758837890625,-3.8607998146057128,7.729231147003174,1.8957588020324705
1757954315984544300,27.297544189453124,-4.037372187042236,8.054992210388184,1.8671780197143557
1757954315994500400,27.307500244140623,-4.254645987701416,8.549993403625487,1.8568530250549315
1757954316004456200,27.317456298828127,-4.504391148376465,8.974365647888183,1.785026975250244
1757954316014412300,27.327412353515623,-4.779724339294433,9.172336197662354,1.6570868240356444
1757954316024368400,27.33736840820313,-5.12029952545166,9.144952516174316,1.441608674621582
1757954316034324500,27.347324462890622,-5.36914686050415,9.063998572540283,1.2000935821533203
1757954316044280300,27.3572802734375,-5.6486699043273925,9.133280783081052,0.9629179801940916
1757954316054236400,27.367236328125,-5.927744035339355,9.362375954437256,0.7187094108581542
1757954316064192300,27.37719213867188,-6.198139185333251,9.711031571197507,0.3722983581542968
1757954316074148400,27.3871484375,-6.395810459899902,10.15156467666626,0.0221463653564453
1757954316084104200,27.39710424804688,-6.411522408294678,10.615141973114014,-0.3654150283813476
1757954316094060500,27.407060546875,-6.188712016296386,11.251999614715576,-0.62563482131958
1757954316104016400,27.417016357421875,-5.835866546630859,11.99644669342041,-0.7739256866455078
1757954316113972500,27.42697241210937,-5.5545478515625,12.62881520690918,-0.7119757186889648
1757954316123928300,27.43692822265625,-5.309441456604004,12.962058150482177,-0.4387374542236328
1757954316133884400,27.44688452148437,-5.104886852264404,12.826486481475827,0.0047884033203125
1757954316143841300,27.45684130859375,-4.973804311370849,12.273126622772216,0.4468178848266601
1757954316153797400,27.46679736328125,-4.934150346374511,11.523142952728271,0.7368155609130859
1757954316163753200,27.47675317382813,-4.882824648284912,10.704924535369871,0.8692448402404784
1757954316173709300,27.486709228515625,-4.765508766937256,9.827599264526366,0.903960764312744
1757954316183665200,27.4966650390625,-4.506635712432861,8.881141420745848,0.9623194297790528
1757954316193621500,27.50662158203125,-4.18760834121704,7.979874133300781,1.0688614036560058
1757954316203577300,27.516577392578125,-3.820846574401856,7.256077043914795,1.2609960868835448
1757954316213533400,27.526533447265624,-3.471742044830322,6.714089643096924,1.4525322196960448
1757954316223489300,27.5364892578125,-3.0693665283203124,6.393865171051025,1.6065093139648436
