time,seconds_elapsed,z,y,x
1758278179309264600,179.3892646484375,-0.1809755758315324,-3.3241181189805267,-0.5157527432344854
1758278179319348500,179.39934838867188,-0.6975713457614183,-3.717997609823942,-0.933167715705186
1758278179329433600,179.40943359375,-1.1986866379648446,-3.893801335975528,-1.2562597060114145
1758278179339517700,179.419517578125,-1.5917261708527803,-3.790082602825761,-1.447455354823172
1758278179349602800,179.42960278320314,-1.8663497521966692,-3.5416251438736914,-1.692192624208331
1758278179359686700,179.43968676757814,-2.1718547940164803,-3.317767288649082,-1.9201026774331929
1758278179369771500,179.449771484375,-2.349676874253153,-2.9462329006046053,-2.129792306573689
1758278179379856600,179.45985668945312,-2.4904028572827577,-2.397106733947992,-2.4504312046393752
1758278179389940500,179.4699404296875,-2.562906367957592,-1.7473317431062458,-2.7680215287894008
1758278179400025600,179.48002563476564,-2.6372008537024256,-1.0008902757138014,-3.004289368253946
1758278179410109400,179.490109375,-2.798680286425352,-0.2169698492765426,-3.059351914784312
1758278179420194600,179.50019458007813,-3.083281656426191,0.5530331109672785,-2.8060142825752497
1758278179430278700,179.51027856445313,-3.1992408624678847,1.5435264958292243,-2.428360534867644
1758278179440363500,179.52036352539062,-3.2148651325792077,2.926040007403493,-2.063176977154612
1758278179450447600,179.53044750976562,-3.330513957497477,4.301933224055171,-1.4672837986260652
1758278179460532700,179.54053271484375,-3.330791020873189,4.866608257499337,-0.4032283339470625
1758278179470616600,179.5506164550781,-2.6169161905646323,4.189595715641975,0.3574228605836629
1758278179480701700,179.56070166015624,-1.4197481404691934,3.081129446828365,0.0078173957526683
1758278179490785500,179.57078564453124,-0.534464677162841,2.277870698192716,-0.683800594562292
1758278179500870700,179.58087060546876,-0.109418479161337,2.0045324804842477,-1.3929402130424977
1758278179510954500,179.59095458984376,0.263387317058444,2.1957827820926905,-2.1054864250957963
1758278179521039400,179.60103930664062,0.7839211570896207,2.562750300613045,-2.80580853087008
1758278179531124500,179.61112451171874,1.3042996604286134,2.9331051234841343,-3.40205066896677
1758278179541208600,179.62120849609374,1.3508639893352985,3.6611288906544446,-3.6172301276952026
1758278179551293700,179.63129370117187,0.801812641480565,5.000709269431233,-3.0604794575095173
1758278179561377500,179.64137744140626,0.0160433723062276,6.643101797682046,-2.071197202003002
1758278179571462700,179.65146264648436,-0.6261218011189251,7.791817659297585,-1.1021224527448414
1758278179581546500,179.66154638671875,-0.8448673548310994,8.060417742568253,-0.3168529497861862
1758278179591631600,179.67163159179688,-0.4589631537158042,7.217419104218482,0.0636345600426197
1758278179601715500,179.68171557617188,0.5206312725236639,5.67745176217556,-0.1612900476306676
1758278179611800600,179.69180053710937,1.9342635969936848,4.058722433584928,-0.6836790140092373
1758278179621884700,179.701884765625,3.394930023306608,2.7243799554616213,-1.0396645352661609
1758278179631969800,179.7119697265625,4.495043474316597,1.6608517295271157,-1.185948152422905
1758278179642053600,179.7220537109375,4.795516367188096,0.9558429272413254,-1.2008537528708576
1758278179652138800,179.732138671875,3.967428882244229,0.8850672632724046,-1.2192936649248003
1758278179662223600,179.7422236328125,2.504876788315177,1.3565028720051049,-1.2693635177344085
1758278179672307500,179.75230737304688,1.1995160745263098,2.0643425138026474,-1.3089233747065063
1758278179682392600,179.762392578125,0.1888619451671838,2.717165786299109,-1.1950497427672149
1758278179692476400,179.77247631835937,-0.5904074405938387,3.158419022735953,-0.7177443652182817
1758278179702561500,179.7825615234375,-1.3188269290834664,3.26293971991837,0.0455517908632755
1758278179712645600,179.79264575195313,-1.681549065119028,2.837956065759063,0.8046835207417606
1758278179722730800,179.80273071289062,-1.7102648719936608,1.9427964475393291,1.226144845993817
1758278179732814600,179.81281469726562,-1.632370900452137,0.7757932340830564,1.250891164715588
1758278179742899700,179.8228996582031,-1.632726874282956,-0.2980675852954387,1.0362836606562138
1758278179752983600,179.8329836425781,-1.8055933779388664,-1.2729285167396067,0.8851889899559319
1758278179763068700,179.84306860351563,-2.0343214695483445,-2.2788836746275423,0.7859569007009267
1758278179773152500,179.85315258789063,-2.121130568951368,-3.2077608535319566,0.778505707912147
1758278179783237600,179.86323754882812,-2.292693004271388,-4.041091499826312,0.7254908876918256
1758278179793321700,179.87332177734376,-2.448981298092008,-4.848184127536416,0.5897352404206991
1758278179803406600,179.88340649414062,-2.2815613694041965,-5.4660939075618975,0.4550852163039147
1758278179813491500,179.8934914550781,-2.271694639906287,-5.921795356068015,0.317813246185705
1758278179823575600,179.90357543945314,-2.2661007654219865,-6.298599793469905,0.1477246097452938
1758278179833660700,179.91366064453126,-2.169721289119124,-6.485676608785987,0.0794159204117953
1758278179843744500,179.92374462890626,-2.019519621735811,-6.414129960444569,0.0605089023027569
1758278179853829600,179.93382958984375,-2.061007231900096,-6.074924309074878,0.1121755227845162
1758278179863913500,179.94391357421875,-2.0347773966223,-5.463268328747153,0.1950742438107728
1758278179873998600,179.95399853515624,-1.9492513227671384,-4.49951272868514,0.2122587855087593
1758278179884082400,179.96408251953125,-1.8769256528772411,-3.3259704688489435,0.2585479324695654
1758278179894167600,179.97416748046874,-1.7910675705887376,-2.003330118957162,0.3540966387704015
1758278179904251600,179.98425170898437,-1.5902276028580962,-0.6781108584880828,0.4505043913196772
1758278179914336800,179.99433666992186,-1.244241497568041,0.5858592757701874,0.8267371663134545
1758278179924420600,180.0044206542969,-0.7198205869704485,1.7668214564740656,1.4478845400206743
1758278179934505700,180.01450561523438,0.0383713778398931,2.8626737429082394,1.9978871972508727
1758278179944589600,180.0245895996094,0.7986537390582263,3.663483929347992,2.4361834835782648
1758278179954674400,180.03467431640624,1.279970251944661,3.9260722049832335,2.8012399077802894
1758278179964759600,180.04475952148437,1.5560475392282007,3.6614158909022807,3.0166371009126305
1758278179974843400,180.05484350585937,1.6073454725280405,3.3013854781687257,3.3930554616063837
1758278179984928500,180.06492846679689,1.2774722976490855,3.107017921322584,4.08667543939352
1758278179995012600,180.0750126953125,0.6773112325429916,2.9837925236701963,4.901623164518178
1758278180005097700,180.08509765625,0.0646001902043819,2.7154876239538197,5.460087945145368
1758278180015181600,180.095181640625,-0.3657669105589389,2.127593627485633,5.690859525281191
1758278180025266700,180.1052666015625,-0.4651233568459749,1.220786241570115,5.37201920107007
1758278180035350500,180.1153505859375,-0.4180816196858882,0.2878454664885997,4.799310498774052
1758278180045435600,180.125435546875,-0.4843377604037523,-0.4414560655325651,4.2248914854288095
1758278180055519500,180.13551953125,-0.7486331322178245,-0.6515911003530025,3.69284095673561
1758278180065604600,180.1456044921875,-1.0851450144588948,-0.3706301326811313,3.093888390636444
1758278180075688700,180.15568872070315,-1.4209820661783217,0.1788964314699173,2.4235355989292264
1758278180085773800,180.16577392578125,-1.6748112812966107,0.803173992961645,1.860731327793002
1758278180095857700,180.1758576660156,-2.093594327250123,1.2658663232684135,1.466640532286465
1758278180105943300,180.185943359375,-2.506187286391854,1.383715288579464,1.2636676441803574
1758278180116028400,180.1960283203125,-3.006460282552242,0.9726204590409994,1.1814089746233074
1758278180126112300,180.2061123046875,-3.103086427092552,0.2122533421486616,0.9870913213334978
1758278180136197400,180.216197265625,-2.807922746545076,-0.7395990541517734,0.7415756149217486
1758278180146281200,180.22628125,-2.274675117021799,-1.771272590664029,0.5836626425087451
1758278180156366300,180.23636645507813,-1.7809300613254309,-2.57671102142632,0.4729695403017103
1758278180166450200,180.2464501953125,-1.241989773118496,-2.959693270680308,0.3499083933003246
1758278180176535300,180.25653540039065,-0.5741770212829113,-2.9132389780193564,0.3928953021116554
1758278180186619400,180.2666193847656,0.0484083493381738,-2.452692427569628,0.6658250851497054
1758278180196704500,180.27670458984372,0.5755766589477658,-1.6998638894885778,1.0554864468414336
1758278180206788400,180.2867883300781,0.9681269470140338,-0.6481272236347199,1.4338153903968631
1758278180216873500,180.29687353515624,1.215391396789253,0.6171358730435371,1.681698118200898
1758278180226957300,180.30695727539063,1.284866207292676,1.9536071798890828,1.7712893956683575
1758278180237042200,180.3170422363281,1.2631161477774382,3.1790877167552707,1.84319903210327
1758278180247126300,180.32712622070312,1.135754673233628,4.098296903604269,1.9093712939299643
1758278180257211100,180.3372111816406,0.9742167883217334,4.607381567251682,1.9987354846432803
1758278180267295500,180.34729541015625,0.845041542354226,4.600726201015711,2.1556080080926416
1758278180277380400,180.3573803710937,0.6983031671673059,4.130382479172945,2.3076639250405133
1758278180287464400,180.36746435546877,0.4967646227132529,3.396669560450315,2.461354457452893
1758278180297549300,180.37754931640623,0.3638969519685953,2.4846289500564334,2.475701839496195
1758278180307634400,180.3876345214844,0.3230675865173339,1.6100217059999704,2.383231645591557
1758278180317718300,180.39771826171875,0.3875970130404457,0.8137135071545839,2.26572988628298
1758278180327803400,180.40780346679688,0.5267185200154781,0.1028957263290882,2.14361887961328
1758278180337887200,180.41788720703124,0.5361573794901371,-0.5826584339022636,2.007215728218853
1758278180347972400,180.42797241210937,0.4523322643339633,-1.2028741527825593,1.800637216836214
1758278180358056200,180.43805615234376,0.5707330183088779,-1.5802011527538298,1.5824460090711712
1758278180368141300,180.4481413574219,0.6273311038434505,-1.9195166942387816,1.3667743829116223
1758278180378225400,180.4582253417969,0.5152747504591941,-2.285240350177884,1.10048886019364
1758278180388310300,180.4683103027344,0.3123217360973358,-2.587421800532937,0.9175017984092236
1758278180398394400,180.47839428710935,-0.0441910056377761,-2.975035801240802,0.564699583363533
1758278180408479200,180.48847924804687,-0.5083844064235687,-3.2252713757812974,0.224136379905045
1758278180418563300,180.49856323242187,-0.968172831982374,-3.4758173314452168,-0.3334850817658007
1758278180428648200,180.50864819335936,-1.360426767450571,-3.6115438987523314,-0.7913717653565109
1758278180438732300,180.5187321777344,-1.6601058795958756,-3.5358787091761825,-1.12657534147799
1758278180448817200,180.52881713867188,-1.9089280802071091,-3.315646643233299,-1.431312029273808
1758278180458901500,180.53890161132813,-2.196582992559671,-2.988023877629637,-1.855947892908752
1758278180468986400,180.548986328125,-2.424056115671992,-2.4129081141918896,-2.2447487653136253
1758278180479071500,180.55907153320317,-2.618589676734805,-1.4113649275273084,-2.516118897819519
1758278180489155300,180.5691552734375,-2.9528643014431,-0.0810913062781095,-2.5735014117300508
1758278180499240400,180.57924047851563,-3.206529265910387,1.5904297013014554,-2.188316099473834
1758278180509324300,180.58932421875,-3.1823961106508967,3.549901389309764,-1.3348223705947395
1758278180519409400,180.5994094238281,-3.198302704834938,4.910191963160038,-0.6832800778195262
1758278180529493200,180.6094931640625,-3.3751749370008706,4.848534840670228,-0.9205568020656704
1758278180539578000,180.619578125,-3.2691829982221123,3.923521935978532,-1.519732363265753
1758278180549662500,180.6296623535156,-2.3585855723738667,3.1713468933701514,-2.154853682594001
1758278180559747300,180.63974731445316,-1.0505804815560578,3.025881022337079,-2.8908161338090896
1758278180569831400,180.64983154296877,0.0049082303076982,3.266756647858024,-3.29660292006731
1758278180579916300,180.6599162597656,0.6083697982639074,3.5486768159508704,-3.389309845337272
1758278180590000400,180.6700004882813,0.585397503477335,3.65149480086863,-3.3368922603577373
1758278180600085200,180.6800852050781,0.1071633206456899,3.686052319508791,-3.287055339521169
1758278180610169300,180.69016943359372,-0.4127344134390354,3.8809155509173863,-3.230932470282912
1758278180620254200,180.70025415039063,-0.8196826446920633,4.433350695991516,-3.218332516428828
1758278180630338300,180.71033837890624,-1.0971702371649443,5.150991600835323,-3.111484253081679
1758278180640423400,180.72042333984376,-1.2338754402458667,5.517214438468217,-2.8111200812816617
1758278180650507300,180.7305073242188,-1.0012063559256494,5.262575660532713,-2.51505389893651
1758278180660592400,180.74059228515625,-0.2758931628882884,4.692183418485522,-2.3229881892919537
1758278180670677500,180.7506774902344,0.6857288592111319,3.922541692769528,-2.30646112512201
1758278180680761300,180.76076123046877,1.714259494587779,3.0205344006121155,-2.5795138038873677
1758278180690846200,180.77084619140624,2.64470962189734,2.2805881404578683,-3.209182995289564
1758278180700930300,180.78093041992187,3.171441585916281,1.9910475604891773,-3.873294846780598
1758278180711015200,180.7910151367188,3.0532875001788136,2.1743355049163102,-4.152002774828672
1758278180721099300,180.8010993652344,2.518556354099512,2.764582201990485,-3.82323522310406
1758278180731184000,180.81118408203125,1.8445441631019115,3.702848556008935,-3.1411200974106785
1758278180741268500,180.8212685546875,0.9629716831427066,4.654822532862425,-2.308328964820504
1758278180751353300,180.8313532714844,0.0865436533998697,5.256075777119398,-1.4754887323915955
1758278180761437400,180.8414375,-0.5676893397640437,5.34244005536437,-0.6667635350435972
1758278180771522300,180.85152221679687,-0.8500930535901338,4.854890931698679,-0.100441611175239
1758278180781606100,180.86160620117187,-0.8545172267079353,3.940638490474224,0.156395553587377
1758278180791691300,180.87169116210936,-0.7211404373973608,2.7579256667107344,0.2362587793752551
1758278180801775000,180.8817751464844,-0.8133078489631413,1.4874544799953695,0.296877206467092
1758278180811860200,180.89186010742188,-1.005765772795677,0.3353156581938266,0.4424494604840874
1758278180821944300,180.9019443359375,-1.202939546168968,-0.6556301466107368,0.635556788136065
1758278180832029400,180.9120295410156,-1.5012008274056017,-1.4810679938286542,0.7915928607612848
1758278180842113300,180.92211328125,-1.8386007445275785,-2.2023697592675684,0.9144619923219084
1758278180852198400,180.93219848632813,-2.177112568414211,-2.833302102473378,1.01083299305737
1758278180862282200,180.9422822265625,-2.478567458060384,-3.402216673183441,1.0894785136185583
1758278180872367400,180.95236743164065,-2.657139479881525,-3.901693550530076,1.2148078978128731
1758278180882452200,180.9624521484375,-2.692928586143255,-4.341514708337187,1.3757149374753237
1758278180892536300,180.97253637695312,-2.690349091044068,-4.669122860893607,1.5419402495510874
1758278180902621200,180.98262109375,-2.735942967483401,-4.856165773940086,1.7602052532047032
1758278180912705500,180.99270556640624,-2.7789199394226074,-4.891442839026451,1.95794871622473
1758278180922790400,181.00279028320315,-2.7434114036679267,-4.76572328647077,2.1284728945381937
1758278180932874200,181.01287426757813,-2.739593306684494,-4.499614435493946,2.224946917256713
1758278180942959400,181.02295947265625,-2.7341046461403367,-4.016325891882181,2.2315271724298595
1758278180953043200,181.03304321289065,-2.7176193752855062,-3.276369110333919,2.140592809790373
1758278180963128300,181.04312841796877,-2.66324714910686,-2.3444348819464444,1.939407243492454
1758278180973212200,181.05321215820317,-2.647341723966598,-1.2434452326238157,1.7203627798989414
1758278180983297300,181.06329736328124,-2.636193137964606,-0.1375736564785242,1.5155775816738604
1758278180993381400,181.07338134765624,-2.641423147572577,0.9101765700876712,1.3834341335505247
1758278181003466200,181.08346630859376,-2.448391515505313,1.8112363522619008,1.2282260361820458
1758278181013550300,181.0935502929688,-2.131634427309036,2.579669286710024,1.2527218872740864
1758278181023635500,181.10363549804688,-1.5908701385453343,3.0263018780976534,1.4247471178002655
1758278181033719300,181.11371923828125,-0.8631514918014407,3.01528597856462,1.4840541700325904
1758278181043804400,181.12380444335935,-0.1804588584810495,2.720338571116328,1.601611312790215
1758278181053888300,181.1338881835937,0.4598237891331315,2.4467969397902487,1.8371182508848607
1758278181063973000,181.1439731445313,0.8817232135415076,2.261217085033655,2.6458865567222234
1758278181074057200,181.15405712890623,0.9128472506016492,1.8831161780804395,3.499415649175644
1758278181084142300,181.1641423339844,0.8334709315478801,1.3089923482894896,3.990350323626399
1758278181094226400,181.1742263183594,0.7631058942064642,0.6443214016109705,4.35648606749773
1758278181104310800,181.18431079101563,0.5534767630815506,-0.0933329482138156,4.856291153885424
1758278181114395000,181.19439477539063,0.1410612063333392,-0.8196475733786821,5.214098337611556
1758278181124479700,181.20447973632807,-0.2246621573448181,-1.3045803770661353,5.664402310988307
1758278181134564900,181.21456494140625,-0.3646645022749901,-1.3163964870661495,5.896455747628211
1758278181144648700,181.22464868164064,-0.47982875854671,-0.8641583307564258,5.925713406294584
1758278181154733800,181.23473388671877,-0.7489408829927444,-0.2172188556015491,5.615634480687976
1758278181164818000,181.24481787109372,-0.9995850383341311,0.3824596866846084,4.969090726852417
1758278181174903000,181.25490307617187,-1.138769052618742,0.7124982812583446,3.9636049400419
1758278181184987000,181.26498681640624,-1.111994442939758,0.7446972540736198,2.798231081353128
1758278181195071700,181.27507177734373,-0.9694751467525958,0.4478115720391273,1.715204958744347
1758278181205155800,181.2851557617188,-0.7531465179890394,-0.1520522636860609,0.8137878144998103
1758278181215240700,181.29524072265625,-0.484672106924653,-0.9000134879916906,0.1508849004071205
1758278181225324800,181.30532470703125,-0.1163058275222778,-1.5091677146315574,-0.2075016906421631
1758278181235409700,181.31540966796877,0.4472080531880259,-1.7215911526501178,-0.2327738598689436
1758278181245494000,181.3254938964844,1.0512222865909338,-1.36964175504148,-0.1626720035083592
1758278181255579000,181.33557885742184,1.482774505485594,-0.494474539014697,-0.2165046794502064
1758278181265663000,181.3456630859375,1.644939290124178,0.6663666446805,-0.4689066747769713
1758278181275747800,181.3557478027344,1.5446201362848282,1.9107056112736465,-0.8553864838231354
1758278181285831700,181.36583178710936,1.3525205243706702,3.1395611775308847,-1.078692623449117
1758278181295916800,181.37591674804688,1.1212164447933437,4.045563676804304,-1.060893785777688
1758278181306000600,181.38600073242188,0.7613882766336202,4.466871272799373,-0.8197276528775691
1758278181316085800,181.39608569335937,0.3308782602682709,4.338420833975077,-0.4553329074546694
1758278181326169900,181.406169921875,-0.078671385654807,3.7520740669488895,0.0347533334732055
1758278181336254700,181.4162546386719,-0.4291711689770221,2.923279895040393,0.5915742924161255
1758278181346338800,181.4263388671875,-0.702851916512847,2.015626705950498,1.1124585533201694
1758278181356424000,181.436423828125,-0.7810664983108639,1.1114455768853426,1.622823173775524
1758278181366507800,181.4465078125,-0.7652922983348369,0.2419616671919822,2.0192505955360827
1758278181376593000,181.4565930175781,-0.6238739491268992,-0.5720452699512243,2.257218663047254
1758278181386676700,181.4666767578125,-0.4118172985941171,-1.2809113321870564,2.2933701728805898
1758278181396761900,181.47676196289063,-0.283838130543381,-1.9341671508818865,2.163609528240561
1758278181406846700,181.4868466796875,-0.2756010480739176,-2.454662850859761,1.9178589901596304
1758278181416930800,181.49693090820315,-0.3930114758372307,-2.911151650351286,1.5367989411398768
1758278181427015700,181.507015625,-0.61448214366436,-3.273979000326991,1.1963339373588562
1758278181437099800,181.5170998535156,-0.8853909422688185,-3.5058781231880185,0.9023746641650796
1758278181447185000,181.52718481445316,-1.2047792557515202,-3.608578619205952,0.61729837012887
1758278181457268700,181.5372687988281,-1.5245119987577198,-3.587038403049111,0.4048240787059068
1758278181467353900,181.54735375976563,-1.8559009850271044,-3.443968487241864,0.183622875469923
1758278181477437700,181.55743774414063,-2.219211442344636,-3.154890264087915,0.0289794262468814
1758278181487522800,181.5675227050781,-2.537169869154692,-2.6452731009989976,-0.1367909816682338
1758278181497606700,181.57760668945312,-2.917501311638951,-1.995129276844859,-0.3220867587864399
1758278181507691800,181.58769189453125,-3.2975609514445066,-1.226796880161762,-0.4619894427344203
1758278181517776000,181.59777587890625,-3.361085036849975,-0.4713911850690841,-0.3027984132096171
1758278181527861000,181.6078610839844,-2.924689177316427,0.2507581371098756,0.0675923577576875
1758278181537944800,181.61794482421877,-2.101054141736776,1.0258411770969629,0.2088315510064363
1758278181548030000,181.62803002929687,-1.2840205502487718,1.89206696177721,-0.1840600978434085
1758278181558113800,181.6381137695313,-0.7978954680368304,2.869491021707654,-0.8110434111624956
1758278181568199000,181.6481989746094,-0.4847667994707823,3.833881412541866,-1.2949082933574914
1758278181578282800,181.65828271484372,-0.6268798529446125,4.48246631681621,-1.6935680042147636
1758278181588367600,181.66836767578124,-1.3168591361418365,4.805608137613534,-2.091428673648834
1758278181598452000,181.67845190429688,-1.8182210965827104,4.952480952835082,-2.310923657488823
1758278181608536800,181.6885368652344,-1.8903987363040449,4.869983286890387,-2.4278221902072428
1758278181618621000,181.69862084960937,-1.5976044152364133,4.334254361945391,-2.85157484126687
1758278181628705800,181.7087058105469,-1.0121358923494814,3.394237364867329,-3.381119524618983
1758278181638790000,181.71878979492183,-0.6163152043104171,2.6220301725775004,-3.696011987987161
1758278181648874800,181.72887475585935,-0.7455974177837371,2.270699199128151,-3.7454695541173217
1758278181658958800,181.7389587402344,-0.9559288519591091,2.497553898081183,-3.563141979154944
1758278181669043700,181.74904370117187,-1.3050596850156784,3.2716035033673045,-3.2798838404566046
1758278181679127800,181.7591279296875,-1.6632503151014446,4.142240090227127,-2.918157729721069
1758278181689212700,181.7692126464844,-1.695687480586767,4.682871984782815,-2.526092010301352
1758278181699296800,181.779296875,-1.2174234871387482,4.819499300321937,-2.274829430800676
1758278181709382000,181.7893818359375,-0.320534853169322,4.781372106501459,-2.279735907542705
1758278181719465700,181.7994658203125,0.4271867171615361,4.885444475394487,-2.2970412626087664
1758278181729550800,181.80955078125,0.7085407758042216,5.232734649020433,-2.033742792877555
1758278181739634700,181.819634765625,0.8242571130007504,5.45456421328783,-1.4796429294615985
1758278181749719800,181.8297197265625,1.1649129631787538,4.858107555657625,-1.011947091779113
1758278181759803600,181.8398037109375,1.76673903888762,3.3705209737151858,-1.1808645655483008
1758278181769888800,181.849888671875,2.26023801086843,1.728728164923191,-1.890363957251608
1758278181779973600,181.8599736328125,2.4276591086000203,0.5164361954540014,-2.756266793587804
1758278181790058000,181.8700581054688,2.21603705009222,0.026952888855338,-3.5337472501054403
1758278181800142800,181.8801428222656,1.6771183891952035,0.3143605484485626,-4.035335420517623
1758278181810227000,181.89022705078125,0.9938160995438694,1.1297978106558322,-3.946846112942696
1758278181820311800,181.90031176757813,0.2005196497350931,2.144146702879667,-3.47639016289711
1758278181830395600,181.91039575195316,-0.4919488199293613,3.197468007576465,-2.842406323166192
1758278181840480800,181.92048071289065,-1.1899871986806392,3.9629000066429376,-2.0237121049895883
1758278181850564600,181.9305646972656,-1.9920517690956592,4.1742753969132895,-1.0896478788360953
1758278181860649700,181.9406496582031,-2.763953840959072,3.718381056183576,-0.1923290367558598
1758278181870733800,181.95073388671875,-3.38304610876739,2.709186477982998,0.4119024926595389
1758278181880819000,181.96081884765624,-3.672983286838233,1.4996008448630571,0.6200570211872458
1758278181890902800,181.97090283203124,-3.67558207115978,0.318110256370902,0.6324132294133306
1758278181900988000,181.9809877929688,-3.603973463498056,-0.740564099791646,0.5561109109774232
1758278181911071700,181.99107177734376,-3.481018991741538,-1.6980372585833072,0.4662245960861444
1758278181921156900,182.00115698242183,-3.3270690777406093,-2.459966802486777,0.3919237536657601
1758278181931240700,182.01124072265625,-3.208317902892828,-3.0546552814006804,0.4628402874100953
1758278181941325800,182.0213259277344,-3.1105498948410157,-3.5666777520656585,0.6944634428739548
1758278181951410000,182.03140991210935,-3.102342330726981,-3.9426147589832543,1.0772167056776585
1758278181961495000,182.0414951171875,-3.165990334773064,-4.119054444950819,1.5306399801187216
1758278181971579000,182.05157885742187,-3.1709716303169726,-4.184925385743379,1.885137893166393
1758278181981663700,182.06166381835936,-3.0331530591666698,-4.189447831603885,2.0043413418263194
1758278181991747800,182.0717478027344,-3.0027853934317825,-3.975235756602883,1.8824740807846188
1758278182001832700,182.08183276367188,-2.7716093241482973,-3.423708374023437,1.5611954235106706
1758278182011916800,182.09191674804688,-2.079663563183695,-2.615961666318774,1.10914212224856
1758278182022001700,182.1020017089844,-1.0567672073669732,-1.5431816279143094,0.7048224859334528
1758278182032086000,182.1120859375,0.1594493882000446,-0.4072515981137752,0.3612635347250849
1758278182042171000,182.1221708984375,1.2779548204690216,0.6592308014512062,0.4399546479936689
1758278182052255000,182.1322548828125,2.263114881478995,1.6024521475285292,0.9973757647868244
1758278182062339800,182.14233984375,3.104429073873162,2.458430678960681,1.963293438253552
1758278182072423700,182.1524235839844,3.1674855417668817,3.0903964568674565,3.1388933612719176
1758278182082508800,182.1625087890625,2.7713752231314777,3.1292209853023287,3.575742225269973
1758278182092592600,182.17259252929688,2.205151498940587,2.903048423394561,3.506792315423489
1758278182102678000,182.1826779785156,1.40144939045161,2.7696073366761205,3.701565530461073
1758278182112761900,182.1927619628906,0.6091673783823848,2.675990895345807,4.232786622592807
1758278182122847000,182.20284692382813,-0.1706444436922669,2.585230427968502,5.050533915308118
1758278182132931000,182.2129311523437,-0.7431856804668903,2.54370073222816,6.036496671003103
1758278182143016200,182.2230161132813,-1.20294780254066,2.206104269620776,6.578841799217463
1758278182153100000,182.23310009765623,-1.6085168543949722,1.500145619264245,6.770116650745273
1758278182163185200,182.24318505859372,-1.6087883648127317,0.6711784288764,6.7369695834249255
1758278182173269000,182.25326904296875,-1.194457622092962,0.1267173314213752,6.233088918161392
1758278182183354000,182.26335400390624,-0.8544906309619545,0.0770353088855743,5.547594379162788
1758278182193438000,182.27343798828124,-0.6906009222269058,0.5104810864418745,4.612372799667716
1758278182203523000,182.28352319335937,-0.8099415874004363,1.2677730336725712,3.5126167837932702
1758278182213607200,182.2936071777344,-1.1855588608443737,1.984786162006855,2.392615560008585
1758278182223692000,182.30369213867183,-1.3871639677286147,2.433706572070718,1.396084064026177
1758278182233776000,182.3137761230469,-1.56822780636549,2.583096923071146,0.7041811192899942
1758278182243861000,182.3238610839844,-1.7687965559393166,2.392862520506978,0.3404676341295242
1758278182253945000,182.33394506835936,-1.9342606743842363,1.9341636437505485,0.3303136121228337
1758278182264030000,182.34403002929687,-1.8836761500507595,1.3058330074757336,0.5160463193535805
1758278182274114000,182.35411401367188,-1.526561624763906,0.6360054086863994,0.8617562380507587
1758278182284199000,182.36419897460937,-1.034800144100189,-0.1138029047906398,1.2028341130331155
1758278182294283300,182.374283203125,-0.6021352877885103,-0.9094897568672896,1.5105039316713809
1758278182304368000,182.3843681640625,-0.1087900450646877,-1.6580810957700014,1.7783134490862489
1758278182314452200,182.3944521484375,0.4108218578159809,-2.1730320211023093,1.9769202509373425
1758278182324537000,182.404537109375,0.794015119472146,-2.2355121504127977,1.9959353325307367
1758278182334622200,182.4146223144531,1.0553381974771618,-1.7720774773061274,1.966861798259616
1758278182344706000,182.4247060546875,1.1274009786471724,-0.927706381559372,1.8250152867674827
1758278182354790000,182.43478979492187,0.9224871856063604,0.1361433314144611,1.5647949093073603
1758278182364875000,182.444875,0.4971189160436391,1.2490490439802409,1.2036921911671756
1758278182374959000,182.454958984375,-0.0015133271723985,2.2708786473482845,0.8818835186697542
1758278182385044200,182.46504418945312,-0.5099240370810032,3.108513712838292,0.6844912071749567
1758278182395129000,182.4751291503906,-0.9485634377576412,3.7316982183963057,0.6917077144250273
1758278182405213200,182.4852131347656,-1.3497325010873376,3.988075948953629,0.8306194876395165
1758278182415298000,182.49529809570316,-1.6959803260535,3.7257729200005527,0.9419028108246624
1758278182425382100,182.5053820800781,-1.8162386905938384,2.9466975955069064,1.0598476377256214
1758278182435467000,182.51546704101565,-1.6972586754262446,1.907824502879381,1.0746803190678358
1758278182445551000,182.52555102539063,-1.471293618789315,0.8176455859065055,0.925473800201714
1758278182455636000,182.5356359863281,-1.0837317135948688,-0.0826660082489252,0.6151463066615164
1758278182465720000,182.54571997070312,-0.7553430781852454,-0.7477391059875488,0.2142931408805772
1758278182475805000,182.55580493164064,-0.5895574727009981,-1.1829554003477096,-0.0766822759305126
1758278182485889000,182.56588891601564,-0.5747206631729379,-1.4634189398914574,-0.3028524266854859
1758278182495974100,182.5759741210937,-0.7175234890092164,-1.7203174794524907,-0.4521682694112882
1758278182506058000,182.58605810546877,-0.8220435286045074,-1.9113000700354572,-0.500879510686174
1758278182516143000,182.59614306640623,-0.9141828831195832,-2.084509688040614,-0.6146509974252432
1758278182526227000,182.60622705078129,-1.2288690102607012,-2.34119896876514,-0.8947403698943555
1758278182536312000,182.61631201171875,-1.5714461838901042,-2.4946494088113305,-1.173190231528133
1758278182546396000,182.62639599609372,-1.772013179898262,-2.5645664101243018,-1.5285178733982143
1758278182556481000,182.63648095703124,-1.9214643211752176,-2.543909406542778,-1.9304756028875707
1758278182566565000,182.64656518554688,-1.930823685672879,-2.368491464838385,-2.336252890665084
1758278182576650200,182.6566501464844,-1.939199884352088,-1.9353888016313316,-2.6888985999748107
1758278182586734000,182.66673413085937,-2.066422827208042,-1.328457511737943,-2.913449405899644
1758278182596819200,182.6768190917969,-2.3204427425928413,-0.4472141906678676,-2.837693030908704
1758278182606903000,182.6869030761719,-2.5151719723582264,0.5914478895574807,-2.3832807454302904
1758278182616988000,182.69698779296877,-2.5417759016454218,1.4843074141412973,-1.6081465597778557
1758278182627072000,182.7070720214844,-2.50451730735302,2.034010503903031,-1.1082055720508095
1758278182637156900,182.71715698242187,-2.360408111625909,2.3322838409036395,-1.4214724800437688
1758278182647241200,182.7272412109375,-2.0072902547597886,2.615081376352906,-2.187883261014521
1758278182657326000,182.737326171875,-1.5432880108982323,2.935142766791582,-2.704702902828157
1758278182667410200,182.74741015625,-1.221610417434573,2.8960359142839907,-2.9504724378705025
1758278182677495000,182.7574951171875,-0.8382647416956722,2.5410394040644166,-2.9720483098626134
1758278182687579100,182.7675791015625,-0.5018921217948198,2.1736855165749787,-3.0758751795619723
1758278182697664000,182.7776640625,-0.0528957238852977,1.7363287030547856,-3.446543306165933
1758278182707748000,182.787748046875,0.636670010074973,1.2222399475097656,-3.967434142941236
1758278182717833000,182.7978330078125,1.0671790035270154,1.0506506241828202,-4.179744183713198
1758278182727917000,182.8079169921875,0.8978792524419724,1.3658148902297018,-4.365506993821263
1758278182738002200,182.81800219726563,0.2785200042605399,2.2067034045577048,-4.537867301520705
1758278182748086000,182.8280859375,-0.6491467759408056,3.923706644895673,-4.008450628462434
1758278182758171100,182.8381711425781,-1.6825469901151957,6.202694364419579,-2.549843472766876
1758278182768255000,182.8482548828125,-2.3042821736477315,7.998956434911489,-0.7320610598623752
1758278182778340000,182.85834008789064,-2.277558563503623,8.48462106000483,0.7144926699459553
1758278182788424000,182.868423828125,-1.528807065603137,7.794243425139784,1.4942489624410866
1758278182798509000,182.87850903320316,-0.2315251749821007,6.248374750098586,1.5276847835749388
1758278182808593200,182.88859326171877,1.307436351019144,4.153633006379008,0.8135095090150832
1758278182818678000,182.8986779785156,2.7941338751673697,2.2373814514160157,-0.1917342857331037
1758278182828762000,182.9087622070313,3.731351596915722,0.9535779049187898,-1.0409800017789006
1758278182838847200,182.91884716796875,4.002904100251198,0.1388619427233934,-1.5887129605114458
1758278182848931000,182.92893115234372,3.960641414061188,-0.2604173613369465,-1.7731632267162205
1758278182859016000,182.93901586914063,3.5593069310367107,-0.2692214300394058,-1.7988652387276292
1758278182869100000,182.94910009765624,2.7204502147972582,0.2248720007032155,-1.7276286792486906
1758278182879185000,182.95918481445312,1.6571353393524884,1.15430798253417,-1.4086284883007407
1758278182889269000,182.9692690429688,0.564672914552316,2.157023135587573,-0.7040925642237067
1758278182899353900,182.9793537597656,-0.3470230471223592,2.827318936410546,0.2459600891783833
1758278182909438200,182.98943823242183,-0.8719463542841375,3.006341040086746,0.9793155727654697
1758278182919523000,182.99952319335935,-0.964173021756485,2.7001339874774217,1.4422174541696906
1758278182929607200,183.0096071777344,-0.9311696737557648,1.9093734858870504,1.605205245628953
1758278182939692000,183.01969213867187,-0.9148884010404348,0.6852706671148538,1.4466583592265845
1758278182949776100,183.02977612304687,-0.9805635269999504,-0.6885504194378852,1.192958615706861
1758278182959861000,183.0398610839844,-1.1757974183518438,-1.9753122312188147,1.0303180302500723
1758278182969944800,183.0499448242188,-1.344880238750577,-3.105534989288449,1.0298270318627356
1758278182980030000,183.06003002929688,-1.3865379447847603,-4.062806488028168,1.0534006535433231
1758278182990114000,183.07011401367188,-1.2566723784655331,-4.817705987164378,1.0779879823110996
1758278183000199200,183.08019921875,-1.1108978798747062,-5.312847465655207,1.0764072889909149
1758278183010283000,183.0902829589844,-0.953466334303096,-5.57448472417593,1.0562084044404327
1758278183020368100,183.1003681640625,-0.7885486707597971,-5.626268687427044,0.972301163958758
1758278183030452000,183.11045190429687,-0.623505481140688,-5.483483433780074,0.8811136302758008
1758278183040537000,183.120537109375,-0.4443646464556455,-5.100010770660639,0.7873757545229048
1758278183050621000,183.1306208496094,-0.3080089874647557,-4.551441068843007,0.5395822393722832
1758278183060706000,183.1407060546875,-0.1790912233896553,-3.8610014746576544,0.2009512095527723
1758278183070790100,183.1507900390625,-0.2071804227985441,-2.9943524961292742,-0.1788192745804786
1758278183080875300,183.1608752441406,-0.3331716319024562,-2.098120864763856,-0.595014532530494
1758278183090959000,183.170958984375,-0.5241479388751089,-1.1961340308725834,-0.7437688141170888
1758278183101044000,183.1810439453125,-0.5770202818848192,-0.362521645027399,-0.557441319330968
1758278183111128300,183.19112841796877,-0.5875076274991035,0.2764987275660038,-0.0491793337106704
1758278183121213400,183.20121337890623,-0.6111692197240889,0.7634890483051539,0.5893596851065754
1758278183131297300,183.2112973632813,-0.5042093126960099,1.1773761389106512,1.2765144124023615
1758278183141382400,183.22138232421875,-0.2374906592577695,1.5143454095304012,2.191843981339037
1758278183151466500,183.2314665527344,0.1756143410593271,1.802686550581455,3.544067860850692
1758278183161551400,183.24155126953124,0.8988063041590154,2.0313146889477967,5.071695361280441
1758278183171635500,183.25163549804688,1.6831053546503183,2.259853979986906,6.511935085636377
1758278183181720600,183.2617204589844,2.339767182396352,2.224312126484513,7.753702155914902
1758278183191804400,183.27180444335937,2.3565029208809136,1.595464188337326,8.238934819331766
1758278183201889500,183.2818896484375,1.7036188581079243,0.533649196061492,7.787031009542941
1758278183211973400,183.29197338867183,1.0681059091135858,-0.316858795005083,7.371406719881295
1758278183222058500,183.30205859375,0.7415481423929333,-0.5975017827689647,7.033911379560828
1758278183232142300,183.3121423339844,0.2776318232491612,-0.4379325675815343,6.052526014783978
1758278183242227200,183.32222729492187,-0.3674135087221861,-0.0505225650131702,4.7023958926811815
1758278183252311600,183.3323115234375,-0.7222498599439859,0.6233668763875961,3.073499390341341
1758278183262396400,183.342396484375,-0.9281133549250662,1.7331150017052888,0.9197665284708142
1758278183272480500,183.35248046875,-1.26513596316725,3.097553342884779,-1.542899011580646
1758278183282565400,183.3625654296875,-1.3857757282406091,4.134052107596397,-3.6329227868676175
1758278183292649500,183.3726494140625,-1.2437030067771673,4.38716469887793,-4.514472689668834
1758278183302734300,183.382734375,-1.011297395698726,3.8456577750533816,-3.920754809352755
1758278183312818400,183.392818359375,-0.864378110986948,2.877767851665616,-2.450538172145188
1758278183322903300,183.4029033203125,-0.6612199294418096,1.7571768452942371,-0.9056324969172476
1758278183332987600,183.4129875488281,-0.3456960363022983,0.7799369097590446,0.5286994646996259
1758278183343071500,183.4230715332031,-0.0155564655721187,-0.1108089836716651,1.7955604980938136
1758278183353156400,183.43315625,0.1842383770197629,-0.9049106123834848,2.794784740291536
1758278183363240400,183.44324047851563,0.3140701871998608,-1.3145137420594692,3.337750923013687
1758278183373325300,183.4533251953125,0.4714880695722997,-1.1529255882650613,3.319184754231572
1758278183383409400,183.46340942382807,0.5741342050544918,-0.5591162302732468,2.8653233806341887
1758278183393494300,183.4734943847656,0.531619005408138,0.1851098991572856,2.3132376335196194
1758278183403578600,183.48357861328125,0.3790190447114407,0.8581517838180065,1.899190383916348
1758278183413663500,183.49366357421877,0.2083246974628418,1.4449796123594043,1.6090787260614334
1758278183423747600,183.50374755859372,0.0179015673935413,1.8324720325142143,1.3686483600899575
1758278183433832400,183.5138325195313,-0.1727010108958929,2.1279712286263703,1.2082806149359793
1758278183443916300,183.52391625976563,-0.3137457044858485,2.4182237562566997,1.1818522614113989
1758278183454001400,183.53400146484373,-0.3615338030338287,2.4809943929463625,1.231430092920363
1758278183464085200,183.5440852050781,-0.3935539486834779,2.269683884605765,1.3699908607400952
1758278183474170400,183.55417041015625,-0.448856733710505,1.6684873389720916,1.4574682147935032
1758278183484254500,183.56425439453125,-0.4534054465234279,0.9670084643781184,1.4732482599884271
1758278183494339600,183.57433959960937,-0.4728916892925277,0.3195698075294494,1.3183908757537603
1758278183504423400,183.5844233398437,-0.4634160414714366,-0.3371101403951644,0.8986246639817953
1758278183514508500,183.5945085449219,-0.49976563116014,-0.9394254609256982,0.3877434723064303
1758278183524592400,183.60459228515623,-0.5414865020910278,-1.496473652753234,-0.1866413465082645
1758278183534677500,183.6146774902344,-0.5151853551426903,-1.930519734290242,-0.7045096205919981
1758278183544761300,183.62476123046875,-0.5643704610070214,-2.294645307382941,-1.1710741161569953
1758278183554846500,183.63484643554688,-0.6024064328800887,-2.620657715180516,-1.70138890709877
1758278183564930600,183.6449306640625,-0.7299871761977672,-2.8376480227231977,-2.176106313981116
1758278183575015400,183.65501538085937,-0.8244114267796278,-2.953380434271693,-2.5224969084188342
1758278183585099500,183.665099609375,-0.6685112554937601,-2.9131594830423597,-2.760399363347888
1758278183595184400,183.6751843261719,-0.6343799263764173,-2.7508009293973443,-2.9293855184391138
1758278183605268500,183.6852685546875,-0.8131570423156023,-2.5308032567322254,-3.037383828604221
1758278183615353300,183.6953532714844,-0.8553945209991186,-2.1780741069227454,-3.071228230538964
1758278183625437400,183.7054375,-1.0768945610512048,-1.7090981663018463,-3.087171941863
1758278183635522300,183.71552221679687,-1.411578278017044,-1.184933422422409,-3.1116444120794533
1758278183645606400,183.7256064453125,-1.5116700528413056,-0.6079004271864891,-3.14762641056478
1758278183655691300,183.73569116210936,-1.6188514936655758,0.0886643718808889,-3.087092739146948
1758278183665775600,183.74577563476564,-1.696354273932427,0.6823071411341428,-2.9781174006432294
1758278183675860500,183.75586059570315,-1.718904251653701,1.2551198883265255,-2.6771517558187243
1758278183685944300,183.7659443359375,-1.8297884925186636,1.7631459828317164,-2.127349297335744
1758278183696029400,183.7760295410156,-1.664748298574239,2.243703055652976,-1.5838327872544526
1758278183706113300,183.78611328125,-1.4054320303469896,2.7642706518232822,-1.2889444165170192
1758278183716198400,183.7961984863281,-1.2979307099185884,3.317871918067336,-1.291072660717368
1758278183726282200,183.8062822265625,-1.3109955048054456,3.675282503691316,-1.4829104068249463
1758278183736367400,183.81636743164063,-1.424817698818445,3.738967917138338,-1.7890952476024626
1758278183746451500,183.82645141601563,-1.361921536052972,3.485485323500633,-2.0316583878189323
1758278183756536600,183.83653662109376,-0.9551363864071668,3.064769263657927,-2.390460720062256
1758278183766620400,183.8466203613281,-0.2830938880473375,2.705594006448984,-2.8868980835825204
1758278183776705500,183.85670556640625,0.2627571293961256,2.414926468276977,-3.3139053525239226
1758278183786789400,183.8667893066406,0.6888163768976926,2.1448779397636653,-3.602726970568299
1758278183796874500,183.87687451171877,1.0269943657200782,2.130256709215045,-3.749628427362442
1758278183806958300,183.88695825195316,1.2255407426208258,2.3717045816659925,-3.8120658865749832
1758278183817043500,183.8970434570313,1.1624077023595571,3.054379971590638,-3.641059331572056
1758278183827127600,183.90712744140623,0.8598317727942019,4.278238460212946,-3.0111218446224925
1758278183837212400,183.91721240234372,0.5018740016162395,5.868720183962584,-1.9220815762907264
1758278183847296500,183.9272966308594,0.2055874545186758,7.398595755580067,-0.6843623200982809
1758278183857381400,183.93738134765624,0.0882798295427113,8.207396356251836,0.2148772609114646
1758278183867465500,183.94746557617188,0.5353513603368774,7.662002946382761,0.2629910112172365
1758278183877550300,183.9575502929688,1.2636369567811487,5.804055696350336,-0.7914812170803547
1758278183887634400,183.9676345214844,1.8461463376015423,3.889511529827118,-2.1984861958324906
1758278183897719300,183.97771923828125,1.9210814593374728,2.670582314300537,-3.402436745674908
1758278183907803600,183.9878037109375,1.5120786336421963,2.177819839900732,-4.34813032708466
1758278183917887500,183.99788745117183,0.9995341849297285,2.647556828022003,-4.783404781372845
1758278183927972400,184.00797241210935,0.132443307852745,3.721159873247146,-4.697699551558494
1758278183938056400,184.0180563964844,-0.5469704499274491,5.0934489279270165,-4.17249348193258
1758278183948141300,184.02814135742187,-1.4326146363049743,6.541091622015833,-3.121595312729477
1758278183958225400,184.03822534179687,-2.859707878839969,7.4190657121568915,-1.6187614772945642
1758278183968310300,184.0483103027344,-4.044963957345486,7.233012394669651,0.3277230111077427
1758278183978394600,184.05839453125,-4.35682158306241,6.282082958433032,2.09404733171463
1758278183988479500,184.0684794921875,-3.880244519788026,4.686173948937654,3.019683336740732
1758278183998563600,184.0785634765625,-2.67853999530673,2.8619080192327497,3.3031074796557425
1758278184008648400,184.0886484375,-1.9130828617990017,1.1114601899325849,3.278527749672532
1758278184018732500,184.0987326660156,-2.0886393351912496,-0.3745329853385686,3.377977134940028
1758278184028817400,184.1088173828125,-2.489903091067076,-1.6715426348894833,3.437305814482272
1758278184038901200,184.1189013671875,-2.4321067356586457,-2.883097522255778,3.276436622612178
1758278184048986400,184.128986328125,-2.17084766280055,-4.029952266174554,3.1798662999123333
1758278184059070500,184.13907055664063,-1.940583447664976,-4.957557525447011,3.366050550302863
1758278184069155300,184.1491552734375,-1.9011691366434096,-5.454799191087484,3.99154157923758
1758278184079239400,184.15923950195312,-1.8346107981085773,-5.596237121778726,4.769943534514308
1758278184089324500,184.1693244628906,-1.42066817792356,-5.494881026107072,5.324381251582503
1758278184099408400,184.1794084472656,-0.7767337298035621,-5.214513932675123,5.479569475206732
1758278184109494000,184.1894938964844,-0.2577695137092843,-4.775315875202417,5.2372606020122765
1758278184119577900,184.19957788085935,0.1745820023369044,-4.064205833432078,4.635679733236134
1758278184129663000,184.2096630859375,0.4198416881609708,-2.9808453643023967,3.8771544448181983
1758278184139746800,184.21974682617187,0.8555697314355521,-1.745942334574461,3.1512548301950094
1758278184149832000,184.22983203125,1.2084672966144978,-0.5652081174075603,2.374527530132234
1758278184159916000,184.239916015625,1.5119111681208013,0.2506640290856361,1.712357898750156
1758278184170001200,184.25000122070315,1.5308030617259445,0.5950953061491251,1.0025856814548373
1758278184180085000,184.2600849609375,0.9434294358700512,0.507874703335762,0.2277490174442529
1758278184190170000,184.2701701660156,0.119869365222752,0.3558732930541038,-0.101700013738498
1758278184200254000,184.28025390625,-0.6728951696664095,0.6594786387324333,0.241081304160878
1758278184210338800,184.2903388671875,-1.5104185914754866,1.3590841206699609,1.5110440298974512
1758278184220423000,184.3004228515625,-2.403629413715005,2.031599935629964,3.4337031138151883
1758278184230507800,184.3105078125,-3.0568185969144106,2.237220123374462,5.368011718994379
1758278184240592100,184.32059204101563,-3.0083991416603326,1.8545517623752357,6.630411827456951
1758278184250677000,184.33067700195312,-2.551544431465864,0.9336907166659832,7.171344750785827
1758278184260761000,184.3407609863281,-1.974707251062989,-0.2645049229115248,6.949069196316599
1758278184270846000,184.3508459472656,-1.3556880484908818,-1.0692951188981532,6.012613106590509
1758278184280930000,184.3609299316406,-1.0285065969139338,-1.097459137108922,4.96701450510025
1758278184291014000,184.3710139160156,-0.9612140988856552,-0.5351823969781399,3.9901097928687927
