time,seconds_elapsed,z,y,x
1759584994824646400,0.041646484375,0.09679390232264995,-0.049097500646114345,0.24356077295169232
1759584994834630400,0.05163037109375,0.11123860726058482,-0.004324877461791038,0.09181377582252025
1759584994844615400,0.061615478515625,-0.037246027071774004,-0.030151977157592772,-0.13311010119840502
1759584994854599400,0.071599365234375,-0.14058102160096167,-0.1362806940585375,-0.21210589650198816
1759584994864583400,0.08158349609375,-0.1582800521597266,-0.17822364677488803,-0.14013240105062721
1759584994874568400,0.091568359375,-0.1804781477034092,-0.19356851542294023,-0.13173939736708998
1759584994884552400,0.101552490234375,-0.25448943259268997,-0.11880115146934986,0.031656244240701195
1759584994894536400,0.111536376953125,-0.16095774693638085,0.04929740713238716,0.3320706849232316
1759584994904521500,0.121521484375,0.049638183394074435,0.15902502530813217,0.4796957798168063
1759584994914505500,0.13150537109375,0.1445937643736601,0.17993512686789034,0.33885596114918587
1759584994924489500,0.141489501953125,0.12327946592718363,0.09932488210499286,-0.010244330638647079
1759584994934473500,0.151473388671875,0.04511866014301777,0.056603930753469464,-0.3229549199230969
1759584994944458500,0.16145849609375,-0.02577975342273712,0.03415712114572525,-0.4877456691510975
1759584994954442500,0.1714423828125,-0.020771569871902464,0.041328035688400266,-0.5822992452010513
1759584994964426500,0.181426513671875,0.0810106422573328,-0.02660451380908489,-0.5032771464124322
1759584994974411500,0.19141162109375,0.13260960433036087,-0.11127484761774539,-0.1995677558377385
1759584994984395500,0.2013955078125,0.04625584747940301,-0.11363923866152763,0.07894041185453533
1759584994994379500,0.211379638671875,-0.06623422114700078,-0.10257657737731933,0.3368212404511869
1759584995004364500,0.221364501953125,-0.05211655620634555,-0.12415946363210677,0.3921072204738855
1759584995014348500,0.2313486328125,-0.003379705566167831,-0.08470131346881389,0.16076953088790177
1759584995024332500,0.24133251953125,0.012646131083369254,0.016296470284461975,-0.16540215912461279
1759584995034316500,0.251316650390625,-0.0651662996545434,0.017595277923345566,-0.4040437419831753
1759584995044301600,0.261301513671875,-0.13411270236968995,-0.08052490456700324,-0.44870413696467876
1759584995054285600,0.27128564453125,-0.1556242769539356,-0.11967325812876224,-0.2001313810698688
1759584995064269600,0.28126953125,-0.16516513549834488,-0.16570435694158075,0.2131573052510619
1759584995074254600,0.291254638671875,-0.14655658887922762,-0.12656243312060833,0.49174642922505735
1759584995084238600,0.301238525390625,-0.07657090624421835,-0.09606324996054172,0.5246174560829997
1759584995094222600,0.31122265625,-0.025392215409874914,-0.07882453038990497,0.38901422289460896
1759584995104207600,0.32120751953125,-0.05280424620956182,-0.044161213287711144,0.04463949832394719
1759584995114191600,0.331191650390625,-0.027272622328996656,-0.11514555157124995,-0.20399813950061796
1759584995124175600,0.341175537109375,-0.08463000179827213,-0.10615326682031154,-0.16880217682644724
1759584995134160600,0.35116064453125,-0.14801730908155442,-0.08469546824991703,0.02176642612814903
1759584995144144600,0.36114453125,-0.08080722863972187,-0.09666296941936016,0.20183044007271528
1759584995154128600,0.371128662109375,-0.023027239844202994,-0.04279284754395485,0.2828326067626476
1759584995164112600,0.381112548828125,-0.03410363739281892,-0.06348258435130119,0.2373430674806237
1759584995174097700,0.39109765625,-0.05329144520461559,-0.03212824566662311,0.06587474018484353
1759584995184081700,0.40108154296875,-0.0365925315991044,0.09835925194323063,-0.11982377251535653
1759584995194065700,0.411065673828125,0.0019007190547883509,0.08825111490488052,-0.29013810747042296
1759584995204050400,0.421050537109375,0.1060638349711895,-0.036087796947360036,-0.26314664017036554
1759584995214034400,0.431034423828125,0.07191752748042345,0.01617430520951748,0.0225857796870172
1759584995224018700,0.441018798828125,0.02121931363940239,0.00978197382390499,0.2227798507295549
1759584995234003500,0.45100341796875,-0.02462766077816486,-0.21438860061168669,0.15890344475507737
1759584995243987500,0.460987548828125,-0.003298457023501396,-0.22456337314546107,0.014288783723860977
1759584995253971500,0.470971435546875,0.06907587431371212,-0.11592471925020217,-0.137038818949461
1759584995263955700,0.480955810546875,0.0357844300866127,-0.01860240913927555,-0.17571604786813258
1759584995273940500,0.4909404296875,-0.06421586706191301,0.068994041249156,-0.10628025420084596
1759584995283924500,0.500924560546875,-0.08882628444433212,0.10871171913146972,0.08055880683660507
1759584995293908500,0.510908447265625,-0.07126023261547088,0.012724457016587257,0.2131877003893256
1759584995303893500,0.5208935546875,-0.12741115890443325,-0.15210779326558113,0.2831672455444932
1759584995313877500,0.53087744140625,-0.10953063429892063,-0.1519394509613514,0.29359307022988795
1759584995323861500,0.540861572265625,0.02488938045427203,-0.14986790538430214,0.16672157116010783
1759584995333846500,0.550846435546875,0.08276333114355802,-0.0963432359457016,0.0787511728927493
1759584995343830500,0.56083056640625,0.14544059046134353,0.057685880771279334,0.02467544544264674
1759584995353814500,0.570814453125,0.07910860802829266,-0.016573533660173414,-0.12736278971806167
1759584995363799600,0.580799560546875,-0.16471943755745888,-0.23400047905445098,-0.4678419681549072
1759584995373783600,0.590783447265625,-0.29616730463206764,-0.34917116506695745,-0.5811728715196252
1759584995383767600,0.600767578125,-0.1840016456544399,-0.23273382011950014,-0.29767347141131756
1759584995393751600,0.61075146484375,-0.08479425244927406,-0.06678980920314788,0.001728869619220495
1759584995403736600,0.620736572265625,-0.025509119787812232,0.1373375096350908,0.31902050308361646
1759584995413720600,0.630720458984375,0.018690671944618223,0.2466951254546642,0.48705403362512584
1759584995423704600,0.64070458984375,0.1196332183793187,0.05654080238938331,0.33350364033579827
1759584995433689600,0.650689697265625,0.03776595929265022,-0.012332827350497245,0.08445376844853163
1759584995443673600,0.660673583984375,-0.03648936348557472,0.08928981030285357,-0.07712152586430311
1759584995453657600,0.67065771484375,0.010951602125167846,0.08934650892615317,-0.21280907633528112
1759584995463642600,0.680642578125,0.06520341679453849,0.10037935959398746,-0.26911022474989293
1759584995473626600,0.690626708984375,-0.026844313914328812,0.1451414613842964,-0.3030254999637604
1759584995483610600,0.700610595703125,-0.04397708889245987,-0.08547872758209704,-0.3035134296111762
1759584995493594600,0.7105947265625,-0.02851473134458065,-0.2632166366666555,-0.07964139973074197
1759584995503579600,0.72057958984375,-0.09113704560473561,-0.14416940148174762,0.17774740756526589
1759584995513563600,0.730563720703125,-0.03448854505717754,0.009921674555540085,0.3715169985182583
1759584995523547600,0.740547607421875,0.1531546719700098,0.1031353803038597,0.3680876085914671
1759584995533532700,0.75053271484375,0.17542612501084803,0.12065759299099445,0.20974691228568554
1759584995543516700,0.7605166015625,-0.03497793600931763,0.021403438034653662,-0.05453326195925474
1759584995553500700,0.770500732421875,-0.2003939775288105,-0.1462222423583269,-0.2855046024508774
1759584995563485700,0.780485595703125,-0.25026129350364207,-0.20811317360401152,-0.31095716974586246
1759584995573469700,0.7904697265625,-0.13299407360330223,-0.22053192567229268,-0.16589695690423248
1759584995583453700,0.80045361328125,-0.01766249794065952,-0.16831541622281074,0.08402955168709159
1759584995593438700,0.810438720703125,0.04133884934335947,-0.08021978414058685,0.34972806829735636
1759584995603422700,0.820422607421875,0.0777162768870592,0.024507833790779112,0.5211342901423573
1759584995613406700,0.83040673828125,0.08067249634414911,0.1295826577246189,0.3971845237381756
1759584995623390700,0.840390625,0.04407236596047878,0.1488753872156143,0.07799217121899127
1759584995633375700,0.850375732421875,-0.0325906024813652,0.06145370887219905,-0.2053106834039092
1759584995643359700,0.86035986328125,-0.03492825164869427,-0.009288637349009513,-0.31133973932266235
1759584995653343700,0.87034375,0.002268529453873634,0.0306605112016201,-0.20450842711031436
1759584995663328800,0.880328857421875,0.05959989769905805,0.11202537372410297,0.0062358256496489045
1759584995673312800,0.890312744140625,-0.030422026270627973,0.042964112457633014,0.020959932050853967
1759584995683296800,0.900296875,-0.11903685992136596,-0.2632633984178305,-0.15023206252157686
1759584995693281500,0.910281494140625,-0.12041633158102631,-0.2787906378954649,-0.13592515861913562
1759584995703265800,0.920265869140625,-0.044928836659342046,-0.08774784155786038,0.04823723055496812
1759584995713249800,0.930249755859375,0.06479585890695452,-0.005446574968099594,0.19461568638831375
1759584995723234600,0.940234619140625,0.12986731988489628,0.00801087249815464,0.2145049204677343
1759584995733218600,0.950218505859375,0.12508593082726002,-0.012491817304491996,0.16075097231790422
1759584995743202600,0.96020263671875,0.013047405360639095,-0.012743746238946915,0.11867737895920873
1759584995753186800,0.970186767578125,-0.08106500279307365,0.019230185648798942,0.039816169820725916
1759584995763171600,0.980171630859375,-0.18867285233587025,-0.050853404402732845,-0.09236337252929806
1759584995773155600,0.990155517578125,-0.13972937320768833,-0.05337327826917171,-0.11616013544127345
1759584995783139600,1.0001396484375,-0.027272622328996656,0.052798693251609796,0.011886983279138803
1759584995793124600,1.01012451171875,0.038331776481866836,0.09980769718587398,0.10999605985358357
1759584995803108600,1.020108642578125,0.07044862397164106,0.10037234533131122,0.023923165770620106
1759584995813092600,1.030092529296875,-0.036001579968631264,-0.0385860435038805,-0.2879400129042566
1759584995823077600,1.04007763671875,-0.06966244203001261,-0.26898352963030336,-0.36702524005696174
1759584995833061600,1.0500615234375,-0.07522460620179772,-0.2407131284356117,-0.2030661193475127
1759584995843045600,1.060045654296875,-0.04385463155657053,-0.16215455550551414,-0.1404272923439741
1759584995853030700,1.07003076171875,-0.07421645207256078,-0.014115619114041328,0.1657492189966142
1759584995863014700,1.0800146484375,0.06351356401145458,0.19220014967918395,0.657836132222414
1759584995872998700,1.08999853515625,0.1806301233947277,0.06913900267779827,0.6716862322680651
1759584995882982400,1.099982421875,0.0492943383924663,-0.046264907568693156,0.2753594944030046
1759584995892967700,1.1099677734375,-0.11534954971075058,-0.028898762226104734,-0.1651300641849637
1759584995902951400,1.119951416015625,-0.103505967181921,-0.005176525855064392,-0.38057840298265216
1759584995912935400,1.129935302734375,-0.0780301651418209,0.05523205787837505,-0.2542242057852447
1759584995922920700,1.139920654296875,-0.03402940311282873,0.06327683264613151,-0.04112827533259988
1759584995932904400,1.149904541015625,-0.07422171276956796,-0.03122515934705734,0.21965280475020407
1759584995942888400,1.159888427734375,-0.14611293676495551,-0.1663818178117275,0.3874805835865438
1759584995952873700,1.169873779296875,-0.1473030233323574,-0.16025018318891524,0.43874066909402604
1759584995962857500,1.179857421875,-0.026984745298326014,-0.06677694972157477,0.3032099166199565
1759584995972841500,1.189841552734375,0.06811009802147745,0.008543371939659119,0.08793328112736344
1759584995982825500,1.199825439453125,0.05178104064166546,0.06571253536045552,-0.1242034489043057
1759584995992810500,1.209810546875,0.012229074715077877,0.04946808752417564,-0.27117387928143144
1759584996002794500,1.21979443359375,-0.09148249804154038,-0.05915186167061329,-0.3502909628771245
1759584996012778500,1.229778564453125,-0.14287833875790237,-0.1468102713793516,-0.2281739648580551
1759584996022763500,1.239763427734375,-0.1357705525793135,-0.0661877516567707,0.07868819065913557
1759584996032747500,1.24974755859375,-0.047010319108515976,-0.0076899699807167045,0.3365811480849981
1759584996042731500,1.2597314453125,0.03965966408476233,0.058958969447016715,0.35343759033977984
1759584996052716500,1.269716552734375,0.03349471171423793,0.10749766716659069,0.1514364698752761
1759584996062700500,1.279700439453125,-0.10566811365187168,-0.015099953976273535,-0.13762714023143052
1759584996072684500,1.2896845703125,-0.20580679635778068,-0.1276356153100729,-0.26172099128141996
1759584996082669600,1.299669677734375,-0.23634397344067692,-0.03182487880587578,-0.04981587804853916
1759584996092653600,1.309653564453125,-0.15927666198164223,0.055792029848694795,0.18808453105390072
1759584996102637600,1.319637451171875,-0.041146980033069845,0.05259060345888138,0.32161884901374577
1759584996112622600,1.32962255859375,0.020027473506331443,0.007609305959939956,0.18899433937519788
1759584996122606600,1.339606689453125,-0.014931903932988643,-0.036377135282754894,-0.030941666230559346
1759584996132590600,1.349590576171875,-0.042164194251596926,-0.022926117557287216,-0.1626141358412802
1759584996142574600,1.35957470703125,-0.08170183939188719,0.004913491004705429,-0.1854968526482582
1759584996152559600,1.3695595703125,-0.07773103606477379,0.017099603360891343,-0.06301964301466942
1759584996162543600,1.379543701171875,-0.047939855043590066,0.022082067948579788,0.11836845914050936
1759584996172527600,1.389527587890625,-0.07174597030580043,0.027910920232534407,0.35631197673231363
1759584996182512600,1.3995126953125,-0.08312602697610855,-0.011863456273078919,0.4942763860940933
1759584996192496600,1.40949658203125,-0.1491162102341652,-0.10242693977355956,0.3001803396657109
1759584996202480600,1.419480712890625,-0.18862638284564018,-0.22899521811306475,-0.052739072018861764
1759584996212465400,1.42946533203125,-0.06104395902752876,-0.1943810008496046,-0.229050747692585
1759584996222449700,1.43944970703125,0.015316811597347258,-0.03623626550734043,-0.16497034357860682
1759584996232433700,1.44943359375,0.017084113530814647,0.0870277105897665,0.016402122616022825
1759584996242417700,1.459417724609375,-0.034125703094154594,0.08192658805847168,0.1109596441887319
1759584996252402400,1.46940234375,-0.04457973096072673,-0.012926701590418815,0.06642477528303861
1759584996262386700,1.47938671875,-0.07728840686380863,-0.05882686749994755,0.08371946282461284
1759584996272370700,1.48937060546875,-0.11622983967661857,0.002230535531044006,0.14668796017393468
1759584996282355500,1.49935546875,-0.07331044314354658,0.04504267229735851,0.2048361977599561
1759584996292339500,1.50933935546875,-0.008348726150393485,0.051071431067585944,0.17129282459840178
1759584996302323500,1.519323486328125,0.007836392714083195,0.03731763100326061,0.12360869788154959
1759584996312308500,1.52930859375,-0.00044452889710664746,0.02740530879795551,0.07158318095952272
1759584996322292500,1.53929248046875,-0.06815174520611762,-0.02142097369134426,-0.06194865278229117
1759584996332276500,1.5492763671875,-0.23293226530104874,-0.1887339348733425,-0.3210895644426346
1759584996342261500,1.559261474609375,-0.27169863380789755,-0.23767829078435895,-0.31407384046167136
1759584996352245500,1.56924560546875,-0.17058453019857406,-0.06578033989965916,0.09076397450864314
1759584996362229500,1.5792294921875,-0.04140197770744562,0.10294950234293937,0.3163317023910582
1759584996372214500,1.589214599609375,0.049686114189028734,0.1440571732789278,0.3200149209484458
1759584996382198500,1.599198486328125,0.041428573453426355,0.04136076891422272,0.14417422378733755
1759584996392182500,1.6091826171875,0.02851502360552549,-0.01980067901313305,-0.064294192995131
1759584996402166500,1.61916650390625,-0.03537000406682491,-0.02324702007472515,-0.12786153302043676
1759584996412151600,1.629151611328125,-0.06910407749488949,-0.08377952244877815,-0.11623992267921567
1759584996422135600,1.639135498046875,-0.06986921664848923,-0.10485036752820015,-0.008954290828108787
1759584996432119800,1.649119873046875,-0.04335705729797482,-0.053798810204863545,0.15654665249586106
1759584996442104800,1.659104736328125,-0.04026332906633615,-0.00794423700273037,0.20187135660499334
1759584996452088800,1.6690888671875,-0.13155673427656292,-0.07463467748463154,0.03815525087118148
1759584996462072800,1.67907275390625,-0.15879530820548535,-0.11081892054378986,-0.18582535395026206
1759584996472057900,1.689057861328125,-0.09922916664555669,0.04077916963398456,-0.22587957031056283
1759584996482041900,1.699041748046875,-0.042040129480510946,0.025399229672551153,-0.1405992879100144
1759584996492025900,1.70902587890625,-0.06874269683659076,0.02885843021571636,0.01134600827023387
1759584996502009900,1.719009765625,-0.0291746565580368,0.038110827207565305,0.17757906526103615
1759584996511995000,1.728994873046875,0.05084975114092231,0.05338146157562732,0.2719650296591222
1759584996521979000,1.738978759765625,0.03859071967899799,0.06456745697855949,0.2340985326014459
1759584996531963000,1.748962890625,-0.02809153749644756,0.05767945103049278,0.06619549657180905
1759584996541948000,1.758947998046875,-0.09387889165878295,0.026374796706438063,-0.026736177364736793
1759584996551932000,1.768931884765625,-0.10711714341640471,-0.03339081294834614,0.010595336033403872
1759584996561916000,1.778916015625,-0.08837854067683219,-0.04758066634237766,0.14358414893969892
1759584996571901000,1.78890087890625,-0.08823650185763836,-0.05548106420338154,0.29624636121764775
1759584996581885000,1.798885009765625,-0.09965922862589359,-0.12511807953119278,0.2602776606053114
1759584996591869000,1.808868896484375,-0.13241408175826072,-0.18457038545310497,-0.0027630349725484846
1759584996601854000,1.81885400390625,-0.09377601580619811,-0.11115618967413901,-0.2141698432944715
1759584996611838000,1.828837890625,-0.025033903491497037,-0.02208382151424885,-0.24212372588589787
1759584996621822000,1.838822021484375,-0.06846095728576183,0.10891396370530128,-0.11298062862232326
1759584996631806000,1.848805908203125,-0.0403939697086811,0.1034971993535757,0.010720862109214066
1759584996641791000,1.858791015625,-0.0014797171637415884,-0.0030406828701496124,0.06551569761410356
1759584996651775000,1.86877490234375,-0.030851065337657926,-0.04503331994712353,0.06932941068336367
1759584996661759000,1.878759033203125,-0.10214403117895125,-0.013676058652997015,-0.0032619244053959844
1759584996671743700,1.88874365234375,-0.07675006220340728,0.004272270491719246,-0.0848174871943891
1759584996681728000,1.89872802734375,-0.05040770646184683,0.04863514383137226,-0.06478373007774353
1759584996691712000,1.9087119140625,-0.080659636862576,0.03357669090926647,0.026443185767531394
1759584996701696800,1.91869677734375,-0.12411065605431794,-0.03177110279202461,0.04316606477051973
1759584996711680800,1.9286806640625,-0.13169921148717403,-0.07226210313439368,0.06599909721687436
1759584996721665000,1.9386650390625,-0.06650880030468106,-0.019409049347043038,0.11496288848072289
1759584996731649800,1.94864990234375,-0.0003391688264906406,0.05056640415489674,0.0982477543927729
1759584996741633800,1.9586337890625,0.006821224322170019,0.06861760915219783,0.03508402673229575
1759584996751617800,1.96861767578125,-0.01791442687511444,0.0328565599411726,-0.02670826644450426
1759584996761601800,1.978601806640625,-0.02766366747319698,0.02771685896515846,-0.06722586253285408
1759584996771586800,1.9885869140625,-0.09280936273112893,-0.07897124538421631,-0.169340667617321
1759584996781570800,1.99857080078125,-0.14500614456683397,-0.1340308693051338,-0.1697645921178162
1759584996791554800,2.008554931640625,-0.15118541772365568,-0.06650923869609833,0.031061200957000254
1759584996801539800,2.018539794921875,-0.05957914717197418,-0.0010258359163999556,0.21776713713407514
1759584996811523800,2.02852392578125,0.03861760768592357,0.025064883151650428,0.30229090207889675
1759584996821507600,2.038507568359375,0.09109949007332324,0.06706219640374184,0.23093422335162758
1759584996831492900,2.048492919921875,0.038245267242193216,0.031284780579805375,0.023086714946478605
1759584996841476900,2.058476806640625,-0.037815059131383895,-0.0511427427381277,-0.2112178616210818
1759584996851460600,2.068460693359375,-0.1262409460812807,-0.058199090990424154,-0.2254487776778638
1759584996861446000,2.07844580078125,-0.12256722600460052,-0.06638590457737445,-0.04543342518061399
1759584996871430000,2.088429931640625,-0.027082652714848516,-0.030536592561006545,0.11018807529434561
1759584996881413600,2.09841357421875,0.06366437065899372,-0.02990589344203472,0.12313187415003776
1759584996891397600,2.108397705078125,0.025877953100204465,-0.08339724513292313,0.014699702612310647
1759584996901383000,2.1183828125,-0.049584407380223273,-0.05914601645171642,-0.0434318760998547
1759584996911366700,2.12836669921875,-0.06723360744789242,-0.03229658797085285,-0.11286752363666891
1759584996921350700,2.1383505859375,-0.030754326964914796,0.07034428681433201,0.004498480463027954
1759584996931335700,2.148335693359375,-0.008998860622197388,0.08547288236320018,0.13705124003961683
1759584996941319700,2.158319580078125,-0.018477029193937778,-0.014255319845676422,0.15867869608849286
1759584996951303700,2.1683037109375,-0.03410334513187408,-0.07319207746088505,0.09115618869662284
1759584996961288700,2.178288818359375,0.015320903250575064,-0.1621346817612648,-0.0026132512383162973
1759584996971272700,2.188272705078125,0.04289163174331188,-0.14783669181764125,-0.11605959767624735
1759584996981256700,2.198256591796875,0.04093436019569635,-0.03677694825530052,-0.18982699080705642
1759584996991241700,2.20824169921875,0.041862288695573804,0.014364625439047813,-0.17763707905858753
1759584997001225700,2.218225830078125,0.009002221623063087,0.04487725260257721,-0.08907835950925946
1759584997011209700,2.228209716796875,-0.021949673740565775,0.04006956005990505,0.0419945367731154
1759584997021193700,2.23819384765625,-0.04983604405373335,0.01158405480980873,0.17176336471959947
1759584997031178800,2.2481787109375,-0.03691255733370781,0.0032891046732664107,0.1812754355609417
1759584997041162800,2.258162841796875,-0.034516309846937654,-0.10960019240379333,-0.03529167813360691
1759584997051146800,2.268146728515625,-0.050329234398156404,-0.19364801039993762,-0.21951368854045866
1759584997061131800,2.2781318359375,-0.050747021418809886,-0.09817629659175872,-0.18010916826054452
1759584997071115800,2.28811572265625,-0.023090368208289146,-0.001654196947813034,-0.038755554851889605
1759584997081099800,2.298099853515625,0.040076282061636444,0.018077508482336996,0.07734305966049432
1759584997091084800,2.308084716796875,0.05684402311965823,0.05509001905918121,0.2261670089498162
1759584997101068800,2.31806884765625,0.10283245183452963,0.1457698224157095,0.42394262067377564
1759584997111052800,2.328052734375,0.04388678026050329,0.02671615749001503,0.24915800843685865
1759584997121037800,2.338037841796875,-0.09232143308371304,-0.10188917963504791,-0.07086480355709791
1759584997131021800,2.348021728515625,-0.13147329377681016,-0.18634090225696562,-0.33257775766253467
1759584997141005800,2.358005859375,-0.0991813819810748,-0.13038345271348953,-0.3144191467680037
1759584997150989800,2.36798974609375,-0.1270962477363646,-0.12767828540802,-0.2842440809957683
1759584997160974800,2.377974853515625,-0.10564444051533937,0.0516962849676609,-0.04675079138949513
1759584997170958800,2.387958740234375,0.06998480585217476,0.26095395243167874,0.41376682522669433
1759584997180942800,2.39794287109375,0.15511165125668047,0.17672376360595224,0.5658749107532203
1759584997190927600,2.407927734375,0.05073913037329912,0.03194938196837902,0.42702056681439277
1759584997200912000,2.417911865234375,-0.022343933755159376,0.005579261437058449,0.24603417732790112
1759584997210896000,2.427895751953125,-0.030903380046784876,-0.15089841747581959,-0.03293137874305248
1759584997220880600,2.437880615234375,-0.05848316862881183,-0.2410398761719465,-0.2533952076151967
1759584997230864600,2.44786474609375,-0.09192454272061586,-0.13668869033753872,-0.2428220834136009
1759584997240849000,2.457848876953125,-0.06026961365416646,-0.013558569753170012,-0.06443330920487642
1759584997250833700,2.467833740234375,-0.011187748968601226,0.00012684125006198882,-0.020892858164012432
1759584997260817700,2.477817626953125,-0.10617869352251291,-0.08170271617472172,-0.12962459717020391
1759584997270801700,2.4878017578125,-0.16352467481493949,-0.09241174171566963,-0.16038111609220504
1759584997280786700,2.49778662109375,-0.16760054595172405,-0.04257306731343269,-0.04011003820076585
1759584997290770700,2.507770751953125,-0.11430880848616361,0.03588555237352848,0.11086232129409909
1759584997300754700,2.517754638671875,-0.04976648594886064,0.04614040440618992,0.22018311223462222
1759584997310738700,2.52773876953125,0.004020049296319484,-0.02464519643485546,0.2783000778995454
1759584997320723700,2.5377236328125,-0.028198066610842943,-0.025231471890211105,0.2973142827101052
1759584997330707700,2.547707763671875,-0.07867664635181426,0.004741641569137573,0.21883198988661168
1759584997340691700,2.557691650390625,-0.12013693011775613,0.00044949733316898343,-0.005252659831196069
1759584997350676700,2.5676767578125,-0.08824190868511796,-0.023617022430896757,-0.20280980649888514
1759584997360660700,2.57766064453125,-0.11977028876245022,0.019379823252558707,-0.19394816239029167
1759584997370644700,2.587644775390625,-0.10111658782735466,0.049208559805154796,-0.07065043015405535
1759584997380629800,2.597629638671875,-0.040767040804773565,-0.010876198801398276,0.06320332901850342
1759584997390613800,2.60761376953125,-0.022877017718553543,-0.08612520879209042,0.21457491696402428
1759584997400597800,2.61759765625,-0.023012042275071143,-0.08429916240870952,0.29922216215804215
1759584997410582800,2.627582763671875,-0.02087853737771511,-0.021151509100198744,0.32387071959376335
1759584997420566800,2.63756689453125,-0.01607873588055372,0.017085574835538863,0.21457126370221374
1759584997430550800,2.64755078125,-0.05656330648213625,-0.020708441507816314,-0.0358181862257421
1759584997440534800,2.65753466796875,-0.10546426164284348,-0.10446984377801417,-0.33400779046565293
1759584997450519800,2.667519775390625,-0.1407951027430594,-0.08881517852842807,-0.3441508526869118
1759584997460503800,2.67750390625,-0.10211495121493935,-0.07605448115468025,-0.0761008045144379
1759584997470487800,2.68748779296875,-0.07128434414342046,-0.07945172237753868,0.1591189872018993
1759584997480472800,2.697472900390625,-0.0680807257965207,-0.0998982980787754,0.25661110092177986
1759584997490456800,2.707456787109375,0.009629705871641636,0.0987783541381359,0.33884368618950245
1759584997500440800,2.71744091796875,0.056925417792797084,0.15767653330862522,0.23627412307485937
1759584997510425900,2.72742578125,-0.07981412594914436,-0.07680676082670689,-0.06759075032249093
1759584997520409900,2.737409912109375,-0.19256664490401743,-0.13821721507906912,-0.3050321636110544
1759584997530393900,2.747393798828125,-0.17160919707119465,-0.11980009937882423,-0.22482187795117495
1759584997540379000,2.75737890625,-0.04097688416317105,-0.09258242210745811,-0.0824289846226573
1759584997550363000,2.76736279296875,0.013899930536746978,-0.0519751019090414,0.0806859403476119
1759584997560346600,2.7773466796875,-0.027039982616901395,-0.057549687170982355,0.153412592253834
1759584997570330600,2.78733056640625,0.02444996612370014,0.04310381318926811,0.19857699123471975
1759584997580316000,2.79731591796875,0.05483575203716755,0.13969780902564524,0.15322729881480335
1759584997590299600,2.807299560546875,-0.06760711693540215,0.02841185549199581,-0.1219784663312137
1759584997600283600,2.81728369140625,-0.07202376433387399,-0.02364040330648422,-0.20271657525748013
1759584997610269000,2.82726904296875,0.07783142769932747,-0.07670388497412205,-0.03540288342311978
1759584997620252700,2.837252685546875,-0.08725129021257162,-0.10245499682426452,0.11104922216832637
1759584997630236700,2.847236572265625,-0.04773410333842039,0.0009223755419254302,0.07244009004980326
1759584997640222000,2.857221923828125,0.006566372778266668,-0.037948330122232435,0.038752486111968756
1759584997650205700,2.867205810546875,-0.04249649494588375,-0.051122284471988674,-0.09049684800505638
1759584997660189700,2.877189697265625,-0.0882347482919693,-0.03336100233197212,-0.13708324261307717
1759584997670174700,2.8871748046875,-0.08260667927712202,-0.045993104889988895,-0.11521101802289485
1759584997680158700,2.89715869140625,-0.07680559178292751,-0.07063304062783718,-0.06742649967148899
1759584997690142700,2.907142822265625,0.03635784606039524,0.062353872582316394,0.22851138011887667
1759584997700127700,2.917127685546875,0.10213204848021268,0.012329320219159126,0.3944482306420803
1759584997710111700,2.92711181640625,-0.03170695151463151,-0.07086158868670463,0.24020415600016712
1759584997720095700,2.937095703125,-0.10211538960635662,-0.11433657327592373,-0.00981207670122385
1759584997730079700,2.947079833984375,-0.056665013290941715,-0.060899582120776174,-0.09103957657963037
1759584997740064500,2.957064453125,-0.016489947029948233,0.0549117398828268,-0.06938114087060093
1759584997750048500,2.967048583984375,0.04576338778734207,0.10178747282624244,-0.07214914427921175
1759584997760032800,2.97703271484375,0.034872575938701626,0.0454699577987194,-0.11299334197342395
1759584997770017500,2.987017578125,-0.02689092953503132,-0.0389870255202055,-0.08985811171010136
1759584997780001500,2.99700146484375,-0.060063715818524356,-0.0892798734307289,0.03657733402997255
1759584997789985500,3.006985595703125,-0.04821691841930151,-0.06845745015442371,0.18138780989423392
1759584997799970600,3.016970458984375,-0.055852235603332516,-0.02628127320408821,0.23890666353553533
1759584997809954600,3.02695458984375,-0.04116670764684677,-0.020071312648057938,0.18235373231694102
1759584997819938600,3.0369384765625,-0.03186696438193321,0.047559039032459255,0.07342252521589399
1759584997829923600,3.046923583984375,0.049936874079704284,0.08301847494840621,-0.029297260024398565
1759584997839907600,3.056907470703125,0.07273147421181202,0.03739361884891987,-0.15601751405522227
1759584997849891600,3.0668916015625,0.05037701906263828,-0.035409167033433914,-0.21633447398245334
1759584997859876600,3.076876708984375,0.009161211577057838,-0.0764355894267559,-0.12251403451263904
1759584997869860600,3.086860595703125,0.010633037695288658,-0.04635492393970489,0.055743514531850814
1759584997879844600,3.0968447265625,0.01888940938711166,-0.050524903100728984,0.13089125610515476
1759584997889828600,3.10682861328125,-0.008172785061597824,-0.0329477453559637,0.17786752681359647
1759584997899813600,3.116813720703125,0.0161690445125103,0.07352817754745483,0.16024536088332533
1759584997909797600,3.126797607421875,0.05758592752814293,0.14343524198830127,0.032920126696676016
1759584997919781600,3.13678173828125,0.07103577620983123,0.1294569855183363,-0.12927899860292671
1759584997929766700,3.1467666015625,0.05792553474605083,0.16141396627128124,-0.15994374758824706
1759584997939750700,3.156750732421875,0.07501695480048656,0.15003741673231125,-0.06679492376968264
1759584997949734700,3.166734619140625,0.10712620350569486,0.10077157378196716,0.03862301451340318
1759584997959719700,3.1767197265625,0.09546090015321969,0.04382452867925167,0.08679580153003334
1759584997969703700,3.18670361328125,0.09028408203721046,0.02615793908536434,0.1159364096879959
1759584997979687700,3.196687744140625,0.05787745782062411,-0.019957915401458737,0.11514379800558089
1759584997989672700,3.206672607421875,0.010122165563702584,-0.06075228260457515,0.07937471161857247
1759584997999656700,3.21665673828125,-0.010405220288783311,-0.050584524333477016,0.041569150967895985
1759584998009640700,3.226640625,-0.0012935469418764113,0.006719079121947288,0.06499357343614101
1759584998019624700,3.236624755859375,-0.004565846610814332,0.03560615091025829,0.13211217620223759
1759584998029609700,3.246609619140625,-0.08526186996102332,0.0561842440366745,0.15326353917196392
1759584998039593700,3.25659375,-0.04384323337972164,-0.02986439238786697,0.09579451602175831
1759584998049577700,3.26657763671875,-0.011712649625539778,-0.006641337710618972,0.10818068099468946
1759584998059562800,3.276562744140625,0.03651902797147631,0.03947159416675567,0.08476926413848995
1759584998069546800,3.286546630859375,0.012564590279757976,-0.09173544988930225,-0.022267945909500122
1759584998079530800,3.29653076171875,-0.06006488486230373,0.029182839864492414,0.036712650847435
1759584998089515800,3.306515869140625,-0.04021276792287826,0.15844342602789402,0.1859700231179595
1759584998099499800,3.316499755859375,0.07325169869363307,0.3160679368883371,0.19118030511215328
1759584998109483800,3.32648388671875,0.17396218993812798,0.4374824857264757,0.12430500958263874
1759584998119468800,3.33646875,0.25312340493649244,0.4781108487129211,-0.021449615263938904
1759584998129452800,3.346452880859375,0.22673779457509516,0.4442255302459001,-0.11336918954849243
1759584998139436800,3.356436767578125,0.23293694147616623,0.24635844084620476,-0.12361059757769106
1759584998149421600,3.366421630859375,0.1245201136380434,0.06325520533621311,-0.13881459645032881
1759584998159405800,3.37640576171875,0.11964929273128509,-0.09764379715025424,-0.02184709014892578
1759584998169389800,3.386389892578125,0.1661339805305004,-0.30181846226155756,0.07533551923036574
1759584998179373800,3.396373779296875,0.19518354940414429,-0.5285077415198087,0.1548985199626535
1759584998189358600,3.406358642578125,0.2246411145567894,-0.8232125723838806,0.3349209597878158
1759584998199342800,3.4163427734375,0.13558102135658262,-1.2098054133504628,0.4336495565000921
1759584998209326800,3.426326904296875,0.028901538705080745,-1.6164935323625802,0.32775333318077027
1759584998219311600,3.4363115234375,0.11884966678619384,-2.1252865195870396,0.24010661390982566
1759584998229295600,3.446295654296875,0.143495447742939,-2.614599145793915,0.2347695637308061
1759584998239279900,3.45627978515625,0.16406053525730965,-2.996216536435485,0.35002317878641187
1759584998249264600,3.4662646484375,0.024071122873947023,-3.2263439734488726,0.5222173361387104
1759584998259248600,3.47624853515625,-0.024788842689245937,-3.5133500665038824,0.7128023057062178
1759584998269232600,3.486232666015625,-0.04896839437372982,-3.6296214072346684,0.8783876393780111
1759584998279217700,3.4962177734375,0.1063069230120629,-3.7160681030660867,0.8467804949760437
1759584998289201700,3.50620166015625,0.4012104913186282,-3.895672975066304,0.5413723376594484
1759584998299185700,3.516185546875,0.7488193755049258,-4.164660596349835,0.18189152163267133
1759584998309170700,3.526170654296875,0.953739817482233,-4.5677357855617995,-0.24502236993685364
1759584998319154700,3.53615478515625,0.9429986432373523,-5.055884628686308,-0.5354294305417686
1759584998329138700,3.546138671875,0.7775427080988884,-5.649527397939562,-0.6849837399322539
1759584998339122700,3.556122802734375,0.6458797369688749,-6.214711549949645,-0.6742104169834405
1759584998349107700,3.566107666015625,0.4338046739965677,-6.741106244838237,-0.5431637876534834
1759584998359091700,3.576091796875,0.2652583716273308,-7.21289139766097,-0.4553513929594308
1759584998369075700,3.58607568359375,0.01622751496778801,-7.486426599246263,-0.32153296082857996
1759584998379060700,3.596060791015625,-0.25396186505462975,-7.732026915201544,-0.14099804143663494
1759584998389044700,3.606044677734375,-0.5394914558162912,-7.909684744787215,0.17084809477189555
1759584998399028700,3.61602880859375,-0.8421300388216972,-7.954697021946311,0.6260499049264937
1759584998409013800,3.626013671875,-0.9866729497909545,-7.902748808044195,1.0044954605989158
1759584998418997800,3.635997802734375,-0.9567991319876163,-7.62166333720982,1.223077786573395
1759584998428981800,3.645981689453125,-0.9131598236821591,-7.127016948759556,1.1584880446977912
1759584998438967000,3.655967041015625,-0.9866774798355996,-6.983771091863512,0.5648062586084008
1759584998448951000,3.665950927734375,-0.9527755024947225,-6.894214155057072,-0.07472960749277845
1759584998458935000,3.67593505859375,-1.2388719333589076,-6.327417891675234,-0.18765629570446907
1759584998468920000,3.685920166015625,-1.9964906283259392,-5.8223968242049216,0.0277913855060935
1759584998478904000,3.695904052734375,-2.6674106985270973,-4.909281278055906,0.8198793363079429
1759584998488888000,3.70588818359375,-3.454371223312616,-3.470742512398958,1.871178049135953
1759584998498872000,3.7158720703125,-3.759816643899679,-1.9591946246325969,2.5322215990975496
1759584998508857000,3.725857177734375,-3.649385261368751,-0.7225602410674095,2.2369071119025348
1759584998518841000,3.735841064453125,-3.345087841773033,0.11506897920370102,1.3868559246927499
1759584998528825000,3.7458251953125,-2.9820646769642827,0.4014233303517103,0.3305705825585872
1759584998538810000,3.75581005859375,-2.964559415411949,0.19705109684169292,-0.5595373052295297
1759584998548794000,3.765794189453125,-3.4479438206136224,0.13107377306520937,-0.767648652202636
1759584998558778000,3.775778076171875,-3.8680888025701043,0.17313246111571787,-0.40305516933724284
1759584998568763100,3.78576318359375,-4.247340633124113,0.7563005981057882,0.368084101460129
1759584998578747100,3.7957470703125,-4.368769502748549,1.7736884196341036,1.756976500416547
1759584998588731000,3.80573095703125,-4.226567017425596,2.8662486787855626,3.3492660042405125
1759584998598716000,3.8157158203125,-4.169635462152958,3.7669425502568483,3.8194548277825113
1759584998608700200,3.8257001953125,-4.24674909697175,4.314964555063844,2.9087469272971154
1759584998618684000,3.835683837890625,-4.083381366284192,4.6251773361831905,1.74749672440961
1759584998628669000,3.8456689453125,-3.3025302642896768,4.299592213886976,0.7769820054762065
1759584998638653000,3.85565283203125,-2.4968600705981254,3.4794846217811104,-0.0009712561849504708
1759584998648637000,3.865636962890625,-2.1784404560171065,2.680078456920385,-0.21939554205350575
1759584998658621000,3.875620849609375,-2.208746893084049,2.3806676403224465,0.21334720179997382
1759584998668606000,3.88560595703125,-2.497470311450958,2.8845927292495963,1.1807425466038286
1759584998678589700,3.895589599609375,-2.9121237102538347,3.743296301731467,2.1570690205559133
1759584998688574000,3.905573974609375,-3.1105437573611736,4.680879934182763,2.6817431752622127
1759584998698559000,3.91555908203125,-3.261882319819927,5.392153057560324,2.3400468761205673
1759584998708542700,3.925542724609375,-3.680244510012865,5.996071137112379,1.7502385704636574
1759584998718526700,3.935526611328125,-3.688659287136793,5.9981894444406025,1.3346294783711432
1759584998728511700,3.94551171875,-3.5465070706963537,5.3184261425703765,1.1078851079247891
1759584998738495700,3.955495849609375,-3.793731772983074,4.3700136575907464,1.1030728122722357
1759584998748479700,3.965479736328125,-4.082770248648524,3.989924791690707,1.3495622590869665
1759584998758464800,3.97546484375,-4.212003946805,4.318125649443268,2.043588333456963
1759584998768448800,3.98544873046875,-4.162364886628091,4.6637838379532095,2.5947911602571607
1759584998778432800,3.995432861328125,-3.7625644813030954,4.870028295075893,2.8007880723595617
1759584998788416800,4.005416748046875,-3.5150352431118486,4.451746184381842,2.4034300917506215
1759584998798401800,4.01540185546875,-3.565117078620195,3.587159399080276,1.4092955739073454
1759584998808385800,4.0253857421875,-3.402711178702116,2.541436294427514,0.6595683628425002
1759584998818369800,4.035369873046875,-2.3443828594982623,2.0028812061458825,0.6159390644744038
1759584998828354800,4.045354736328125,-0.1599837873376906,3.077729867517948,1.330581079763174
1759584998838338800,4.0553388671875,2.966132948338985,5.728822468450665,2.0328440904721616
1759584998848322800,4.06532275390625,5.713727190649509,9.646222122156619,3.082852909620106
1759584998858307800,4.075307861328125,6.007069500988721,13.548721728372573,3.3870082903966305
1759584998868291800,4.085291748046875,3.273188142210245,13.964216254174708,2.0565648655384776
1759584998878275800,4.09527587890625,-0.0403635745704174,11.750650562632083,0.13897490157857537
1759584998888260900,4.1052607421875,-2.0975357583522793,7.2307859507918355,-2.267892032752931
1759584998898244900,4.115244873046875,-3.8010266061663627,2.988713613459468,-4.120861786633729
1759584998908228900,4.125228759765625,-4.264007690286636,0.25178631111383437,-5.15439176466763
1759584998918214000,4.1352138671875,-2.5312802265942094,-3.037091567659378,-5.54990382514894
1759584998928198000,4.145197998046875,0.1666192067641765,-5.5952878582298755,-4.422364314813912
1759584998938182000,4.155181884765625,2.121446210771799,-6.663586951828003,-2.4552213615253566
1759584998948166000,4.165165771484375,1.9720260491549968,-7.071864385858178,-0.5452606138022617
1759584998958151000,4.17515087890625,1.058571480309963,-7.2508449884802095,1.3198437049105762
1759584998968135000,4.185135009765625,0.3033645591923967,-6.4362131974369285,3.208945971663296
1759584998978119000,4.195118896484375,0.1696411118686199,-5.076275674808025,4.562818202903866
1759584998988104000,4.20510400390625,0.6135071611523628,-3.435574168384075,4.819702713939547
1759584998998088000,4.215087890625,1.1077999138593673,-1.7100725642919539,4.648819785316288
1759584999008072000,4.225072021484375,1.6811457450151444,-0.20683950040638446,4.160425442998111
1759584999018057000,4.235056884765625,1.7512953860402105,1.0117834256500005,3.1996140796944497
1759584999028041000,4.245041015625,1.0822452013641595,2.2526298739522694,2.049673352459073
1759584999038025000,4.25502490234375,0.5555289463710039,3.3173259746223684,0.5933786384243518
1759584999048010000,4.265010009765625,0.7780582564055919,3.809259596982598,-1.1441864014923573
1759584999057994000,4.274993896484375,1.5848083542883395,3.236300134795904,-2.6809379963591695
1759584999067978000,4.28497802734375,1.9850116413258014,2.087512376987934,-3.539071367737651
1759584999077962800,4.294962646484375,1.5872545783966778,0.8664122471630573,-3.4096985533714292
1759584999087947000,4.304947021484375,1.234663960275054,-0.5020183785229921,-2.7927427130699156
1759584999097931000,4.314930908203125,1.0096189410924912,-1.8145161045849323,-2.3226428829856216
1759584999107915000,4.3249150390625,0.8340291499525309,-2.887392589101195,-1.877764587919414
1759584999117899800,4.334899658203125,0.7748071456551552,-3.541961243960261,-1.1891065433885901
1759584999127884000,4.344884033203125,1.4652520005375147,-3.0163480548381805,0.03031776217855513
1759584999137868000,4.354867919921875,2.350646011546254,-2.2626444874882696,0.7247806935958564
1759584999147852800,4.364852783203125,2.570744806498289,-1.6726152325570582,0.8080556275233626
1759584999157836800,4.3748369140625,2.4995190606743094,-1.1876251457244158,0.6343183323822915
1759584999167821000,4.384821044921875,2.4676252082854506,-0.80585051869452,0.3196013717114925
1759584999177805800,4.394805908203125,2.4831436799347397,-0.21710838096439838,-0.2190069811273366
1759584999187789800,4.404789794921875,2.7061598236382007,0.4627274016201496,-0.8608391962710767
1759584999197773800,4.41477392578125,3.167729871916771,1.0281225660324096,-1.475931069331616
1759584999207758800,4.4247587890625,3.4975551160007714,1.185091827854514,-2.2713988718301055
1759584999217742800,4.434742919921875,3.506806051687896,0.7599275564312934,-3.171267398393154
1759584999227726800,4.444726806640625,3.006085604020953,-0.1929027449905872,-3.7223829853013157
1759584999237712000,4.4547119140625,2.3974068859383464,-0.859361159607768,-3.366688555945456
1759584999247696000,4.46469580078125,2.1518764203488825,-1.1231956359118223,-2.556453246295452
1759584999257680000,4.474679931640625,2.1656758131206035,-1.0556599767774344,-1.6559065282098948
1759584999267664000,4.484663818359375,2.1989158194214102,-0.7394862414270639,-0.8760859383068978
1759584999277649000,4.49464892578125,2.0981948067829013,-0.4880652564942837,-0.5921363102130591
1759584999287633000,4.5046328125,1.998900319816172,-0.39134441940784453,-0.7618789827600121
1759584999297617000,4.514616943359375,1.9291054835781454,-0.34635260051488875,-0.8894399253986776
1759584999307602000,4.524601806640625,1.7639128755509852,-0.3857213188290596,-0.9415646649114787
1759584999317586000,4.5345859375,1.703354654213786,-0.6194768832117319,-1.0172909370251
1759584999327570000,4.54456982421875,1.6619140980616212,-0.7488029358267784,-1.015783016680181
1759584999337555000,4.554554931640625,1.6963775086775421,-0.7547130366533994,-0.883279795333743
1759584999347539000,4.5645390625,1.7761130164325236,-0.7090221295803785,-0.6819007522903382
1759584999357523000,4.57452294921875,1.7838962176546453,-0.7274480131089687,-0.5175184377327561
1759584999367508000,4.584508056640625,1.4828224362805484,-0.9017734834015368,-0.5241206124767661
1759584999377492000,4.594491943359375,1.2119172909379006,-1.115629584571719,-0.689153353767097
1759584999387476000,4.60447607421875,1.046016534641385,-1.3018056516557932,-0.894095934510976
1759584999397461000,4.6144609375,1.0070850387006998,-1.47988199891448,-0.8748479209445417
1759584999407445000,4.624445068359375,0.869965555730462,-1.537093247911334,-0.7278346743389964
1759584999417429000,4.634428955078125,0.7643453728735446,-1.5311334627240896,-0.5568377639472484
1759584999427414000,4.6444140625,0.6338108212515712,-1.3967074566215276,-0.1419029178544879
1759584999437397800,4.654397705078125,0.49991760685145853,-1.1331734245687723,0.22615794886052606
1759584999447381800,4.6643818359375,0.3028144875615835,-0.746867583850026,0.3423204223893583
1759584999457365800,4.67436572265625,0.07874737350046634,-0.32352176002562044,0.28196868340969083
1759584999467350800,4.684350830078125,0.04745031796097755,-0.0013373860836029053,0.09156871502026916
1759584999477334800,4.694334716796875,0.11753332349061965,0.1513549290716648,-0.13791647856682537
1759584999487318800,4.70431884765625,0.05218085361421108,0.11671323927938937,-0.20705665028840303
1759584999497303800,4.7143037109375,0.004293897801637649,0.029362872606515884,-0.18588132192119955
1759584999507287800,4.724287841796875,-0.03197393188774585,-0.07335223645865917,-0.05935206041783094
1759584999517271800,4.734271728515625,-0.02867021416723728,-0.1661252127021551,0.06875044175162912
1759584999527256800,4.7442568359375,-0.06583353139162063,-0.25893209121525285,0.17117796604707836
1759584999537240800,4.75424072265625,0.003145312288403511,-0.3702583767592907,0.300829158963263
1759584999547224800,4.764224853515625,0.00933452231734991,-0.18558453093171118,0.30675781835988164
1759584999557209900,4.7742099609375,-0.23985797291100025,0.3171411190778017,0.13090659980475902
1759584999567193900,4.78419384765625,-0.3056622782081365,0.5280442156612872,0.011059884805232286
1759584999577177900,4.794177734375,-0.2043202110618353,0.5488648853719235,-0.017438772187381983
1759584999587162600,4.80416259765625,-0.22701310438513755,0.4122580280989408,0.11082958806827664
1759584999597146600,4.814146728515625,-0.3967360493183136,0.17086977688074112,0.28425884017348285
1759584999607131000,4.824130859375,-0.4886643914312124,-0.02983575081527233,0.29761107369959355
1759584999617115000,4.834114990234375,-0.44988224083334205,-0.1309597912967205,0.25780907853469254
1759584999627099600,4.844099609375,-0.34336452461481093,-0.12489186955988406,0.13990516816601156
1759584999637083600,4.854083740234375,-0.17987082946002483,-0.03256196090877056,-0.03117094494178891
1759584999647068000,4.86406787109375,-0.12284779651165008,-0.07645429412722587,-0.39719504513218995
1759584999657052700,4.874052734375,-0.05027326642721891,-0.1507581322222948,-0.7912953391194343
1759584999667036700,4.88403662109375,-0.03526420560479164,0.032224691778421403,-0.7991206259176135
1759584999677020700,4.894020751953125,-0.05333762243390083,0.15553835223615167,-0.49895358412489293
1759584999687005700,4.904005615234375,-0.14395166707783938,0.14495733698904514,-0.16155366700291632
1759584999696989700,4.91398974609375,-0.30928485261946914,0.12651333328187464,0.10265490331053734
1759584999706973700,4.9239736328125,-0.34550738186240193,0.008704699981212616,0.169973850954324
1759584999716958700,4.933958740234375,-0.1809358283430338,0.0012269114464521407,0.09181889038905501
1759584999726942700,4.943942626953125,-0.1559820043504238,0.1382102008163929,-0.0782151663199067
1759584999736926700,4.9539267578125,-0.06679623894393444,0.26912030775249,-0.3961645330406725
1759584999746911700,4.963911865234375,0.043940848535299296,0.2948375173330307,-0.6353437299072742
1759584999756895700,4.973895751953125,0.057410278700292104,0.2704085939973593,-0.5598829768620431
1759584999766879700,4.983879638671875,0.05486527039259672,0.2257686572819948,-0.25784239628240463
1759584999776863500,4.993863525390625,-0.08682838862538338,0.16787059506475924,0.14066256240457295
1759584999786848800,5.003848876953125,-0.25395956349968907,0.02923661587834358,0.45479237083718177
1759584999796832500,5.01383251953125,-0.18349603421986102,-0.04741173951625824,0.5807514312371611
1759584999806816500,5.02381640625,0.06813362502753734,-0.11069850903451442,0.5539126702807843
1759584999816801800,5.0338017578125,0.3308537103489041,-0.2565864048719406,0.25891207134053107
1759584999826785500,5.04378564453125,0.5269628501653671,-0.3737251760870218,-0.09495295063108206
1759584999836769500,5.05376953125,0.3980237510412931,-0.4808294600218534,-0.43164325817897914
1759584999846754800,5.0637548828125,0.09090776689350605,-0.6624228754907846,-0.6924873204953969
1759584999856738600,5.073738525390625,-0.05027618903666734,-0.6353191799879073,-0.45680341839864846
1759584999866722600,5.08372265625,0.04866144731640815,-0.48792964741587636,0.11527999160587787
1759584999876707800,5.093707763671875,0.14108780207931995,-0.2849111666023731,0.559968170927465
1759584999886691600,5.103691650390625,0.136085756008327,-0.11619535288512706,0.6382409126535058
1759584999896675600,5.113675537109375,0.16557313177734612,-0.09724866035282612,0.4424599818781018
1759584999906660900,5.123660888671875,0.05925678334981203,-0.1145376488059759,0.10398103734776377
1759584999916644600,5.13364453125,0.09879062909781933,0.012512860092520712,-0.11790624845623969
1759584999926628600,5.143628662109375,0.044833997982740396,0.11888064644634723,-0.20093305284157395
1759584999936614000,5.15361376953125,0.023079846814274788,-0.01878361092507839,-0.21713877610266208
1759584999946597600,5.16359765625,0.07009791083782911,-0.12094517776072025,-0.05869681137949228
1759584999956581600,5.17358154296875,0.02638970201462507,-0.14290508063435553,0.16161138853952287
1759584999966565600,5.183565673828125,0.09372750048935413,-0.08026420780420303,0.2510286246143281
1759584999976550700,5.193550537109375,0.0789253604158759,-0.04970891054272651,0.21201953339278698
1759584999986534700,5.20353466796875,0.04627659800648689,0.02993102788329124,0.1677440460756421
1759584999996518700,5.2135185546875,0.028608547107875346,-0.0017284312278032302,0.03923164793103933
1759585000006503700,5.223503662109375,0.0002066284880042076,-0.10654665005207062,-0.13227715750560165
1759585000016487700,5.23348779296875,-0.02752425900250673,-0.09714753806591034,-0.1906895989857614
1759585000026471700,5.2434716796875,-0.014039923529326915,-0.09841711961030959,-0.06901508403718472
1759585000036456700,5.253456787109375,-0.019763269612193105,-0.0962339303523302,0.22471812531575558
1759585000046440700,5.263440673828125,-0.058116088882088655,-0.1284188746422529,0.6105958037503063
1759585000056424700,5.2734248046875,-0.14867840333878993,-0.2502209614932537,0.8695126973964273
1759585000066409500,5.283409423828125,-0.27055413994789124,-0.34838965930044646,0.8519780636191367
1759585000076393700,5.293393798828125,-0.20053543182611464,-0.2708826412498951,0.5356033988691866
1759585000086377700,5.303377685546875,-0.15311170961111784,-0.037869419667124746,0.03314005305767059
1759585000096362500,5.313362548828125,-0.16977321381568908,0.16572656877338884,-0.3521463814854622
1759585000106346500,5.323346435546875,-0.15394348426014184,0.24224632935225962,-0.48169689050614833
1759585000116330500,5.33333056640625,-0.09054624010473489,0.24173662626445291,-0.2864524046950042
1759585000126314800,5.343314697265625,-0.06063304013907909,0.25866964088678357,0.07498860548883676
1759585000136299500,5.353299560546875,-0.05728723684251308,0.17922843990325926,0.3229468827471137
1759585000146283500,5.363283447265625,-0.006698036333918571,0.06709785223901271,0.39582039577811956
1759585000156267500,5.373267578125,0.07084931372702122,0.0032277298748493192,0.34297830177620053
1759585000166252500,5.38325244140625,0.04814005379080772,0.034737551382184026,0.16931743287220596
1759585000176236500,5.393236572265625,-0.004191314209997654,0.0874415520876646,-0.094809450507164
1759585000186220500,5.403220458984375,0.035030981370806694,0.15602759705781935,-0.27950550816655156
1759585000196205600,5.41320556640625,0.12344488562196493,0.14940145691633225,-0.37300913677215575
1759585000206189600,5.423189453125,0.12090426122844218,0.03302724033296108,-0.3164497758127749
1759585000216173600,5.433173583984375,0.10307985072433948,0.00795768100619316,-0.19114523379877207
1759585000226158600,5.44315869140625,0.09887655381560324,-0.03127192109823227,-0.004995908591151237
1759585000236142600,5.453142578125,0.10043372012972832,-0.1265109951943159,0.10286197018995881
1759585000246126600,5.463126708984375,0.08246843985021114,-0.1747258677870035,0.14948548193797467
1759585000256111600,5.473111572265625,0.05783581063598394,-0.15364859296679495,0.03110723205581307
1759585000266095600,5.483095703125,0.08663958805501461,-0.0031026421904563903,-0.17171835653409362
1759585000276079600,5.49307958984375,0.08739537485837937,0.08081541194617747,-0.3437716441109776
1759585000286064600,5.503064697265625,0.0683621730864048,0.02091302416920662,-0.2834435782678425
1759585000296048600,5.513048583984375,-0.08031506120860576,0.05232406147718429,-0.04815627427324652
1759585000306032600,5.52303271484375,-0.1167600010305643,-0.04085457295775413,0.15646116616949438
1759585000316016600,5.5330166015625,-0.08318389464318751,-0.16132921059727667,0.38741175613403317
1759585000326001700,5.543001708984375,-0.061198857328295705,-0.18162556417286396,0.538423570856452
1759585000335985700,5.552985595703125,-0.03617372166514397,-0.22733049977123737,0.5013622527018189
1759585000345969700,5.5629697265625,-0.04461012609899044,-0.1903162356287241,0.3398074166551232
1759585000355954700,5.57295458984375,-0.05774667104780674,-0.13478782515227794,0.1400660578161478
1759585000365938700,5.582938720703125,-0.054421033756434915,-0.24106734870076177,-0.2725974823437631
1759585000375922700,5.592922607421875,-0.09318769452422856,-0.133282681286335,-0.4324848235696554
1759585000385907700,5.60290771484375,-0.03520166176259518,0.043619946017861365,-0.23907749005779622
1759585000395891700,5.6128916015625,-0.02101180836856365,0.062087330600619314,-0.023651509222388265
1759585000405875700,5.622875732421875,-0.06562485707700252,0.06558978576362133,0.21779884744659064
1759585000415860700,5.63286083984375,-0.1582563790231943,0.046157940062880515,0.35877222936600445
1759585000425844700,5.6428447265625,-0.16105214722156524,-0.025310382345318794,0.28527123208642
1759585000435828500,5.652828369140625,-0.14128420143425463,-0.05688917743563652,0.14249869179055094
1759585000445813500,5.6628134765625,-0.12208382640182971,-0.05156359849870205,0.007573503994196653
1759585000455797500,5.672797607421875,-0.11526450177580118,-0.07076397353112697,-0.012004326048493384
1759585000465781500,5.682781494140625,-0.13770546616464852,-0.01479483354985714,0.01032704048603773
1759585000475765500,5.692765625,-0.15456395424604416,0.05359305849969387,-0.025458558644354343
1759585000485750500,5.70275048828125,-0.011655366480350494,0.08489186760485172,-0.12827858938872813
1759585000495734500,5.712734619140625,0.07137421438395977,0.13824644117355345,-0.16616846732199192
1759585000505718500,5.722718505859375,0.036249124988913535,0.17731179262697697,-0.12619053106829523
1759585000515703600,5.73270361328125,-0.008148235142230988,0.1405886203855276,-0.042254649014025925
1759585000525687600,5.7426875,-0.028319793294370173,0.0643143590003252,0.007660013233870267
1759585000535671600,5.752671630859375,-0.06366174031049013,-0.033146482798457146,0.09362564755007624
1759585000545656300,5.76265625,-0.061707683633267875,-0.11660451820790767,0.16246727471649647
1759585000555640600,5.772640625,-0.07999445095211268,-0.15621230597496033,0.19960998754426837
1759585000565624600,5.78262451171875,-0.06822393365949392,-0.21180852099061012,0.20322320960536597
1759585000575609300,5.792609375,-0.09818243407160043,-0.1862374418824911,0.15680618021488188
1759585000585593300,5.80259326171875,-0.06649199530035257,-0.0424199225783348,0.09885463424474
1759585000595577600,5.81257763671875,-0.008886486288905144,0.05152151292264461,0.08955942102447152
1759585000605562400,5.822562255859375,-0.02788812387883663,0.07416939806044101,0.12771116476431488
1759585000615546400,5.83254638671875,-0.048341713842749594,0.05124269598126411,0.06806070592179894
1759585000625530400,5.8425302734375,-0.10565525417029857,-0.0856289497077465,-0.049116789868474
1759585000635515400,5.852515380859375,-0.11579963156580925,-0.20123685809373854,-0.1388422151096165
1759585000645499400,5.86249951171875,-0.0766360804349184,-0.12621581164002418,-0.055220805831998586
1759585000655483400,5.8724833984375,-0.024993571481108662,-0.034650457620620724,0.010725830545276403
1759585000665467400,5.88246728515625,0.004375730866193771,-0.02470306410193443,0.04940247494205832
1759585000675452400,5.892452392578125,-0.012246902632713318,0.01530804376900196,0.16541005017012356
1759585000685436400,5.9024365234375,-0.03273147225677967,0.08179156350195407,0.2622382931537926
1759585000695420400,5.91242041015625,-0.026314590951800346,0.09765607210993767,0.19205650342479347
1759585000705405400,5.922405517578125,0.04045242189764976,0.021688100194931028,0.005709171427041292
1759585000715389400,5.932389404296875,0.019455226576328276,-0.03650573009848594,-0.11470160719603299
1759585000725373400,5.94237353515625,0.018840894070267677,-0.08908815025091171,-0.21129019620493053
1759585000735358500,5.9523583984375,-0.05533142659962177,-0.055609659019112585,-0.3929930633977055
1759585000745342500,5.962342529296875,-0.04003331970274448,0.006037526598572731,-0.37184389238506554
1759585000755326500,5.972326416015625,0.056140404894948,-0.007080898171663284,-0.19364289583340286
1759585000765311500,5.9823115234375,0.03969575831145048,0.014158289211988449,0.07070332938507198
1759585000775295500,5.99229541015625,-0.017889000172913075,-0.03784136261641979,0.2950584666073322
1759585000785279500,6.002279541015625,-0.01375000067204237,-0.08261983101963996,0.32234058741703625
1759585000795264500,6.012264404296875,0.041807635898888106,-0.08791735290586948,0.22721885609030723
1759585000805248500,6.02224853515625,0.07600012061893939,-0.055880292654037475,0.017545593562722204
1759585000815232500,6.032232421875,0.014482406599819659,-0.007001403194665908,-0.20668036432191728
1759585000825217500,6.042217529296875,0.013442249897122383,-0.05846621749401092,-0.2898063912980258
1759585000835201500,6.052201416015625,-0.0075362407237291335,-0.07958499336838722,-0.19554960623756049
1759585000845185500,6.062185546875,0.0012383096233010292,-0.06773790370821953,-0.030762802532315253
1759585000855169500,6.07216943359375,-0.018690964205563067,-0.10972703365385532,0.09985197471901774
1759585000865154600,6.082154541015625,-0.051074938198924065,-0.06959843688309192,0.26592151171118017
1759585000875138600,6.092138671875,-0.05775543887615203,-0.06350538070499896,0.2570692199528217
1759585000885122600,6.10212255859375,-0.011210545322299002,-0.09599369185566901,0.09554448678344488
1759585000895107600,6.112107666015625,0.04419628460109234,-0.06491349393725394,-0.07319426941797137
1759585000905091600,6.122091552734375,0.0850605021700263,-0.049831660139560696,-0.23789091062173245
1759585000915075600,6.13207568359375,0.014890110617876052,-0.07554886972010136,-0.293218099437654
1759585000925060600,6.142060546875,-0.052821489605307574,-0.09319617009162902,-0.19576924033761023
1759585000935044600,6.152044677734375,-0.0584606645360589,-0.1223240648984909,0.006316343539953232
1759585000945028600,6.162028564453125,-0.08455226038694381,-0.1361748955965042,0.20213629115149379
1759585000955013600,6.172013671875,-0.09403758935183286,-0.08201777347326278,0.3885715936936438
1759585000964997600,6.18199755859375,-0.04080196598768234,-0.017404723787307737,0.41855069850236176
1759585000974981600,6.191981689453125,0.0065837623044848435,0.03400280736684799,0.25590543687045575
1759585000984966400,6.20196630859375,0.03017301994562149,0.07829787616729736,0.020972937662899493
1759585000994950700,6.21195068359375,0.017639117065072058,0.1163157643944025,-0.19649360908940433
1759585001004934400,6.221934326171875,-0.0752028327614069,0.015029226827621459,-0.3186174752406776
1759585001014918400,6.23191845703125,-0.13106091358363628,-0.15358371103703974,-0.3044084787547588
1759585001024903400,6.2419033203125,-0.11133739145994186,-0.13330138598680497,-0.06637991322800517
1759585001034887400,6.251887451171875,-0.051012978878617284,-0.07391805364787578,0.19672800236716864
1759585001044871400,6.261871337890625,-0.009694587801396846,-0.014559271228313445,0.4035597578585148
1759585001054856400,6.2718564453125,0.03709522042423487,0.13226444415450095,0.389681746892631
1759585001064840200,6.281840087890625,0.03239069599509239,0.16414543706178664,0.19005816921442745
1759585001074824400,6.291824462890625,-0.014096914413571356,0.09225041367411613,-0.06325681277140975
1759585001084809500,6.3018095703125,-0.0016436755537986754,-0.004679682248830795,-0.2284770394578576
1759585001094793200,6.311793212890625,-0.06074351477622986,-0.08080664411783219,-0.26097411843687296
1759585001104777200,6.321777099609375,-0.11723141793459653,-0.14313596678078175,-0.06801189834401011
1759585001114762500,6.331762451171875,-0.1139455281317234,-0.21093816789686679,0.16330606362819672
1759585001124746200,6.341746337890625,-0.06228519126027822,-0.18890987596213815,0.338986309530586
1759585001134730200,6.351730224609375,-0.006455167488753796,-0.09394494263231754,0.36844840472787616
1759585001144715500,6.361715576171875,0.029465748459100723,0.008592471778392792,0.23963658524528145
1759585001154699300,6.37169921875,0.04511690657734871,0.10917407594621181,0.06052768006846308
1759585001164683300,6.381683349609375,0.09656886139512061,0.12505787377655506,-0.07281652214676142
1759585001174667300,6.391667236328125,0.08783259723186493,0.0775420893639326,-0.14293664481639862
1759585001184652300,6.40165234375,0.031045126605033873,-0.1227946050196886,-0.18141557468399405
1759585001194636300,6.41163623046875,-0.10707505784034728,-0.2776432214260101,-0.33490430091395973
1759585001204620300,6.421620361328125,-0.13056670032590628,-0.15590543198287485,-0.08599763688966632
1759585001214605300,6.431605224609375,-0.02229717200398445,-0.15411913308799266,0.09557780453115701
1759585001224589300,6.44158935546875,0.009603110125660896,-0.07035422368645668,0.2549060505695641
1759585001234573300,6.4515732421875,0.019653964018821714,0.0816904412150383,0.3085872257441282
1759585001244558300,6.461558349609375,0.033327684584259984,0.12538462151288984,0.19611162403449414
1759585001254542300,6.471542236328125,0.0199812962770462,0.04903963297903537,0.03370075568035245
1759585001264526300,6.4815263671875,-0.08679682444334029,-0.008745616513490677,-0.1322384329304099
1759585001274511400,6.491511474609375,-0.16020225239396094,-0.07907529028058051,-0.20954656740799546
1759585001284495400,6.501495361328125,-0.12422083843052387,-0.15820786370635032,-0.16621318324655293
1759585001294479400,6.511479248046875,-0.07033844159543513,-0.20036358239054677,-0.020438684655725955
1759585001304464400,6.52146435546875,-0.003510638469457626,-0.14259762212038038,0.14901348051205277
1759585001314448400,6.531448486328125,-0.013260463589429854,-0.06428104125261307,0.22012772878557443
1759585001324432400,6.541432373046875,0.007348024675250053,0.013490180692076682,0.11798267469331622
1759585001334417400,6.55141748046875,-0.04432809428721666,0.11033259833157062,-0.0007864742025732994
1759585001344401400,6.5614013671875,-0.041786885371804236,0.20485212598145006,-0.02247457439750433
1759585001354385400,6.571385498046875,-0.033439328265190124,0.0972094973862171,-0.2310829841725528
1759585001364369400,6.581369384765625,-0.18282061917632816,-0.09430091646313667,-0.437963985633105
1759585001374354400,6.5913544921875,-0.05403115765601396,-0.06921089887022971,-0.20233546698540447
1759585001384338400,6.60133837890625,-0.06926701297163963,-0.013480828341841698,-0.00015694412738084793
1759585001394322400,6.611322509765625,-0.03569324467182159,0.00038110827207565303,0.1710121079608798
1759585001404307500,6.621307373046875,0.053795303073525425,-0.11399228988289832,0.3171038558073342
1759585001414291500,6.63129150390625,0.05675386061817407,-0.026509236741065978,0.34092969868332146
1759585001424275500,6.641275390625,0.056121115672588345,0.029628245544433593,0.25458967809677124
1759585001434261200,6.65126123046875,0.057203357951343056,-0.003211363261938095,0.0554781415939331
1759585001444245200,6.661245361328125,-0.03882160582542419,-0.09700316115915775,-0.07420344646051526
1759585001454229200,6.671229248046875,-0.1643997040838003,-0.126201198592782,-0.06725830349773168
1759585001464214300,6.68121435546875,-0.22403058144301174,-0.14022563229203222,0.030358897906541824
1759585001474198300,6.6911982421875,-0.1295326811030507,-0.12817805162370205,0.1088932131782174
1759585001484182300,6.701182373046875,0.005757540613412856,-0.108494861510396,0.1130031327150762
1759585001494167300,6.711167236328125,0.03798398595750332,-0.07809796968102455,0.022900690855085847
1759585001504151300,6.7211513671875,0.04459259044229984,0.01338613579571247,-0.11177373705059289
1759585001514135300,6.73113525390625,0.10177081395238638,0.011119944429397583,-0.17778686279281972
1759585001524119300,6.741119384765625,0.05695055223405361,-0.0019493805021047592,-0.1721361435547471
1759585001534104300,6.751104248046875,-0.014955284808576106,-0.01017068088054657,-0.1035876541160047
1759585001544088300,6.76108837890625,-0.03407558034211397,-0.08677110548019408,0.03614683365821838
1759585001554072300,6.771072265625,-0.029591420665383335,-0.09419570252299309,0.1163718784958124
1759585001564057300,6.781057373046875,-0.0029138416200876235,-0.15074644178450106,0.07655322445705533
1759585001574041300,6.791041259765625,0.060687400674819945,-0.13839958590865134,0.0055371758610010145
1759585001584025300,6.801025390625,0.04511427622884512,-0.05057926363646984,-0.04953881467282772
1759585001594010400,6.81101025390625,0.07593290060162544,0.030056700089573857,-0.07508695129677653
1759585001603994400,6.820994384765625,0.08200345268696546,0.10305880793631077,-0.02749722486510873
1759585001613978400,6.830978271484375,0.0786146870315075,0.12719839293658733,-0.007526742243021726
1759585001623963400,6.84096337890625,0.0841100695773959,0.06096855570375919,-0.12508739213198422
1759585001633947400,6.850947509765625,-0.008024901023507117,-0.014443535894155502,-0.10638766009807586
1759585001643931400,6.860931396484375,-0.11245675087869167,-0.06497545325756073,-0.07273994977921247
1759585001653916400,6.87091650390625,-0.05772445921599865,-0.1456996797889471,-0.0888410436220467
1759585001663900400,6.880900390625,0.09890577991008757,-0.13728314909934997,-0.04402706551402807
1759585001673884400,6.890884521484375,0.14332593639492988,-0.09746902510523796,0.03123845722004771
1759585001683869400,6.900869384765625,0.12089140174686908,-0.09293430428504944,0.037238866678625346
1759585001693853400,6.910853515625,0.03807283328473568,-0.08957914863824844,0.02147781844511628
1759585001703837400,6.92083740234375,-0.034333354495465755,-0.08681494462192058,-0.025184710139036177
1759585001713821400,6.930821533203125,-0.002922317187488079,-0.08214519924521446,-0.07553995576128363
1759585001723806500,6.940806396484375,0.04885141693055629,-0.07159224104881286,-0.053017304438352585
1759585001733790500,6.95079052734375,0.025376433318853378,-0.02365267826616764,-0.0018782149620354175
1759585001743774500,6.9607744140625,-0.01696457880437374,-0.020680968979001044,0.019618454314023256
1759585001753759500,6.970759521484375,-0.010913608202338217,-0.06911269919276238,-0.013777765461802483
1759585001763743500,6.980743408203125,-0.013415946412086486,-0.03803133223056793,-0.05033829448744654
1759585001773727500,6.9907275390625,-0.02243307334333658,0.06290449220240116,-0.07102496255487203
1759585001783712500,7.00071240234375,-0.019001053068041802,0.07381459327340126,-0.06956468074396252
1759585001793696500,7.010696533203125,-0.03396715153157711,0.029127310284972188,-0.027046850749105213
1759585001803680500,7.020680419921875,-0.044725276911258695,-0.05586334151923656,0.0488804968945682
1759585001813665300,7.030665283203125,-0.12912322351932526,-0.0587590629607439,0.11125351256877183
1759585001823649300,7.040649169921875,-0.1822591859012842,-0.12906944750547408,0.17192001658603548
1759585001833633500,7.050633544921875,-0.13767068711221217,-0.16647124966084956,0.2192432010360062
1759585001843618300,7.060618408203125,-0.08978636164814233,-0.09664894089400768,0.1989985776476562
1759585001853602300,7.070602294921875,-0.1038239470899105,-0.007068038690090179,0.08413593467101455
1759585001863586300,7.08058642578125,-0.0988572645932436,0.024312603479623794,0.008329436928033828
1759585001873571300,7.0905712890625,-0.12001169630289077,-0.013068155887722968,0.017408669310063123
1759585001883555300,7.100555419921875,-0.1470066707342863,-0.04547171136438846,0.042473844722658395
1759585001893539000,7.1105390625,-0.12689093442261218,-0.04760989243686199,0.055259238146245476
1759585001903523300,7.1205234375,-0.15138941586315632,-0.06162205117642879,0.07820143005549907
1759585001913508400,7.13050830078125,-0.15180617997050286,-0.07199965280592441,0.08984832096844911
1759585001923492000,7.1404921875,-0.17339549596607684,-0.0506114123404026,-0.06169292445555329
1759585001933476000,7.15047607421875,-0.11230594423115253,0.06282791983485221,-0.1148306404031813
1759585001943461400,7.16046142578125,0.014618892461061477,0.11923428218960762,0.023940263035893437
1759585001953445000,7.170445068359375,-0.01598901177048683,0.08811375226080417,-0.04999284205064177
1759585001963429000,7.18042919921875,-0.11989537644684314,0.11904723518490791,0.038206542667001485
1759585001973414400,7.190414306640625,-0.06386047775298356,0.02955342674255371,-0.01316504039093852
1759585001983398100,7.200398193359375,-0.06647767451405524,-0.03804010005891323,-0.03926730376631021
1759585001993382100,7.210382080078125,-0.031630817538499834,-0.08988193097710609,-0.07302154319956898
1759585002003367200,7.2203671875,0.029544951175153253,-0.14156594098508357,-0.17918226267397402
