time,seconds_elapsed,z,y,x
1757614237721189400,22.546189453125,1.314181566238403,-2.182502031326294,-0.641215443611145
1757614237731145700,22.556145751953125,0.2276712357997894,-1.6262271404266355,-0.5893993377685547
1757614237741101600,22.5661015625,0.0045284391380846,-1.6784309148788452,-0.6720476150512695
1757614237751057700,22.5760576171875,0.1797282248735427,-2.030137777328491,-0.7551451921463013
1757614237761013500,22.586013427734372,0.503221333026886,-2.459962844848633,-0.7671046257019043
1757614237770969600,22.595969482421875,0.83892822265625,-2.786489486694336,-0.7347131371498108
1757614237780925400,22.60592553710937,1.1245583295822144,-3.0423038005828857,-0.6760115027427673
1757614237790881500,22.615881591796875,1.3400368690490725,-3.2182745933532715,-0.6476195454597473
1757614237800837400,22.62583740234375,1.4580665826797483,-3.243102788925171,-0.6583080887794495
1757614237810793500,22.63579345703125,1.432259440422058,-3.0472757816314697,-0.6412436366081238
1757614237820749300,22.645749267578125,1.2462645769119265,-2.669835567474365,-0.5726203918457031
1757614237830705400,22.655705322265625,0.9163601398468018,-2.226148128509521,-0.4593164622783661
1757614237840661200,22.6656611328125,0.491228312253952,-1.7985423803329468,-0.3184109926223755
1757614237850617300,22.675617431640624,0.0374791994690895,-1.432919979095459,-0.198649451136589
1757614237860573200,22.6855732421875,-0.4059232771396637,-1.1801677942276,-0.1152200624346733
1757614237870529500,22.695529541015624,-0.8008402585983276,-1.0403900146484375,-0.0545125119388103
1757614237880485400,22.7054853515625,-1.127636194229126,-0.9526441693305968,0.0302066374570131
1757614237890441200,22.71544116210937,-1.3518764972686768,-0.8601914644241333,0.1538145989179611
1757614237900397300,22.725397216796875,-1.4510009288787842,-0.7614616751670837,0.311378926038742
1757614237910353200,22.73535327148437,-1.4193670749664309,-0.6465888619422913,0.4883779287338257
1757614237920309200,22.745309326171878,-1.266453981399536,-0.5009475350379944,0.6561621427536011
1757614237930265000,22.75526513671875,-1.0186340808868408,-0.3334354758262634,0.7869792580604553
1757614237940221200,22.76522119140625,-0.7729755640029907,-0.147865891456604,0.8569040298461914
1757614237950177300,22.77517724609375,-0.6143041849136353,0.0093562174588441,0.8702043890953064
1757614237960133400,22.78513330078125,-0.5448774099349976,0.0645137429237365,0.831010103225708
1757614237970089200,22.795089111328124,-0.5603269338607788,-0.0103620933368802,0.7658095359802246
1757614237980045300,22.80504541015625,-0.6243807673454285,-0.2262776046991348,0.7132225036621094
1757614237990001200,22.815001220703124,-0.6993314623832703,-0.4601383209228515,0.684930682182312
1757614237999957200,22.824957275390624,-0.7462478280067444,-0.5046871304512024,0.6658363342285156
1757614238009913000,22.8349130859375,-0.7825360298156738,-0.1795774847269058,0.6809889078140259
1757614238019869400,22.844869384765627,-0.9095017313957214,0.521149754524231,0.7365701794624329
1757614238029825300,22.8548251953125,-1.1839162111282349,1.4251315593719482,0.8066903948783875
1757614238039781400,22.864781494140622,-1.4776232242584229,2.2935221195220947,0.7677046656608582
1757614238049737200,22.8747373046875,-1.468786358833313,3.0398097038269043,0.5755820870399475
1757614238059693300,22.884693359375,-0.9371985793113708,3.766146183013916,0.3103490769863128
1757614238069649200,22.894649169921877,-0.1575108021497726,4.040552139282227,0.206592857837677
1757614238079605200,22.904605224609377,0.127184584736824,3.6364667415618896,0.4433457553386688
1757614238089561300,22.91456127929688,-0.3834967911243438,3.5038397312164307,0.8972751498222351
1757614238099517400,22.924517333984376,-1.415151596069336,4.212307929992676,1.0520048141479492
1757614238109473300,22.93447338867188,-2.6771864891052246,4.885450839996338,0.7685360908508301
1757614238119429400,22.944429443359372,-3.502699613571167,4.390727996826172,0.3677332699298858
1757614238129385200,22.95438525390625,-3.4900405406951904,3.1762938499450684,-0.0508727692067623
1757614238139341300,22.96434130859375,-2.94089937210083,2.0101466178894043,-0.3074281215667724
1757614238149297200,22.974297119140623,-2.062304735183716,1.3343443870544434,-0.3399181663990021
1757614238159253200,22.98425317382813,-1.2335774898529053,1.1691745519638062,-0.2455945760011673
1757614238169209300,22.994209228515626,-0.8462297916412354,1.2987900972366333,-0.1222710534930229
1757614238179165400,23.00416552734375,-0.9501964449882508,1.4782565832138062,-0.0065665561705827
1757614238189121300,23.014121337890625,-1.2847254276275637,1.6162128448486328,0.0751352310180664
1757614238199077400,23.024077392578125,-1.586243987083435,1.710195779800415,0.1181775033473968
1757614238209033200,23.034033203125,-1.774147629737854,1.7284748554229736,0.1084082350134849
1757614238218989300,23.0439892578125,-1.849532127380371,1.6701143980026243,0.0662618428468704
1757614238228945200,23.053945068359376,-1.821993708610535,1.5953234434127808,0.0272864811122417
1757614238238901500,23.063901611328124,-1.7330070734024048,1.5794062614440918,0.0182538386434316
1757614238248857300,23.073857421875,-1.6067743301391602,1.6515201330184937,0.0218760035932064
1757614238258813400,23.0838134765625,-1.489925980567932,1.8091955184936523,0.0177968405187129
1757614238268769300,23.09376928710937,-1.3983182907104492,2.025731086730957,-4.26105762016e-05
1757614238278725400,23.103725341796878,-1.340959906578064,2.309243679046631,-0.0187348052859306
1757614238288681200,23.11368115234375,-1.3178164958953855,2.66521430015564,-0.0249314494431018
1757614238298637300,23.12363720703125,-1.3109519481658936,3.079156875610352,-0.0061641526408493
1757614238308593200,23.13359326171875,-1.2875707149505615,3.51125431060791,0.0453155487775802
1757614238318549500,23.14354956054688,-1.240752339363098,3.9139931201934814,0.1090772151947021
1757614238328505300,23.15350537109375,-1.1330053806304932,4.292469501495361,0.1890918910503387
1757614238338461400,23.16346142578125,-0.9669104218482972,4.522244453430176,0.1567728370428085
1757614238348417300,23.173417236328124,-0.7025941014289856,4.498800277709961,-0.0073934677056968
1757614238358373400,23.183373291015624,-0.3005752861499786,4.189183712005615,-0.1871296763420105
1757614238368329200,23.1933291015625,0.2957834601402282,3.5465047359466557,-0.3783888518810272
1757614238378285300,23.203285400390627,1.0860013961791992,2.5431578159332275,-0.5578696727752686
1757614238388241400,23.213241455078126,1.9868364334106443,1.1548047065734863,-0.7104440331459045
1757614238398197500,23.223197509765622,2.831885814666748,-0.4792451560497284,-0.8169171810150146
1757614238408153300,23.2331533203125,3.527909517288208,-2.1306912899017334,-0.8890731334686279
1757614238418109200,23.243109130859374,4.109743118286133,-3.610922336578369,-0.9803793430328368
1757614238428065300,23.253065185546877,4.637506008148193,-4.783638000488281,-1.110804796218872
1757614238438021000,23.263021240234377,5.15260648727417,-5.504227638244629,-1.2665362358093262
1757614238447977200,23.27297729492188,5.682888507843018,-5.665219306945801,-1.4579496383666992
1757614238457933300,23.282933349609376,6.281530857086182,-5.301214694976807,-1.6725221872329712
1757614238467889400,23.29288940429688,6.942767143249512,-4.574703216552734,-1.976349711418152
1757614238477845200,23.30284521484375,7.457804203033447,-3.866283178329468,-2.3180019855499268
1757614238487801300,23.31280126953125,7.278176784515381,-3.421409368515014,-2.304579019546509
1757614238497757200,23.322757080078127,5.932125091552734,-2.6840081214904785,-1.8641184568405151
1757614238507713300,23.33271337890625,3.735682725906372,-1.4742119312286377,-1.2750637531280518
1757614238517669000,23.34266918945313,1.839398503303528,-0.2986492812633514,-0.953399419784546
1757614238527625200,23.352625244140626,0.970658004283905,0.2783293724060058,-0.9487133026123048
1757614238537581300,23.362581298828125,0.7667845487594604,0.1544497609138488,-1.144209623336792
1757614238547537400,23.372537353515625,0.8503678441047668,-0.4761423170566559,-1.411035180091858
1757614238557493200,23.3824931640625,1.0035507678985596,-1.37628436088562,-1.7092596292495728
1757614238567449300,23.392449462890625,1.1551027297973633,-2.2588510513305664,-1.993740916252136
1757614238577405200,23.4024052734375,1.2704684734344482,-3.015580415725708,-2.115408182144165
1757614238587361300,23.412361328125,1.2959996461868286,-3.608831882476807,-2.040821075439453
1757614238597317000,23.422317138671875,1.2003979682922363,-3.97173523902893,-1.9039751291275024
1757614238607273200,23.43227319335937,0.955327808856964,-4.072075843811035,-1.7726963758468628
1757614238617229300,23.442229248046875,0.5711992979049683,-3.9544272422790527,-1.6393202543258667
1757614238627185400,23.45218530273437,0.0968676880002021,-3.704162120819092,-1.4897619485855105
1757614238637141200,23.462141357421874,-0.3973292410373688,-3.3884875774383545,-1.3295400142669678
1757614238647097300,23.47209741210937,-0.8492943048477173,-3.092190980911255,-1.1840296983718872
1757614238657053200,23.48205322265625,-1.2260818481445312,-2.895981550216675,-1.0746147632598877
1757614238667009300,23.49200927734375,-1.5100762844085691,-2.7932591438293457,-0.9832651615142822
1757614238676965000,23.501965087890625,-1.7036347389221191,-2.751817226409912,-0.8892044425010681
1757614238686921500,23.51192138671875,-1.821776390075684,-2.760721445083618,-0.7818516492843628
1757614238696877300,23.521877197265624,-1.8734052181243896,-2.789619445800781,-0.6430943012237549
1757614238706833400,23.53183349609375,-1.8522149324417116,-2.8296287059783936,-0.5028929710388184
1757614238716789200,23.541789306640624,-1.7639654874801636,-2.8820507526397705,-0.3819050192832947
1757614238726745300,23.551745361328123,-1.6012955904006958,-2.914997339248657,-0.2869787812232971
1757614238736701200,23.561701171875,-1.350053071975708,-2.88881778717041,-0.2145796716213226
1757614238746657300,23.5716572265625,-1.031851887702942,-2.7917027473449707,-0.1624536216259002
1757614238756613400,23.58161328125,-0.7085686326026917,-2.630296230316162,-0.1326081156730651
1757614238766569500,23.59156958007813,-0.4238884150981903,-2.3932907581329346,-0.129408061504364
1757614238776525300,23.601525390625,-0.2365595400333404,-2.025507688522339,-0.1501628756523132
1757614238786481400,23.6114814453125,-0.2020074278116226,-1.5462983846664429,-0.1623068898916244
1757614238796437200,23.621437255859377,-0.379263699054718,-1.0311591625213623,-0.1428823173046112
1757614238806393300,23.63139331054688,-0.8507087230682373,-0.4497575759887695,-0.1090774834156036
1757614238816349400,23.641349365234376,-1.5498409271240234,0.2727646827697754,-0.0719708651304245
1757614238826305300,23.65130517578125,-2.149513006210327,1.1477209329605105,-0.0628916174173355
1757614238836261600,23.66126171875,-2.4609360694885254,2.020764112472534,-0.1214609146118164
1757614238846217500,23.671217529296875,-2.459832668304444,2.723778009414673,-0.3061660528182983
1757614238856173600,23.68117358398437,-2.093240261077881,3.25708556175232,-0.5718477964401245
1757614238866129400,23.69112939453125,-1.3433290719985962,3.686835527420044,-0.748599112033844
1757614238876085500,23.70108544921875,-0.4682159423828125,3.925870895385742,-0.7390210628509521
1757614238886041300,23.711041259765626,-0.112197645008564,3.841151237487793,-0.5223348140716553
1757614238895997400,23.72099755859375,-0.6456016302108765,3.937008619308472,-0.0587810240685939
1757614238905953300,23.730953369140625,-1.798276662826538,4.604689598083496,0.2561462819576263
1757614238915909600,23.74090966796875,-3.077502012252808,4.864345073699951,0.1708985120058059
1757614238925865500,23.750865478515625,-3.802473545074463,3.967024564743042,0.0828046053647995
1757614238935821600,23.760821533203124,-3.5811963081359863,2.5594136714935303,0.0312391463667154
1757614238945777400,23.77077734375,-2.6450083255767822,1.2696809768676758,0.0132524222135543
1757614238955733500,23.7807333984375,-1.439810037612915,0.4169343709945678,0.0364118032157421
1757614238965689300,23.790689453125,-0.4532921314239502,0.0298417843878269,0.0704584568738937
1757614238975645200,23.800645263671875,0.0915104746818542,-0.0320628620684146,0.0950279757380485
1757614238985601500,23.8106015625,0.1747827231884002,0.0901165753602981,0.0787632539868354
1757614238995557400,23.820557373046874,-0.085420623421669,0.3974736034870147,0.0229782871901989
1757614239005513500,23.83051342773437,-0.4707456827163696,0.939123034477234,-0.0215644147247076
1757614239015469300,23.84046923828125,-0.7863856554031372,1.5666673183441162,-0.0141062317416071
1757614239025425400,23.85042529296875,-0.9726594090461732,2.0380218029022217,0.0122939506545662
1757614239035381200,23.86038134765625,-1.050673246383667,2.279341220855713,0.0242888275533914
1757614239045337300,23.87033740234375,-1.0568102598190308,2.3762872219085693,0.0086265113204717
1757614239055292400,23.88029248046875,-1.0155857801437378,2.429344892501831,-0.0190029852092266
1757614239065248500,23.89024853515625,-0.9601652026176452,2.5220115184783936,-0.0579759515821933
1757614239075204400,23.900204345703123,-0.9088228940963744,2.666071891784668,-0.0990895628929138
1757614239085160400,23.910160400390627,-0.8757877349853516,2.842787027359009,-0.1303116679191589
1757614239095116300,23.9201162109375,-0.8781885504722595,3.051983594894409,-0.1363335996866226
1757614239105072400,23.930072265625,-0.919105350971222,3.2842960357666016,-0.1086606979370117
1757614239115028500,23.94002856445313,-0.982309103012085,3.50777006149292,-0.0559154637157917
1757614239124984600,23.949984619140626,-1.0491302013397217,3.7045047283172607,0.0096648782491683
1757614239134940400,23.9599404296875,-1.114198923110962,3.824561595916748,0.0801233276724815
1757614239144896500,23.969896484375,-1.1636847257614136,3.807058095932007,0.1491836309432983
1757614239154852400,23.97985229492188,-1.176951289176941,3.6490204334259033,0.1922314912080764
1757614239164808400,23.989808349609376,-1.1065447330474854,3.306567668914795,0.1934466958045959
1757614239174764300,23.99976440429688,-0.9176126718521118,2.749394416809082,0.1500925570726394
1757614239184720600,24.009720703125,-0.5838533043861389,1.9070347547531128,0.0655182898044586
1757614239194676500,24.019676513671875,-0.1056942045688629,0.7898677587509155,-0.0155938733369112
1757614239204632600,24.02963256835937,0.4833149909973144,-0.5501054525375366,-0.0422899313271045
1757614239214588400,24.03958837890625,1.1030898094177246,-1.9240206480026243,-0.0154460677877068
1757614239224544500,24.04954443359375,1.7031104564666748,-3.139332771301269,0.0290335156023502
1757614239234500400,24.059500244140622,2.256024122238159,-4.019754886627197,0.0459195561707019
1757614239244456400,24.06945654296875,2.727306842803955,-4.469015121459961,0.0200828984379768
1757614239254412300,24.079412353515625,3.130190849304199,-4.493630886077881,-0.0773075744509697
1757614239264368600,24.08936865234375,3.526938438415528,-4.179105758666992,-0.2582342028617859
1757614239274324500,24.099324462890625,4.031423568725586,-3.6635797023773193,-0.539303719997406
1757614239284280600,24.109280517578124,4.703907489776611,-3.106837749481201,-0.9006800055503845
1757614239294236400,24.119236328125,5.203205108642578,-2.933347463607788,-1.077436923980713
1757614239304192300,24.12919213867188,4.91557502746582,-2.987127780914306,-0.9030462503433228
1757614239314148400,24.1391484375,3.650428533554077,-2.2973504066467285,-0.5366749167442322
1757614239324104200,24.149104248046875,1.9926964044570925,-0.8888648748397827,-0.3414867520332336
1757614239334060500,24.159060546875,0.7336105704307556,0.3434481620788574,-0.3657532036304474
1757614239344016400,24.169016357421874,0.2024833261966705,0.7546980381011963,-0.4920347332954407
1757614239353972500,24.17897241210937,0.117516241967678,0.4502646327018738,-0.6160855889320374
1757614239363928300,24.18892822265625,0.2014859765768051,-0.193028837442398,-0.7091361284255981
1757614239373884400,24.198884521484374,0.3155342638492584,-0.8822914361953735,-0.7558138966560364
1757614239383840300,24.20884033203125,0.4804441034793854,-1.513685941696167,-0.7588784098625183
1757614239393796400,24.21879638671875,0.7009059190750122,-2.0731201171875,-0.7610006928443909
1757614239403752400,24.22875244140625,0.7947591543197632,-2.5303821563720703,-0.7878245711326599
1757614239413708500,24.23870849609375,0.6939960718154907,-2.8166399002075195,-0.8166785836219788
1757614239423664400,24.248664306640624,0.4555443525314331,-2.926811456680298,-0.809045135974884
1757614239433620500,24.258620361328123,0.1349397152662277,-2.9221889972686768,-0.7408458590507507
1757614239443576300,24.268576416015627,-0.2405382990837097,-2.891363859176636,-0.6025505661964417
1757614239453532400,24.278532470703126,-0.6458362936973572,-2.84863543510437,-0.4134171307086944
1757614239463488300,24.28848828125,-1.0245002508163452,-2.80351996421814,-0.2016220688819885
1757614239473444400,24.2984443359375,-1.31787109375,-2.754699945449829,0.0222581680864095
1757614239483400400,24.308400390625,-1.4992371797561646,-2.67972469329834,0.2516447603702545
1757614239493355500,24.31835546875,-1.5571361780166626,-2.547334909439087,0.4773615002632141
1757614239503311400,24.32831127929688,-1.496057629585266,-2.353142499923706,0.6639146208763123
1757614239513267500,24.338267333984376,-1.337893843650818,-2.1200358867645264,0.802830159664154
1757614239523223300,24.34822338867188,-1.0926185846328735,-1.8718222379684448,0.8964916467666626
1757614239533179600,24.3581796875,-0.7944419980049133,-1.6021052598953247,0.9510920643806458
1757614239543135500,24.368135498046875,-0.4839139580726623,-1.3131163120269775,1.009363293647766
1757614239553091600,24.37809155273437,-0.2122704535722732,-1.0002377033233645,1.0659477710723877
1757614239563047400,24.38804736328125,-0.0508016608655452,-0.6921321153640747,1.0888818502426147
1757614239573003500,24.39800341796875,0.0015795208746567,-0.4486877918243408,1.0894787311553955
1757614239582959400,24.40795947265625,-0.014446317218244,-0.3592607080936432,1.0675480365753174
1757614239592915500,24.41791552734375,-0.0951954945921897,-0.4128821194171905,1.0376391410827637
1757614239602871300,24.427871337890625,-0.247779980301857,-0.4566873908042907,0.9739065766334534
1757614239612827600,24.43782763671875,-0.4866444766521454,-0.2975374162197113,0.92150217294693
1757614239622783500,24.447783447265625,-0.8124098181724548,0.1573715209960937,0.9335380792617798
1757614239632739300,24.4577392578125,-1.2069376707077026,0.8749019503593445,1.0006744861602783
1757614239642695400,24.4676953125,-1.600441813468933,1.698858380317688,1.0874041318893433
1757614239652651300,24.4776513671875,-1.8732030391693115,2.416560411453247,1.140855073928833
1757614239662607400,24.487607421875,-1.8979188203811648,2.9170050621032715,1.069188117980957
1757614239672563200,24.497563232421875,-1.497692584991455,3.36151385307312,0.7969458699226379
1757614239682519600,24.50751953125,-0.5730528831481934,3.8527603149414062,0.4013330340385437
1757614239692475400,24.517475341796874,0.3436396718025207,3.9091172218322754,0.2149277478456497
1757614239702431500,24.52743139648437,0.347730815410614,3.734077215194702,0.4768573641777038
1757614239712387300,24.53738720703125,-0.6660520434379578,4.21121072769165,0.8664277791976929
1757614239722343400,24.547343505859374,-2.058387517929077,5.279971599578857,0.906322717666626
1757614239732299300,24.55729931640625,-3.168521881103516,5.640481472015381,0.6228289604187012
1757614239742255400,24.56725537109375,-3.555737018585205,4.891249179840088,0.2167988866567611
1757614239752211500,24.57721142578125,-3.3411495685577397,3.660953521728516,-0.1968313008546829
1757614239762167600,24.58716748046875,-2.6680996417999268,2.531035900115967,-0.4510095119476318
1757614239772123400,24.597123291015624,-1.6670552492141724,1.7697051763534546,-0.5541790723800659
1757614239782079500,24.60707958984375,-0.6842377185821533,1.4144219160079956,-0.6047748327255249
1757614239792035300,24.617035400390623,-0.1222694516181945,1.2812012434005735,-0.6572028994560242
1757614239801990700,24.62699072265625,-0.0907844975590705,1.1477675437927246,-0.7276448607444763
1757614239811946800,24.63694677734375,-0.4370050132274627,0.989557683467865,-0.8080222606658936
1757614239821902800,24.64690283203125,-0.8761887550354004,0.952118992805481,-0.8502394556999207
1757614239831859000,24.65685888671875,-1.198536992073059,1.060781478881836,-0.832431435585022
1757614239841813800,24.666813720703125,-1.376587152481079,1.180402159690857,-0.7654936909675598
1757614239851769600,24.67676953125,-1.4393227100372314,1.2211605310440063,-0.6549738645553589
1757614239861725700,24.6867255859375,-1.4183441400527954,1.1908918619155884,-0.523918628692627
1757614239871681800,24.696681884765624,-1.3550113439559937,1.1510157585144043,-0.3928109407424927
1757614239881638000,24.706637939453124,-1.303583741188049,1.1647859811782837,-0.2865175008773803
1757614239891593700,24.71659375,-1.2910696268081665,1.2595300674438477,-0.1993655711412429
1757614239901549800,24.7265498046875,-1.3334330320358276,1.4038931131362915,-0.1486129164695739
1757614239911505700,24.73650561523437,-1.428831696510315,1.5657395124435425,-0.1290613114833831
1757614239921461800,24.746461669921874,-1.5552107095718384,1.6987370252609253,-0.1231347173452377
1757614239931417600,24.75641748046875,-1.6852203607559204,1.776546597480774,-0.1321447193622589
1757614239941374000,24.7663740234375,-1.78052020072937,1.818547248840332,-0.1352923065423965
1757614239951329800,24.776329833984374,-1.8010841608047483,1.8208417892456052,-0.1137060597538948
1757614239961286000,24.786285888671877,-1.7348734140396118,1.764756679534912,-0.0679875761270523
1757614239971241700,24.79624169921875,-1.5634289979934692,1.6202834844589231,-0.0169443618506193
1757614239981197800,24.80619775390625,-1.273645043373108,1.333409547805786,0.0537828058004379
1757614239991153700,24.816153564453124,-0.8689916133880615,0.909453809261322,0.1500861644744873
1757614240001109800,24.82610986328125,-0.3822280764579773,0.3197806775569916,0.2182172834873199
1757614240011065600,24.836065673828124,0.1538239121437072,-0.417781263589859,0.2569335103034973
1757614240021022000,24.84602197265625,0.70204097032547,-1.2698124647140503,0.2807272672653198
1757614240030977800,24.855977783203127,1.2450850009918213,-2.11466646194458,0.2888014316558838
1757614240040934000,24.865933837890623,1.800167679786682,-2.804093360900879,0.2545547783374786
1757614240050889700,24.8758896484375,2.38892126083374,-3.2673418521881104,0.134954884648323
1757614240060845800,24.885845703125,3.092059135437012,-3.633446216583252,-0.1021253019571304
1757614240070801700,24.8958017578125,4.005750179290772,-4.035598278045654,-0.4707406163215637
1757614240080757800,24.9057578125,5.103142261505127,-4.444176197052002,-0.8883386254310608
1757614240090713900,24.9157138671875,5.973750591278076,-4.830549240112305,-1.1373748779296875
1757614240100670000,24.925669921875,5.906749725341797,-5.11412239074707,-1.0425937175750732
1757614240110624800,24.935624755859376,4.597545146942139,-4.708735942840576,-0.8496538400650024
1757614240120580900,24.945580810546875,2.838775396347046,-3.694414615631104,-0.7299737930297852
1757614240130536700,24.95553662109375,1.7831817865371704,-2.5991411209106445,-0.6374585032463074
1757614240140492800,24.965492919921875,1.6458619832992554,-1.8302465677261357,-0.5780492424964905
1757614240150449000,24.97544897460937,1.9838467836380005,-1.5964702367782593,-0.6003971695899963
1757614240160404700,24.98540478515625,2.4338181018829346,-1.8750566244125368,-0.6697919368743896
1757614240170360800,24.99536083984375,2.7585222721099854,-2.321171760559082,-0.697410523891449
1757614240180316700,25.005316650390625,2.8248300552368164,-2.636767625808716,-0.6362608671188354
1757614240190272800,25.015272705078125,2.6329421997070312,-2.708651542663574,-0.5321898460388184
1757614240200228600,25.025228515625,2.260512590408325,-2.576101064682007,-0.4523195326328277
1757614240210184700,25.035184814453125,1.8073664903640747,-2.344184875488281,-0.4139021039009094
1757614240220140800,25.045140869140624,1.389128804206848,-2.086986780166626,-0.3988507091999054
1757614240230097000,25.055096923828124,1.052604079246521,-1.8682175874710083,-0.3978626728057861
1757614240240052700,25.065052734375,0.7702245116233826,-1.7126357555389404,-0.401639312505722
1757614240250008800,25.0750087890625,0.4902261793613434,-1.6203556060791016,-0.4221222102642059
1757614240259964700,25.08496459960937,0.1859941035509109,-1.5642484426498413,-0.4307649731636047
1757614240269920800,25.094920654296875,-0.1101139858365058,-1.5447309017181396,-0.4035485386848449
1757614240279876600,25.10487670898437,-0.3445419371128082,-1.5782893896102903,-0.3483388125896454
1757614240289832700,25.114832763671878,-0.4977165758609772,-1.6645488739013672,-0.286393404006958
1757614240299788800,25.124788818359374,-0.5838224291801453,-1.7387874126434326,-0.2356764376163482
1757614240309745000,25.134744873046877,-0.6419475078582764,-1.73486065864563,-0.1861672103404998
1757614240319700700,25.14470068359375,-0.7019962072372437,-1.637730598449707,-0.1322768181562423
1757614240329656800,25.15465673828125,-0.7573279142379761,-1.4756662845611572,-0.0796665996313095
1757614240339612700,25.16461279296875,-0.8038802146911621,-1.2770522832870483,-0.0168431624770164
1757614240349568800,25.17456884765625,-0.8219670653343201,-1.0656626224517822,0.0510826259851455
1757614240359524600,25.184524658203124,-0.8004745841026306,-0.8395399451255798,0.1277883201837539
1757614240369481000,25.19448095703125,-0.7422320246696472,-0.6226435899734497,0.1953679025173187
1757614240379435800,25.204435791015623,-0.7033131122589111,-0.425663411617279,0.2419644296169281
1757614240389392000,25.21439184570313,-0.6630703806877136,-0.3299784362316131,0.2674325108528137
1757614240399347700,25.22434765625,-0.5859428644180298,-0.4102756679058075,0.2970303297042846
1757614240409303800,25.2343037109375,-0.5225321650505066,-0.589513897895813,0.344776839017868
1757614240419260000,25.244260009765625,-0.5066956877708435,-0.7134081125259399,0.3722894191741943
1757614240429216000,25.254216064453125,-0.5710424780845642,-0.6394505500793457,0.4122296273708343
1757614240439171800,25.264171875,-0.7139452695846558,-0.2149285525083542,0.4685802459716797
1757614240449128000,25.2741279296875,-0.901302933692932,0.5895527601242065,0.5249937176704407
1757614240459083800,25.284083740234376,-1.083616018295288,1.6000239849090576,0.5934809446334839
1757614240469039600,25.29403955078125,-1.1204265356063845,2.6066811084747314,0.6321665048599243
1757614240478995700,25.30399560546875,-0.7121644020080566,3.5615248680114746,0.5123178958892822
1757614240488951800,25.313951904296875,0.193199023604393,4.344156742095947,0.3107277750968933
1757614240498908000,25.32390795898437,0.796856701374054,4.356114387512207,0.3445794880390167
1757614240508863700,25.33386376953125,0.177952691912651,4.431684494018555,0.8670112490653992
1757614240518819800,25.34381982421875,-1.362991452217102,5.507026672363281,1.4415630102157593
1757614240528775700,25.353775634765626,-2.999268054962158,6.555511951446533,1.4425525665283203
1757614240538731800,25.363731689453125,-4.0112738609313965,6.282770156860352,1.1181575059890747
1757614240548687600,25.3736875,-4.091088771820068,4.888405799865723,0.7123689651489258
1757614240558643700,25.383643798828125,-3.626744508743286,3.355140686035156,0.5229169726371765
1757614240568599800,25.393599853515624,-2.741042375564575,2.206849813461304,0.5273173451423645
1757614240578556000,25.403555908203124,-1.5878448486328125,1.4643471240997314,0.5873551368713379
1757614240588511700,25.41351171875,-0.5517569184303284,1.0413780212402344,0.6326557397842407
1757614240598467800,25.4234677734375,-0.0098403804004192,0.7372695207595825,0.5961880087852478
1757614240608423700,25.43342358398437,-0.0248528849333524,0.4093422293663025,0.4849999845027923
1757614240618379800,25.4433798828125,-0.4066252708435058,0.1170965284109115,0.34197598695755
1757614240628334800,25.4533349609375,-0.9374452233314514,0.0322000123560428,0.201824203133583
1757614240638291000,25.463291015625,-1.4221969842910769,0.2423535138368606,0.1226084753870964
1757614240648246800,25.473246826171877,-1.778045654296875,0.6488341689109802,0.1249384731054306
1757614240658203000,25.483202880859373,-1.985284805297852,1.0804688930511477,0.1751121580600738
1757614240668158700,25.49315869140625,-2.0433945655822754,1.4488885402679443,0.2360540777444839
1757614240678114800,25.50311474609375,-2.0014138221740723,1.767604947090149,0.2943253815174103
1757614240688070700,25.513070556640624,-1.9084819555282595,2.06758189201355,0.3406830132007599
1757614240698027000,25.523027099609376,-1.811154842376709,2.36855411529541,0.3623997569084167
1757614240707982800,25.53298291015625,-1.745840311050415,2.6912074089050293,0.3508365750312805
1757614240717939000,25.54293896484375,-1.7367533445358276,3.034695625305176,0.3087503910064697
1757614240727894800,25.552894775390627,-1.7917907238006592,3.3899953365325928,0.253957450389862
1757614240737851000,25.562850830078126,-1.8919024467468264,3.7309281826019287,0.2055941671133041
1757614240747806700,25.572806640625,-2.0004053115844727,4.042282104492188,0.1488201022148132
1757614240757762800,25.5827626953125,-2.0665762424468994,4.288933753967285,0.0638045445084571
1757614240767719000,25.592718994140625,-2.041146278381348,4.355721950531006,-0.0494572967290878
1757614240777675000,25.602675048828125,-1.8734118938446045,4.1662211418151855,-0.1799993216991424
1757614240787630800,25.612630859375,-1.5138862133026123,3.6732876300811768,-0.3002098798751831
1757614240797586700,25.62258666992188,-0.9390138387680054,2.884247303009033,-0.3724382817745209
1757614240807542500,25.63254248046875,-0.1741797924041748,1.853208065032959,-0.3998821675777435
1757614240817498600,25.64249853515625,0.6983820199966431,0.6530627608299255,-0.4080884158611297
1757614240827454500,25.652454345703124,1.508968949317932,-0.6212305426597595,-0.4368481636047363
1757614240837409800,25.66240991210937,2.1507153511047363,-1.8147871494293213,-0.5153959393501282
1757614240847365600,25.67236572265625,2.6522977352142334,-2.840848922729492,-0.6606916189193726
1757614240857321700,25.68232177734375,3.1275525093078613,-3.689343929290772,-0.9085413813591005
1757614240867277600,25.692277587890626,3.7223801612854,-4.4332356452941895,-1.323556661605835
1757614240877233700,25.702233642578125,4.64838981628418,-5.047817230224609,-1.90565824508667
1757614240887189500,25.712189453125,5.940117359161377,-5.369692802429199,-2.3324313163757324
1757614240897145900,25.722145751953125,7.084815979003906,-5.522379398345947,-2.169748544692993
1757614240907101700,25.732101806640625,7.160447597503662,-5.730981826782227,-1.7609561681747437
1757614240917057800,25.742057861328124,5.664018630981445,-5.556690692901611,-1.5915911197662354
1757614240927013600,25.752013671875,3.2769534587860107,-4.996087551116943,-1.6742223501205444
1757614240936969700,25.7619697265625,1.3950718641281128,-4.198179721832275,-1.7028459310531616
1757614240946925600,25.77192553710937,0.8114103078842163,-3.3492109775543213,-1.5555225610733032
1757614240956881700,25.781881591796875,1.0481120347976685,-2.8720617294311523,-1.4000784158706665
1757614240966837800,25.79183764648437,1.522573947906494,-2.967702627182007,-1.2590216398239136
1757614240976793900,25.8017939453125,1.8661984205245967,-3.34026837348938,-1.0828455686569214
1757614240986749700,25.81174975585937,1.957953929901123,-3.588315486907959,-0.8240880370140076
1757614240996705800,25.821705810546877,1.8973352909088133,-3.584003448486328,-0.5653771162033081
1757614241006661600,25.83166162109375,1.6691268682479858,-3.366018295288086,-0.4166589975357055
1757614241016617700,25.84161767578125,1.276173710823059,-3.00238299369812,-0.3545580804347992
1757614241026573600,25.851573486328125,0.7925657629966736,-2.569385290145874,-0.3219154477119446
1757614241036528600,25.861528564453124,0.2868461608886719,-2.212976694107056,-0.2865444123744964
1757614241046484700,25.871484619140624,-0.1939737349748611,-1.9931869506835935,-0.2625365555286407
1757614241056440600,25.881440673828124,-0.6015018224716187,-1.8605549335479736,-0.2592965364456177
1757614241066396700,25.891396728515623,-0.9316440224647522,-1.7626017332077026,-0.2770619690418243
1757614241076352500,25.9013525390625,-1.1784993410110474,-1.724261999130249,-0.2777967154979706
1757614241086308600,25.91130859375,-1.331705927848816,-1.7662019729614258,-0.243592157959938
1757614241096264700,25.9212646484375,-1.399743914604187,-1.8505024909973145,-0.2062650173902511
1757614241106220800,25.931220703125,-1.3780462741851809,-1.889081120491028,-0.1731938868761062
1757614241116176600,25.9411767578125,-1.2804938554763794,-1.810050129890442,-0.1518734246492386
1757614241126132700,25.9511328125,-1.1172754764556885,-1.6457363367080688,-0.1299723833799362
1757614241136088600,25.96108862304688,-0.9124112129211426,-1.41521954536438,-0.0909695848822593
1757614241146044700,25.971044677734376,-0.6905150413513184,-1.117091178894043,-0.0499422587454319
1757614241156000500,25.98100048828125,-0.4988026022911072,-0.7729537487030029,0.0044900896027684
1757614241165956600,25.99095654296875,-0.3760026693344116,-0.4111824929714203,0.0776537805795669
1757614241175912700,26.00091259765625,-0.3457757830619812,-0.1265869736671447,0.1576394289731979
1757614241185868800,26.01086889648437,-0.4003370106220245,0.0313605852425098,0.2387412041425705
1757614241195824600,26.02082470703125,-0.5525518655776978,0.1237118244171142,0.2949647903442383
1757614241205780700,26.03078076171875,-0.8065854907035828,0.2923327982425689,0.3034365773200989
1757614241215736600,26.040736572265622,-1.1082664728164673,0.5849902033805847,0.3156999051570892
1757614241225692700,26.05069262695313,-1.3501020669937134,0.994414746761322,0.3613419532775879
1757614241235647700,26.060647705078125,-1.491443157196045,1.3791824579238892,0.4351312220096588
1757614241245603600,26.070603515625,-1.523579478263855,1.624868392944336,0.5277884602546692
1757614241255559700,26.0805595703125,-1.4103152751922607,1.7716686725616455,0.6238385438919067
1757614241265515500,26.090515625,-1.0084083080291748,2.0608434677124023,0.6360371708869934
1757614241275471600,26.1004716796875,-0.2282182574272155,2.5921201705932617,0.5585753917694092
1757614241285427500,26.110427490234372,0.521750271320343,2.8245296478271484,0.5617520213127136
1757614241295383800,26.1203837890625,0.3961630463600158,2.5176644325256348,0.7455176115036011
1757614241305339600,26.13033959960937,-0.7346228361129761,2.6991190910339355,0.921570360660553
1757614241315295700,26.140295654296875,-2.18900728225708,3.3526360988616943,0.6549352407455444
1757614241325251600,26.15025146484375,-2.9407546520233154,3.3683853149414062,0.1682164371013641
1757614241335207700,26.160207763671878,-2.7617897987365723,2.534965991973877,-0.2672085464000702
1757614241345163500,26.17016357421875,-2.1191606521606445,1.3538062572479248,-0.5259658098220825
1757614241355119600,26.18011962890625,-1.2209858894348145,0.5299394726753235,-0.5810287594795227
1757614241365075700,26.19007568359375,-0.3817958235740661,0.2107404619455337,-0.5068120956420898
1757614241375031800,26.20003173828125,-0.0071559138596057,0.2110555171966552,-0.4381278157234192
1757614241384987600,26.209987548828124,-0.1317196786403656,0.361405611038208,-0.4372564256191253
1757614241394943700,26.21994384765625,-0.513159453868866,0.618736207485199,-0.4829807579517364
1757614241404899600,26.229899658203124,-0.8898406624794006,0.926872491836548,-0.5268925428390503
1757614241414855700,26.239855712890623,-1.1402819156646729,1.1513724327087402,-0.5194793939590454
1757614241424810800,26.249810791015623,-1.269524097442627,1.2322793006896973,-0.4719526171684265
1757614241434766800,26.25976684570313,-1.3179097175598145,1.2300182580947876,-0.415090948343277
1757614241444722700,26.26972265625,-1.3319613933563232,1.2138030529022217,-0.3597435355186462
1757614241454678800,26.2796787109375,-1.3444271087646484,1.2522401809692385,-0.2878871858119964
1757614241464634600,26.289634521484373,-1.3642503023147583,1.3599509000778198,-0.1992305517196655
1757614241474590700,26.2995908203125,-1.3796119689941406,1.5309889316558838,-0.1132946014404296
1757614241484546600,26.309546630859376,-1.391086459159851,1.7377991676330566,-0.0601890385150909
1757614241494502700,26.31950268554688,-1.409242033958435,1.9440042972564695,-0.0555032044649124
1757614241504458800,26.329458740234376,-1.4546897411346436,2.116149425506592,-0.1170262247323989
1757614241514414800,26.33941479492188,-1.53288996219635,2.249451160430908,-0.2288094758987426
1757614241524370700,26.34937060546875,-1.6181960105895996,2.342139959335327,-0.3368363380432129
1757614241534326500,26.359326416015627,-1.6737914085388184,2.358757972717285,-0.4002038538455963
1757614241544282600,26.36928271484375,-1.6436995267868042,2.3107407093048096,-0.4005982875823974
1757614241554238500,26.379238525390623,-1.4898114204406738,2.206528902053833,-0.366406500339508
1757614241564194600,26.38919458007813,-1.2050540447235107,2.036620140075684,-0.3068917691707611
1757614241574150700,26.399150634765626,-0.8466609716415405,1.8209123611450195,-0.2657230198383331
1757614241584106800,26.409106689453125,-0.4269574582576751,1.510850429534912,-0.2438094615936279
1757614241594061600,26.4190615234375,0.021199295297265,1.0628119707107544,-0.2107617706060409
1757614241604017700,26.429017578125,0.4818534553050995,0.4002209007740021,-0.1651732474565506
1757614241613973500,26.43897338867188,0.9367852807044984,-0.4598855674266815,-0.1142599955201149
1757614241623929900,26.448929931640624,1.3795405626296997,-1.4415472745895386,-0.0717649981379509
1757614241633885700,26.4588857421875,1.8306957483291624,-2.4221463203430176,-0.0925448462367057
1757614241643841800,26.468841796875,2.333439588546753,-3.273850202560425,-0.2358122617006302
1757614241653797600,26.478797607421875,2.944720506668091,-3.9328534603118896,-0.5684101581573486
1757614241663753700,26.48875366210937,3.7178452014923096,-4.375301837921143,-1.0844773054122925
1757614241673709600,26.49870947265625,4.669787406921387,-4.664636135101318,-1.6019563674926758
1757614241683665700,26.50866577148437,5.727018356323242,-4.874395370483398,-1.8753069639205933
1757614241693621800,26.518621826171877,6.686832904815674,-5.017375946044922,-1.8355473279953003
1757614241703577900,26.528577880859373,7.106561183929443,-5.121977806091309,-1.6273483037948608
1757614241713533700,26.53853369140625,6.391571521759033,-4.98120641708374,-1.4527775049209597
1757614241723489800,26.54848974609375,4.578903675079346,-4.280386447906494,-1.310036063194275
1757614241733445600,26.558445556640624,2.4900777339935303,-3.4358668327331543,-1.1357500553131104
1757614241743401700,26.568401611328124,1.133466362953186,-2.7889299392700195,-0.8722201585769653
1757614241753356800,26.578356689453123,0.6661620736122131,-2.414886713027954,-0.6754892468452454
1757614241763312600,26.588312744140627,0.6630208492279053,-2.3422186374664307,-0.6281645894050598
1757614241773268700,26.598268798828126,0.7743063569068909,-2.5640757083892822,-0.5982272028923035
1757614241783224600,26.608224609375,0.9249153137207032,-2.861274719238281,-0.5110400915145874
1757614241793180700,26.6181806640625,1.0822466611862185,-3.0403199195861816,-0.3438332676887512
1757614241803137500,26.628137451171877,1.1311414241790771,-3.072625637054444,-0.2070509195327758
1757614241813093600,26.63809375,0.99629944562912,-2.9174764156341557,-0.1425283849239349
1757614241823049500,26.648049560546877,0.6720263361930847,-2.53469467163086,-0.0991361737251281
1757614241833005300,26.65800537109375,0.2331046313047409,-2.0042498111724854,-0.0330048203468322
1757614241842961700,26.66796166992188,-0.2186489850282669,-1.479642391204834,0.0697662979364395
1757614241852917500,26.67791748046875,-0.6292247772216797,-1.0838199853897097,0.1715408563613891
1757614241862873600,26.68787353515625,-0.9650683403015136,-0.8199180364608765,0.2309234887361526
1757614241872829400,26.697829345703123,-1.217023849487305,-0.670592725276947,0.2341549694538116
1757614241882785500,26.70778564453125,-1.36866557598114,-0.6675753593444824,0.1838966012001037
1757614241892741400,26.717741455078126,-1.4070707559585571,-0.864252507686615,0.1008219495415687
1757614241902697500,26.727697509765623,-1.3679648637771606,-1.1916468143463137,0.0402203910052776
1757614241912652500,26.737652587890626,-1.2971445322036743,-1.4002515077590942,0.0584926046431064
1757614241922608600,26.747608642578125,-1.2197223901748655,-1.3667083978652954,0.1577163934707641
1757614241932564500,26.757564453125,-1.124065637588501,-1.195626974105835,0.2941562533378601
1757614241942520600,26.7675205078125,-1.0120643377304075,-0.9927324652671814,0.4225222170352936
1757614241952476400,26.777476318359376,-0.8920822739601135,-0.7903287410736084,0.5089239478111267
1757614241962432500,26.7874326171875,-0.7766624689102173,-0.5438947081565857,0.5880496501922607
1757614241972388600,26.797388671875,-0.6928879022598267,-0.2824338376522064,0.6477108597755432
1757614241982344700,26.8073447265625,-0.6612956523895264,-0.0639877691864967,0.6777499914169312
1757614241992300500,26.81730053710937,-0.6664347648620605,0.0165014788508415,0.6328043341636658
1757614242002256600,26.827256591796875,-0.6970506906509399,-0.079092152416706,0.5123964548110962
1757614242012212500,26.83721240234375,-0.7715233564376831,-0.4060159623622894,0.3634738028049469
1757614242022168600,26.84716845703125,-0.88128662109375,-0.8896737098693848,0.2472662478685379
1757614242032124400,26.85712451171875,-0.952784776687622,-1.3302510976791382,0.1847805082798004
1757614242042080800,26.867080810546877,-0.8661105632781982,-1.5155812501907349,0.1509263962507248
1757614242052036600,26.87703662109375,-0.3496227264404297,-1.0916603803634644,-0.0510099194943904
1757614242061992700,26.88699267578125,0.687693178653717,-0.0438566692173481,-0.4227768182754516
1757614242071948500,26.896948486328125,1.2263273000717163,0.3844696581363678,-0.4409315884113312
1757614242081903400,26.9069033203125,0.1695853024721145,0.2113364785909652,-0.0728606283664703
1757614242091859500,26.916859375,-1.7898415327072144,1.0445431470870972,0.1661506295204162
1757614242101815600,26.926815673828123,-3.2778899669647217,2.40289044380188,-0.0247490219771862
1757614242111771600,26.936771728515627,-3.67940354347229,3.09869384765625,-0.5691398978233337
1757614242121727500,26.9467275390625,-3.21638298034668,2.8274929523468018,-1.0376112461090088
1757614242131683600,26.95668359375,-2.236075162887573,2.233359813690185,-1.076521873474121
1757614242141639400,26.966639404296878,-1.1229889392852783,2.099266529083252,-0.7326062917709351
1757614242151595500,26.976595458984374,-0.2815648317337036,2.2134506702423096,-0.3614239692687988
1757614242161551400,26.98655126953125,-0.0209236573427915,2.3013787269592285,-0.1231134086847305
1757614242171507700,26.9965078125,-0.2940968573093414,2.379750490188598,-0.0111610414460301
1757614242181463600,27.00646362304688,-0.7218663096427917,2.391646385192871,0.0047409594990313
1757614242191419600,27.016419677734376,-0.9682457447052002,2.265072822570801,-0.0160569977015256
1757614242201375500,27.02637548828125,-1.0060945749282837,2.0062508583068848,-0.0641382411122322
1757614242211331600,27.03633154296875,-0.9515272378921508,1.7326014041900637,-0.1360121667385101
1757614242221287400,27.046287353515623,-0.893623411655426,1.5526047945022583,-0.1760964691638946
1757614242231242800,27.05624267578125,-0.8771669864654541,1.55726158618927,-0.1585931032896042
1757614242241198600,27.06619848632813,-0.8969625234603882,1.7435294389724731,-0.0933832079172134
1757614242251154700,27.07615478515625,-0.9281148314476012,2.0429177284240723,0.0003299656673334
1757614242261110500,27.08611059570313,-0.948095440864563,2.369392871856689,0.0961481034755706
1757614242271066600,27.096066650390625,-0.9429595470428468,2.6699776649475098,0.1867816001176834
1757614242281022500,27.1060224609375,-0.9265430569648744,2.94119644165039,0.2698692977428436
1757614242290978300,27.115978271484376,-0.9235877394676208,3.206278085708618,0.3511984944343567
1757614242300934700,27.1259345703125,-0.9346137642860411,3.4918324947357178,0.4298560321331024
1757614242310890500,27.135890380859376,-0.9588631391525269,3.791449546813965,0.4956275820732116
1757614242320846600,27.1458466796875,-0.9755436182022096,4.087699890136719,0.5513845682144165
1757614242330802400,27.15580249023437,-0.9691099524497986,4.33299732208252,0.5794873237609863
1757614242340758500,27.165758544921875,-0.92417573928833,4.51988410949707,0.5411836504936218
1757614242350714400,27.17571435546875,-0.8423325419425964,4.58850622177124,0.4303404688835144
1757614242360670500,27.18567041015625,-0.7030843496322632,4.500909328460693,0.2849614322185516
1757614242370626600,27.19562646484375,-0.4768842756748199,4.178477764129639,0.1429901719093322
1757614242380581600,27.20558154296875,-0.1230050176382064,3.5799715518951416,0.0728132203221321
1757614242390537500,27.215537353515625,0.3324437141418457,2.6740119457244877,0.1021982729434967
1757614242400493600,27.22549365234375,0.7530945539474487,1.4748578071594238,0.1773172616958618
1757614242410449400,27.235449462890625,1.116869568824768,0.0610782690346241,0.2536112368106842
1757614242420405500,27.245405517578124,1.4176256656646729,-1.441946506500244,0.2654851973056793
1757614242430361600,27.255361572265624,1.7171173095703125,-2.8098950386047363,0.1771175265312194
1757614242440317700,27.265317626953124,2.097196578979492,-3.805452585220337,0.0239721778780221
1757614242450273500,27.2752734375,2.580852508544922,-4.315659999847412,-0.2002441436052322
1757614242460229600,27.285229736328127,3.189560890197754,-4.315629005432129,-0.5073420405387878
1757614242470185500,27.295185546875,4.04377031326294,-3.904447555541992,-0.9312413930892944
1757614242480141600,27.3051416015625,5.322242259979248,-3.162987232208252,-1.4747902154922483
1757614242490097400,27.31509741210937,6.985489368438721,-2.4632644653320312,-1.8923327922821045
1757614242500053800,27.3250537109375,8.074169158935547,-2.404993772506714,-1.794353723526001
1757614242510008600,27.33500854492188,7.183653354644775,-2.801762104034424,-1.280669927597046
1757614242519964400,27.34496435546875,4.252026081085205,-2.0305895805358887,-0.8298079371452332
1757614242529920500,27.35492041015625,1.1483862400054932,-0.5869668126106262,-0.6745267510414124
1757614242539876400,27.36487646484375,-0.1563384681940078,0.280000239610672,-0.6681658029556274
1757614242549832700,27.37483276367188,-0.083010196685791,0.2931951284408569,-0.8948413133621216
1757614242559788500,27.38478857421875,0.5878257155418396,-0.2807895839214325,-1.2212084531784058
1757614242569744600,27.39474462890625,1.3575825691223145,-1.11180317401886,-1.5036380290985107
1757614242579700500,27.404700439453126,1.9598559141159055,-1.9365806579589844,-1.6986325979232788
1757614242589656600,27.414656494140623,2.3564202785491943,-2.708781480789185,-1.768045425415039
1757614242599612400,27.4246123046875,2.539128541946411,-3.3658249378204346,-1.7666345834732056
1757614242609568500,27.434568603515626,2.406794786453247,-3.815743207931519,-1.7107675075531006
1757614242619524400,27.4445244140625,1.9478142261505127,-3.988418102264404,-1.6245194673538208
1757614242629480700,27.454480712890625,1.3199518918991089,-3.908358573913574,-1.5164399147033691
1757614242639436500,27.4644365234375,0.6810815930366516,-3.7708334922790527,-1.391021490097046
1757614242649391600,27.4743916015625,0.1137100532650947,-3.760371685028076,-1.278716206550598
1757614242659347500,27.484347412109376,-0.3427829146385193,-3.921119213104248,-1.1980559825897217
1757614242669303600,27.494303466796875,-0.6644418835639954,-4.189793109893799,-1.1375503540039062
1757614242679259600,27.504259765625,-0.8638178706169128,-4.487224102020264,-1.0143229961395264
1757614242689215700,27.5142158203125,-0.9549067616462708,-4.769351959228516,-0.8326687216758728
1757614242699171600,27.52417163085937,-0.9467638731002808,-4.91246509552002,-0.61431485414505
1757614242709127700,27.534127685546878,-0.8507079482078552,-4.723985195159912,-0.3458210527896881
