time,seconds_elapsed,z,y,x
1759649951839027200,28.38602709960937,-0.5478578805923462,-2.3297181129455566,-0.4519439935684204
1759649951849110000,28.39611010742188,-0.2724210023880005,-2.405505418777466,-0.3484058976173401
1759649951859193000,28.406193115234377,-0.0590239912271499,-2.568605661392212,-0.2709925472736358
1759649951869276200,28.416276123046877,0.0479448027908802,-2.767646312713623,-0.1970900744199752
1759649951879360300,28.4263603515625,0.066389299929142,-2.900956153869629,-0.1188464760780334
1759649951889443000,28.436443115234376,0.0498747676610946,-2.947413206100464,-0.0516557246446609
1759649951899526100,28.44652612304688,0.0630719810724258,-2.8900763988494877,-0.0227483548223972
1759649951909609000,28.45660888671875,0.1353563070297241,-2.7261669635772705,-0.0309058856219053
1759649951919692500,28.46669262695313,0.2413228005170822,-2.458611011505127,-0.0972180590033531
1759649951929776600,28.476776611328123,0.3507888615131378,-2.109220266342163,-0.2136128395795822
1759649951939859700,28.486859619140624,0.4257611334323883,-1.7278399467468262,-0.3485841751098633
1759649951949942500,28.496942626953125,0.4265265166759491,-1.3712373971939087,-0.4932340383529663
1759649951960025600,28.507025634765625,0.3569671511650085,-1.041165828704834,-0.6366313695907593
1759649951970108400,28.5171083984375,0.2177951484918594,-0.72539883852005,-0.7561798691749573
1759649951980192800,28.52719287109375,0.0583555921912193,-0.3265859186649322,-0.787081241607666
1759649951990275600,28.537275634765624,-0.0458871908485889,0.1843982636928558,-0.6544387936592102
1759649952000358700,28.547358642578125,-0.043620228767395,0.7660452723503113,-0.3689674735069275
1759649952010441500,28.55744140625,0.0317482948303222,1.29938805103302,0.0043525793589651
1759649952020524500,28.567524658203126,0.1565416753292083,1.7433717250823977,0.3773555159568786
1759649952030608600,28.577608642578124,0.2848860621452331,2.100359916687012,0.6837196946144104
1759649952040691700,28.587691650390624,0.3772071003913879,2.415055274963379,0.91497004032135
1759649952050774500,28.5977744140625,0.4357723891735077,2.702049493789673,1.137444019317627
1759649952060857600,28.607857666015622,0.4568870961666107,2.930571317672729,1.3339059352874756
1759649952070940400,28.6179404296875,0.4505695402622223,3.124756097793579,1.4039005041122437
1759649952081024800,28.628024658203124,0.4277352690696716,3.333660840988159,1.3866523504257202
1759649952091107600,28.638107666015625,0.4581807851791382,3.571094751358032,1.4529187679290771
1759649952101190700,28.648190673828125,0.911367416381836,3.4340624809265137,1.4762287139892578
1759649952111273500,28.6582734375,1.7892462015151978,2.731102705001831,1.1084246635437012
1759649952121356500,28.6683564453125,2.4149227142333984,2.295387983322144,0.5857906937599182
1759649952131439600,28.678439697265624,2.6112842559814453,1.4651871919631958,0.2166499197483062
1759649952141523700,28.688523681640625,2.468612670898437,0.841894268989563,0.2173736840486526
1759649952151606500,28.6986064453125,2.103144645690918,1.1529783010482788,0.1473719626665115
1759649952161689600,28.708689697265623,1.779630184173584,1.3185371160507202,-0.0035858666524291
1759649952171772400,28.7187724609375,1.6059061288833618,1.2913732528686523,-0.2771156728267669
1759649952181855700,28.728855712890624,1.404790997505188,1.4429532289505005,-0.49854576587677
1759649952191939600,28.738939697265625,1.104860782623291,1.6795673370361328,-0.6475200653076172
1759649952202022700,28.74902270507813,0.8237348794937134,1.8807990550994875,-0.7164814472198486
1759649952212105500,28.75910546875,0.6098567247390747,1.973779797554016,-0.7214575409889221
1759649952222188500,28.7691884765625,0.4874866306781769,2.0337512493133545,-0.6832631826400757
1759649952232271600,28.779271728515624,0.43565434217453,2.037452220916748,-0.609200656414032
1759649952242355700,28.789355712890625,0.4202739298343658,1.978028893470764,-0.4821569621562958
1759649952252438500,28.7994384765625,0.4079762399196625,1.9170397520065308,-0.3269021213054657
1759649952262521600,28.809521484375,0.3862383067607879,1.8392605781555176,-0.1811260282993316
1759649952272604400,28.8196044921875,0.3580194413661957,1.7590482234954834,-0.0607980228960514
1759649952282687700,28.829687744140625,0.3328056633472442,1.6802163124084473,0.030018301680684
1759649952292771600,28.839771484375,0.3235311806201935,1.6579358577728271,0.0945469588041305
1759649952302854700,28.84985473632813,0.3228441476821899,1.6813156604766846,0.1252083331346511
1759649952312937500,28.8599375,0.3394175469875335,1.7257283926010132,0.1376908272504806
1759649952323020500,28.8700205078125,0.3800797164440155,1.7822182178497314,0.1462941318750381
1759649952333103600,28.880103515625,0.4415870308876037,1.826207518577576,0.1706210374832153
1759649952343187500,28.8901875,0.5092533826828003,1.828150749206543,0.2153269350528717
1759649952353270500,28.9002705078125,0.5464521646499634,1.723899483680725,0.2753830552101135
1759649952363353600,28.910353515625,0.5422077775001526,1.47182297706604,0.3388574421405792
1759649952373436700,28.920436767578124,0.4806413352489471,1.0638093948364258,0.3730390965938568
1759649952383519700,28.930519775390625,0.3540030717849731,0.4995308816432953,0.3923996388912201
1759649952393602600,28.9406025390625,0.1524427831172943,-0.1819187402725219,0.4105703830718994
1759649952403686400,28.950686279296875,-0.1329560875892639,-0.980125904083252,0.4208776652812958
1759649952413769500,28.96076953125,-0.5571321249008179,-1.9738221168518064,0.4108228981494903
1759649952423852800,28.970852783203124,-1.1717159748077393,-3.051729440689087,0.3455041050910949
1759649952433935600,28.980935546875,-1.9256556034088133,-3.988537549972534,0.2581468224525451
1759649952444018700,28.99101879882813,-2.670518159866333,-4.683243751525879,0.1882570087909698
1759649952454102500,29.0011025390625,-3.2873661518096924,-5.018586158752441,0.0758899897336959
1759649952464185600,29.011185546875,-3.673130989074707,-4.902560234069824,-0.0999652296304702
1759649952474268700,29.0212685546875,-3.7233011722564697,-4.599863052368164,-0.1784805357456207
1759649952484351700,29.031351806640625,-3.4147305488586426,-4.492706775665283,-0.3412556648254394
1759649952494434600,29.0414345703125,-2.759863376617432,-4.654460430145264,-0.6925734281539917
1759649952504518400,29.051518310546875,-2.1197056770324707,-4.44191312789917,-0.9240951538085938
1759649952514601500,29.0616015625,-2.021850109100342,-3.583162546157837,-0.914661467075348
1759649952524684500,29.0716845703125,-2.273890972137451,-2.548121213912964,-0.8061912059783936
1759649952534767600,29.081767578125,-2.487468242645264,-1.767109751701355,-0.6298398971557617
1759649952544850700,29.0918505859375,-2.4107329845428467,-1.2879655361175537,-0.4601522088050842
1759649952554933500,29.10193359375,-2.078315496444702,-1.1564985513687134,-0.3548689186573028
1759649952565017300,29.112017333984376,-1.6120511293411257,-1.33384370803833,-0.3603915572166443
1759649952575100700,29.1221005859375,-1.1855664253234863,-1.7626174688339231,-0.4091942608356476
1759649952585183700,29.132183837890626,-0.8598233461380005,-2.2147481441497803,-0.4203918278217315
1759649952595266600,29.1422666015625,-0.6273322701454163,-2.4967033863067627,-0.3802771866321563
1759649952605349600,29.152349609375,-0.4135632514953613,-2.550466775894165,-0.3367664515972137
1759649952615433700,29.162433837890624,-0.1898534893989563,-2.4326930046081543,-0.3167525827884674
1759649952625516500,29.1725166015625,0.0351565852761268,-2.194605588912964,-0.3225771486759186
1759649952635599600,29.182599609375,0.2330882996320724,-1.835532307624817,-0.3450478315353393
1759649952645682700,29.1926826171875,0.4186225533485412,-1.4225794076919556,-0.3598439395427704
1759649952655765500,29.202765625,0.5964357256889343,-1.0424832105636597,-0.3639664947986603
1759649952665849600,29.212849609375,0.7786733508110046,-0.7306368947029114,-0.3608915507793426
1759649952675932700,29.2229326171875,0.971050262451172,-0.4793703258037567,-0.3538483083248138
1759649952686015500,29.23301538085937,1.1511965990066528,-0.2663539350032806,-0.3425503671169281
1759649952696098600,29.2430986328125,1.311827540397644,-0.0791166573762893,-0.3477384746074676
1759649952706181600,29.253181640625,1.432869791984558,0.0636356845498085,-0.3700694143772125
1759649952716265700,29.263265625,1.526769757270813,0.3128348588943481,-0.3592476546764374
1759649952726348500,29.2733486328125,1.6276514530181885,0.7551288604736328,-0.254392921924591
1759649952736431600,29.283431640625,1.8083466291427608,1.3458020687103271,-0.0376015119254589
1759649952746514400,29.293514404296875,2.048318386077881,1.959851145744324,0.2933036088943481
1759649952756597500,29.303597412109376,2.313763380050659,2.477766513824463,0.6889215707778931
1759649952766680600,29.3136806640625,2.5366506576538086,2.807485342025757,1.0941253900527954
1759649952776764700,29.3237646484375,2.666492223739624,2.932710886001587,1.472824215888977
1759649952786847500,29.33384741210937,2.6513593196868896,2.935556650161743,1.8838790655136108
1759649952796930600,29.3439306640625,2.4708948135375977,2.7740707397460938,2.396370887756348
1759649952807013600,29.354013671875,2.112706184387207,2.199670791625977,2.612391948699951
1759649952817096400,29.36409643554688,1.6531528234481812,1.764801025390625,2.169611930847168
1759649952827180500,29.3741806640625,1.48798668384552,2.6746184825897217,1.6153991222381592
1759649952837263600,29.384263671875,2.0469613075256348,4.322627544403076,1.3378078937530518
1759649952847346400,29.39434643554688,2.9024863243103027,5.120891571044922,1.317638278007507
1759649952857429500,29.404429443359376,3.524440050125122,4.874308109283447,1.235769510269165
1759649952867512600,29.4145126953125,3.732118606567383,4.292226791381836,1.284153699874878
1759649952877596700,29.4245966796875,3.595033645629883,3.701655387878418,1.327341914176941
1759649952887679500,29.43467944335937,3.2225546836853027,3.4725799560546875,1.255940556526184
1759649952897762600,29.44476245117188,2.596837043762207,3.5439252853393555,1.1153924465179443
1759649952907845400,29.454845458984376,1.974509119987488,3.751400232315064,0.9003450274467468
1759649952917927400,29.464927490234373,1.5022568702697754,3.835318803787232,0.5579503774642944
1759649952928010500,29.475010498046878,1.1364262104034424,3.633710384368897,0.2115637063980102
1759649952938094600,29.485094482421875,0.8392102122306824,3.256438732147217,-0.0474279150366783
1759649952948177700,29.495177734375,0.6212195754051208,2.843608856201172,-0.169012576341629
1759649952958260500,29.50526049804688,0.4672558009624481,2.5207736492156982,-0.1671571582555771
1759649952968343600,29.515343505859374,0.3679950535297394,2.230813980102539,-0.0836640372872352
1759649952978426400,29.52542626953125,0.3194818496704101,1.9242477416992188,0.0191251952201128
1759649952988510700,29.5355107421875,0.3216755390167236,1.6093753576278689,0.1132948994636535
1759649952998593500,29.545593505859376,0.3336549699306488,1.389164686203003,0.1759982258081436
1759649953008676600,29.55567651367188,0.347291350364685,1.2018318176269531,0.2139942348003387
1759649953018759400,29.56575952148437,0.3744721114635467,1.0222735404968262,0.2587137520313263
1759649953028842500,29.575842529296875,0.3989438712596893,0.8874198198318481,0.3085491955280304
1759649953038926600,29.585926513671875,0.4281299710273742,0.7477575540542603,0.3670876026153564
1759649953049009700,29.596009765625,0.4464819729328155,0.5928119421005249,0.4459128677845001
1759649953059092500,29.606092529296877,0.4093396663665771,0.4323343932628631,0.5302938222885132
1759649953069175600,29.61617553710937,0.2936755716800689,0.2576759755611419,0.6165524125099182
1759649953079258400,29.62625830078125,0.0863064005970954,0.0789203718304634,0.6938754320144653
1759649953089341700,29.636341796875,-0.211412712931633,-0.1013720482587814,0.7425261735916138
1759649953099425500,29.646425537109376,-0.5369786024093628,-0.2949612140655517,0.7653174996376038
1759649953109508600,29.656508544921877,-0.8354620933532715,-0.5168302059173584,0.7651658654212952
1759649953119591400,29.66659130859375,-1.1024872064590454,-0.7783774137496948,0.7259971499443054
1759649953129674500,29.676674560546875,-1.3662647008895874,-1.0935932397842407,0.6432459950447083
1759649953139757600,29.686757568359376,-1.6233547925949097,-1.5271265506744385,0.5189834237098694
1759649953149841700,29.696841552734377,-1.8920295238494875,-2.0823423862457275,0.3783425092697143
1759649953159924500,29.706924560546877,-2.1794230937957764,-2.791293144226074,0.2232373356819152
1759649953170007600,29.71700756835937,-2.5111029148101807,-3.675239086151123,0.0155887780711054
1759649953180090400,29.72709033203125,-2.8959553241729736,-4.5694355964660645,-0.2368621081113815
1759649953190173700,29.737173583984376,-3.2571592330932617,-5.25808572769165,-0.5099511742591858
1759649953200256500,29.74725659179688,-3.465156555175781,-5.734896183013916,-0.8345353603363037
1759649953210340600,29.757340576171877,-3.400820016860962,-6.154505252838135,-1.1751084327697754
1759649953220423400,29.76742333984375,-2.991098165512085,-6.0605082511901855,-1.532853603363037
1759649953230506500,29.777506591796875,-2.664975643157959,-5.034285068511963,-1.7255470752716064
1759649953240589600,29.787589599609376,-2.687577247619629,-3.6461896896362314,-1.6581920385360718
1759649953250672600,29.79767260742188,-2.829505443572998,-2.40523362159729,-1.4760023355484009
1759649953260756500,29.807756591796878,-2.8759565353393555,-1.4704453945159912,-1.294726848602295
1759649953270839600,29.81783959960937,-2.745134830474853,-0.9199772477149964,-1.109176516532898
1759649953280922600,29.82792260742188,-2.376843214035034,-0.755842924118042,-0.9541829824447632
1759649953291005700,29.838005615234376,-1.7512210607528689,-0.8199742436408997,-0.8122699856758118
1759649953301088500,29.848088623046877,-1.0863546133041382,-0.8185212016105652,-0.7214420437812805
1759649953311172600,29.858172607421874,-0.5342682003974915,-0.6973789930343628,-0.697556734085083
1759649953321255400,29.86825537109375,-0.0813116058707237,-0.6039185523986816,-0.6869637370109558
1759649953331338800,29.8783388671875,0.2756693065166473,-0.7130599021911621,-0.6470615267753601
1759649953341421600,29.888421630859376,0.527226448059082,-1.0019862651824951,-0.5884711742401123
1759649953351504600,29.898504638671877,0.6970868110656738,-1.2675979137420654,-0.5039175152778625
1759649953361587500,29.90858740234375,0.844190239906311,-1.380420804023743,-0.410260796546936
1759649953371671600,29.91867163085937,1.0067921876907349,-1.3370572328567505,-0.352627545595169
1759649953381754600,29.92875463867188,1.1750472784042358,-1.1536638736724854,-0.357714980840683
1759649953391837700,29.938837646484377,1.34208083152771,-0.8682869672775269,-0.4134309589862823
1759649953401920500,29.94892041015625,1.4771132469177246,-0.4869247078895569,-0.4898258745670318
1759649953412003600,29.95900366210937,1.5535027980804443,-0.1197253391146659,-0.5703601241111755
1759649953422087400,29.96908740234375,1.5269038677215576,0.1788698881864547,-0.6508512496948242
1759649953432170800,29.97917065429688,1.3628851175308228,0.3096467852592468,-0.7285037040710449
1759649953442253600,29.989253662109373,1.1415032148361206,0.3649454414844513,-0.753143310546875
1759649953452336600,29.999336669921878,0.972421944141388,0.5021315217018127,-0.647929847240448
1759649953462419500,30.00941943359375,0.8907196521759033,0.8397260904312134,-0.37553271651268
1759649953472503300,30.01950341796875,0.8984008431434631,1.2977912425994873,0.0176347084343433
1759649953482586600,30.02958666992188,0.993238925933838,1.735149383544922,0.4381334483623504
1759649953492669700,30.039669677734373,1.1161435842514038,2.0551233291625977,0.811227560043335
1759649953502752500,30.04975244140625,1.2037652730941772,2.2254440784454346,1.0867384672164917
1759649953512835600,30.05983569335937,1.213445067405701,2.2795891761779785,1.2715522050857544
1759649953522918400,30.06991845703125,1.1330711841583252,2.199495792388916,1.3844044208526611
1759649953533002500,30.08000244140625,0.9819640517234802,2.062102794647217,1.4565247297286987
1759649953543085600,30.09008544921875,0.7888066172599792,2.0182301998138428,1.4744633436203003
1759649953553168600,30.100168701171874,0.5810493230819702,2.1660525798797607,1.4778352975845337
1759649953563251500,30.11025146484375,0.3495215773582458,2.422032356262207,1.561293125152588
1759649953573334500,30.12033447265625,0.1265401393175125,2.6887688636779785,1.7730679512023926
1759649953583418600,30.13041870117188,0.2177278399467468,2.8706626892089844,2.058967351913452
1759649953593501400,30.14050146484375,0.837421178817749,3.358942985534668,2.0827133655548096
1759649953603584500,30.15058447265625,1.504550218582153,3.791686773300171,1.8795381784439087
1759649953613667600,30.16066748046875,1.856496810913086,3.763785362243652,1.7255061864852903
1759649953623750400,30.17075048828125,1.77241313457489,3.5091705322265625,1.764814376831055
1759649953633833700,30.180833740234377,1.4031940698623655,3.112536668777466,1.772727370262146
1759649953643917600,30.19091748046875,1.0002007484436035,2.8042781352996826,1.5205379724502563
1759649953654000600,30.201000732421875,0.512946367263794,2.700392007827759,0.9864519834518432
1759649953664083500,30.21108349609375,0.0824335664510726,2.4810028076171875,0.2986360490322113
1759649953674166500,30.22116650390625,-0.2264769375324249,2.1333281993865967,-0.276366114616394
1759649953684249600,30.23124951171875,-0.4368149936199188,1.7632709741592407,-0.5940127968788147
1759649953694333400,30.24133349609375,-0.5418912768363953,1.4434908628463743,-0.6905436515808105
1759649953704416500,30.25141650390625,-0.575086772441864,1.1894450187683103,-0.6759732365608215
1759649953714499600,30.26149951171875,-0.5715761780738831,1.0122445821762085,-0.6561942100524902
1759649953724582400,30.27158251953125,-0.5400151014328003,0.8877249956130981,-0.6371334195137024
1759649953734665700,30.281665771484374,-0.5170654058456421,0.7784631848335266,-0.6342940330505371
1759649953744749600,30.29174951171875,-0.5025759339332581,0.6963701844215393,-0.6274006962776184
1759649953754832400,30.301832275390623,-0.503587007522583,0.6409041285514832,-0.6362295150756836
1759649953764915500,30.31191552734375,-0.5272598266601562,0.6178308129310608,-0.6434227228164673
1759649953774998500,30.32199853515625,-0.5576275587081909,0.5951290130615234,-0.6592777967453003
1759649953785081600,30.33208154296875,-0.5906688570976257,0.578046441078186,-0.6873107552528381
1759649953795165400,30.34216552734375,-0.6155157685279846,0.5472201108932495,-0.7262941002845764
1759649953805248500,30.35224853515625,-0.6329741477966309,0.4856158792972564,-0.7604802846908569
1759649953815331600,30.36233154296875,-0.6289120316505432,0.4061378836631775,-0.7643997669219971
1759649953825414400,30.372414306640625,-0.6058613061904907,0.312437504529953,-0.7388818860054016
1759649953835497700,30.38249780273437,-0.571459949016571,0.2068265825510025,-0.6696949005126953
1759649953845580500,30.39258056640625,-0.5500375032424927,0.0492023341357708,-0.5530087351799011
1759649953855664400,30.402664306640624,-0.5998269319534302,-0.2194801717996597,-0.4200566709041595
1759649953865747500,30.41274755859375,-0.7851206064224243,-0.6267478466033936,-0.279518187046051
1759649953875830500,30.42283056640625,-1.138495683670044,-1.100663423538208,-0.135448157787323
1759649953885913600,30.43291357421875,-1.6069436073303225,-1.6249231100082395,0.010019289329648
1759649953895996700,30.44299658203125,-2.0826401710510254,-2.2807652950286865,0.1579077690839767
1759649953906080500,30.45308056640625,-2.546319961547852,-3.141852617263794,0.2363248169422149
1759649953916163300,30.463163330078125,-2.9782283306121826,-3.9691321849823,0.1953142434358596
1759649953926246700,30.47324658203125,-3.3688015937805176,-4.415564060211182,0.1309719979763031
1759649953936329700,30.48332983398437,-3.5704824924468994,-4.406546592712402,0.2757053971290588
1759649953946412500,30.49341259765625,-3.3851964473724365,-4.330100059509277,0.5148316621780396
1759649953956495600,30.50349560546875,-2.6938140392303467,-4.435347080230713,0.4169299006462097
1759649953966579500,30.513579345703125,-1.9014214277267456,-4.447378158569336,-0.0489075668156147
1759649953976662500,30.52366259765625,-1.5262669324874878,-3.6972086429595943,-0.0518803633749485
1759649953986745600,30.53374560546875,-1.4138211011886597,-2.5999488830566406,0.3458558022975921
1759649953996828700,30.54382861328125,-1.4721732139587402,-1.8792052268981931,0.5964387655258179
1759649954006911500,30.553911376953124,-1.6308883428573608,-1.6856144666671753,0.6807693839073181
1759649954016995300,30.563995361328125,-1.7226355075836182,-1.8989132642745967,0.6317427754402161
1759649954027078700,30.57407861328125,-1.6066540479660034,-2.2188880443573,0.5525187849998474
1759649954037161500,30.584161376953126,-1.299716830253601,-2.613603353500366,0.4567086398601532
1759649954047244500,30.59424462890625,-0.8884028196334839,-2.764955282211304,0.3256949782371521
1759649954057327600,30.60432763671875,-0.417557954788208,-2.5640015602111816,0.2436168640851974
1759649954067411500,30.614411376953125,0.0779404714703559,-2.1908328533172607,0.234732300043106
1759649954077494500,30.62449462890625,0.5146990418434143,-1.7679356336593628,0.2346484661102295
1759649954087577600,30.63457763671875,0.8846414089202881,-1.4150176048278809,0.2274632602930069
1759649954097660400,30.644660400390624,1.2075974941253662,-1.2168984413146973,0.2246212810277938
1759649954107743500,30.654743408203124,1.4945241212844849,-1.2086645364761353,0.174384206533432
1759649954117827300,30.664827392578125,1.7281354665756226,-1.2329787015914917,0.0651802271604538
1759649954127910700,30.67491064453125,1.9012800455093384,-1.1345572471618652,-0.0397762805223465
1759649954137993500,30.684993408203123,1.9940118789672847,-0.951684832572937,-0.1031555533409118
1759649954148076500,30.69507666015625,1.977751851081848,-0.7559811472892761,-0.1255777776241302
1759649954158159600,30.70515966796875,1.8674486875534055,-0.5214315056800842,-0.1597797572612762
1759649954168242400,30.715242431640625,1.6950894594192505,-0.371908575296402,-0.2570711672306061
1759649954178326500,30.725326416015623,1.5087990760803225,-0.2853704690933227,-0.3270363211631775
1759649954188409600,30.73540966796875,1.356754183769226,-0.1376763582229614,-0.2529061734676361
1759649954198492400,30.745492431640624,1.2697151899337769,0.2635924220085144,-0.0083069372922182
1759649954208575500,30.755575439453125,1.2604455947875977,0.8570762872695923,0.2955213785171509
1759649954218658600,30.765658447265626,1.3091720342636108,1.4581125974655151,0.5193154811859131
1759649954228742700,30.77574267578125,1.3625513315200806,1.9470423460006716,0.6130989193916321
1759649954238825500,30.785825439453124,1.356464982032776,2.319262742996216,0.6310451626777649
1759649954248908500,30.795908447265624,1.2845224142074585,2.5465850830078125,0.6356803774833679
1759649954258991400,30.805991455078125,1.1612993478775024,2.6245574951171875,0.6551344394683838
1759649954269074400,30.816074462890622,1.0225830078125,2.6053168773651123,0.7016542553901672
1759649954279157800,30.82615771484375,0.8966633081436157,2.505364179611206,0.8045142292976379
1759649954289241600,30.83624169921875,0.7915506958961487,2.3348891735076904,0.9979715943336488
1759649954299324400,30.846324462890625,0.6841973662376404,2.108365297317505,1.2161409854888916
1759649954309407500,30.856407470703125,0.6048932075500488,1.9054163694381716,1.49169659614563
1759649954319490600,30.866490478515622,0.7693637609481812,1.7629188299179075,1.7449805736541748
1759649954329573600,30.87657373046875,1.377800226211548,1.8524681329727173,1.7011356353759766
1759649954339657500,30.886657470703124,2.2192890644073486,2.053514242172241,1.553540825843811
1759649954349740500,30.896740478515625,2.853025197982788,1.952436447143555,1.4666632413864136
1759649954359823400,30.9068232421875,3.1015512943267822,1.4803037643432615,1.5521310567855835
1759649954369906400,30.916906494140623,2.9454033374786377,1.4096362590789795,1.748753309249878
1759649954379989500,30.926989501953123,2.540568590164185,2.1635777950286865,1.7110615968704224
1759649954390073600,30.937073486328124,2.0685832500457764,3.2942371368408203,1.3793131113052368
1759649954400156400,30.947156494140625,1.7213753461837769,4.0699992179870605,0.7989925742149353
1759649954410239500,30.95723950195313,1.4906136989593506,4.344095230102539,0.104139469563961
1759649954420322300,30.967322265625,1.3402347564697266,4.283761501312256,-0.4599819183349609
1759649954430405600,30.977405517578124,1.2958580255508425,4.095550537109375,-0.8118762969970703
1759649954440489500,30.987489501953124,1.3408193588256836,3.851596355438232,-0.9949795007705688
1759649954450572500,30.997572509765625,1.400489091873169,3.556610107421875,-1.0459445714950562
1759649954460655400,31.0076552734375,1.4154554605484009,3.126210451126098,-1.0604877471923828
1759649954470738700,31.01773876953125,1.3270843029022217,2.517405271530152,-1.0415537357330322
1759649954480821500,31.027821533203124,1.1721466779708862,1.8343312740325928,-0.9712170362472534
1759649954490904600,31.037904541015624,0.9966022968292236,1.1938445568084717,-0.8340591788291931
1759649954500988400,31.047988525390625,0.8278922438621521,0.7206764817237854,-0.6872220635414124
1759649954511071500,31.05807153320313,0.6747162938117981,0.4707260727882385,-0.5716310739517212
1759649954521154600,31.068154541015623,0.5548374056816101,0.3690878450870514,-0.468814879655838
1759649954531237600,31.078237548828124,0.4685139954090118,0.2966858148574829,-0.382104754447937
1759649954541320400,31.088320556640625,0.4247195124626159,0.1909469068050384,-0.3015392422676086
1759649954551404500,31.098404541015626,0.3799251317977905,0.0450743846595287,-0.2000922709703445
1759649954561487400,31.1084873046875,0.2884836196899414,-0.163984477519989,-0.0728159248828888
1759649954571570700,31.11857080078125,0.0990116745233535,-0.4159994125366211,0.0795123651623725
1759649954581653500,31.128653564453124,-0.1826888620853424,-0.6924203634262085,0.2326323986053466
1759649954591736600,31.138736572265625,-0.5353832244873047,-0.9442973732948304,0.381969690322876
1759649954601819400,31.1488193359375,-0.945151150226593,-1.180350422859192,0.5061585307121277
1759649954611903500,31.158903564453126,-1.3623744249343872,-1.333871841430664,0.583835780620575
1759649954621986600,31.168986572265624,-1.7513293027877808,-1.4169890880584717,0.6127067804336548
1759649954632069600,31.179069580078124,-2.10528302192688,-1.4777477979660034,0.5951977968215942
1759649954642152400,31.18915234375,-2.4123311042785645,-1.6034327745437622,0.5367357730865479
1759649954652235500,31.19923559570313,-2.695807933807373,-1.8847815990448,0.4870922863483429
1759649954662319400,31.2093193359375,-2.985714673995972,-2.3288052082061768,0.4649602472782135
1759649954672402700,31.219402587890624,-3.270120859146118,-2.906869411468506,0.4059107899665832
1759649954682485500,31.229485595703125,-3.544459581375122,-3.4611833095550537,0.2731156051158905
1759649954692568600,31.239568603515625,-3.789489269256592,-3.795186042785645,0.1756987422704696
1759649954702651400,31.2496513671875,-3.873530626296997,-4.164920330047607,0.1608461886644363
1759649954712735500,31.259735595703123,-3.53849720954895,-4.715351581573486,0.1753345876932144
1759649954722818600,31.269818603515624,-2.8044188022613525,-4.915750503540039,0.0319308005273342
1759649954732901600,31.279901611328125,-2.2815678119659424,-4.219992160797119,-0.0870435237884521
1759649954742984400,31.289984375,-2.235281229019165,-3.0504701137542725,-0.0131771098822355
1759649954753067500,31.30006762695313,-2.3354995250701904,-1.8041073083877563,0.0591495484113693
1759649954763150300,31.310150390625,-2.532899618148804,-0.9681922793388368,0.1073697656393051
1759649954773234700,31.320234619140624,-2.504144191741944,-0.7741098999977112,-0.0203269440680742
1759649954783317500,31.3303173828125,-1.9935238361358645,-0.793142557144165,-0.2804213464260101
1759649954793400600,31.340400634765626,-1.188530683517456,-0.4157260656356811,-0.6092511415481567
1759649954803483400,31.3504833984375,-0.329034686088562,0.1648487150669098,-0.9173901677131652
1759649954813566500,31.36056640625,0.364561378955841,0.3693208992481231,-1.2366480827331543
1759649954823650600,31.370650634765624,0.8785606622695923,0.1194900497794151,-1.5723917484283447
