time,seconds_elapsed,z,y,x
1758280775951097300,24.909668457031245,-2.4288462725579736,-0.1200444295287132,-1.7562800425849854
1758280775961182500,24.91975341796875,-2.252722812932729,-0.7246662734359502,-1.7655559665828942
1758280775971267300,24.92983837890625,-2.1518056932002305,-1.360656484553218,-1.6393818021275102
1758280775981352400,24.939923583984374,-2.058606600499153,-2.035535521513224,-1.4594376151703297
1758280775991437300,24.950008300781246,-2.0989972092069684,-2.665368963566422,-1.2861943871565162
1758280776001522200,24.960093261718754,-2.1039508860915896,-3.079968586355448,-1.0637629114732146
1758280776011607300,24.970178222656244,-2.232014225294441,-3.2104508232682942,-0.9275971490312368
1758280776021692200,24.98026318359375,-2.2129148264184595,-3.0295483126729725,-0.7465508460510522
1758280776031776500,24.990347656249998,-2.0368430969804523,-2.451471945863962,-0.3969023457959294
1758280776041861400,25.000432373046873,-1.6858523152709006,-1.5996540412425997,0.0208660066897049
1758280776051946500,25.010517578125,-1.1835296931043269,-0.962619289508462,0.3973651775347068
1758280776062031400,25.020602294921876,-0.8119643253996968,-0.7342196992009877,0.7053064700581133
1758280776072116500,25.0306875,-0.7613529130592942,-0.8892512709587812,0.8503387719795107
1758280776082201300,25.040772460937497,-0.775659670831263,-1.1873925060123205,0.6852311388220638
1758280776092286500,25.050857421874998,-0.8732441390097141,-1.0953694713532924,0.3862487767692655
1758280776102371300,25.0609423828125,-1.0212199470371008,-0.2340700371593236,0.2152769277535378
1758280776112456400,25.071027587890622,-1.1089964301675557,1.474554081889987,0.4110165766704827
1758280776122540300,25.081111328124997,-1.1231395218104123,3.9517484980314967,0.5222790762633085
1758280776132625400,25.091196533203124,-1.1981944705337286,6.649804510191083,0.3572434854287654
1758280776142710300,25.101281250000003,-1.45787533428967,8.907409834468364,-0.2432305911492556
1758280776152795400,25.111366455078123,-2.0544629248231647,10.0123210411489,-1.3277102005019783
1758280776162880500,25.12145166015625,-2.648004571789503,10.063976409584283,-2.5646914978086945
1758280776172965400,25.131536376953125,-2.678451147979498,9.360190427091718,-3.7573859096214175
1758280776183050500,25.141621582031245,-2.079123026566207,8.308050441133975,-4.5845393285855645
1758280776193135400,25.151706298828124,-1.5041270901158452,7.36947721312344,-4.81344102319628
1758280776203220500,25.161791503906247,-1.4252344629257916,7.030768405359983,-4.519840061920881
1758280776213305300,25.17187646484375,-1.6358832924872635,6.793772836142778,-3.891485167987645
1758280776223389400,25.18196044921875,-1.863281012275815,6.152418467643857,-3.13566212426573
1758280776233474300,25.19204541015625,-2.1850480375885963,5.528972096279263,-2.4434492367975413
1758280776243559400,25.20213037109375,-2.605226629553735,5.215165674582123,-1.8854275237627327
1758280776253644300,25.212215332031246,-2.682870717987418,4.887593762382864,-1.5046896924346684
1758280776263729400,25.222300537109373,-2.351606965532899,4.229319823265075,-1.3399419055655597
1758280776273814300,25.232385253906244,-1.8363504813827571,3.55063554880321,-1.4076343626968562
1758280776283899400,25.242470458984375,-1.2609276978224515,3.064095309919119,-1.5431075397647915
1758280776293984500,25.2525556640625,-0.7563682565145194,2.4615514413297177,-1.5759711139686403
1758280776304069400,25.262640380859374,-0.4135344777755439,1.580738328370452,-1.601534740422666
1758280776314153500,25.272724609375,-0.483436573780328,0.5097697233021259,-1.6459179258979857
1758280776324238300,25.282809326171876,-0.7887612905971706,-0.5976596036791801,-1.6489092166684567
1758280776334323500,25.29289453125,-1.1111474707216025,-1.6038783809393644,-1.5983420818611975
1758280776344408300,25.302979248046874,-1.2493980035483836,-2.425555998840928,-1.5129311588183043
1758280776354493400,25.313064453124998,-1.2824644068479538,-2.940347934219241,-1.4249804881647228
1758280776364578300,25.3231494140625,-1.2876812647134064,-3.1108611527472734,-1.3428911107599737
1758280776374663400,25.333234375000004,-1.2615771016418933,-2.995129325720668,-1.2086211720019575
1758280776384748300,25.343319335937498,-1.16260702432394,-2.669627205532789,-1.0280503775790333
1758280776394833400,25.353404541015625,-0.9741875622272492,-2.1930413744300603,-0.9111848703473806
1758280776404917200,25.363488281250003,-0.6048258055141196,-1.6814467737883327,-0.8636538883656263
1758280776415002400,25.373573486328123,-0.0904617766916751,-1.2612246349424123,-0.8602624923616647
1758280776425087200,25.383658203124998,0.3693441845238208,-1.0519219592928886,-0.7882605014681816
1758280776435172400,25.393743408203125,0.6169815592646598,-1.1095698461413384,-0.5188537779897451
1758280776445257500,25.403828613281245,0.718379740512371,-1.379203364112973,-0.2168003379285335
1758280776455342300,25.413913330078124,0.7297019295156002,-1.635595123195648,0.2868538251027465
1758280776465427500,25.423998535156247,0.643162294703722,-1.8176929810553788,0.908726079018414
1758280776475512300,25.434083251953123,0.5457588091153651,-2.041958832558989,1.5851204889774322
1758280776485597400,25.44416845703125,0.4511842633426189,-2.2747417525172238,2.266296580255032
1758280776495681300,25.45425244140625,0.4057493037920445,-2.49963070435524,2.942155860424041
1758280776505766400,25.46433740234375,0.3671814900645986,-2.7496663724094628,3.6279546430662273
1758280776515851300,25.474422363281246,0.3314952231228351,-2.960985648578405,4.304040133206546
1758280776525936400,25.484507324218754,0.3254172549160197,-3.088024467039108,5.00604946141541
1758280776536021200,25.494592285156244,0.3569266380319371,-3.200066791898012,5.601649209955334
1758280776546105900,25.504677001953123,0.3610591712594032,-3.305432123211026,5.998612053766847
1758280776556191000,25.514761962890624,0.3180769386231899,-3.301685922420025,6.218319803574681
1758280776566275800,25.524846923828125,0.1990495771825313,-3.313420199355483,6.16431115001142
1758280776576361000,25.534931884765623,-0.0794844556033611,-3.4958594179987905,5.835551489332318
1758280776586444800,25.545015869140624,-0.3695984515458345,-3.678879651400447,5.2720390699267385
1758280776596530000,25.555101074218754,-0.5926239475995302,-3.868783214575052,4.4869495997101065
1758280776606614800,25.565185791015622,-0.5904957033991813,-4.037801226109266,3.4556869820863008
1758280776616700000,25.57527099609375,-0.1516757950564846,-3.976477865618467,2.1809037773907183
1758280776626785000,25.58535595703125,0.4959416889578104,-3.473036760815978,0.9662526775747536
1758280776636870000,25.59544091796875,1.172320609086752,-2.42193430121243,-0.2363824057549238
1758280776646955000,25.605526123046875,2.01528826777637,-0.7622375869393349,-1.3756085544914007
1758280776657040000,25.615610839843754,2.967819293990731,1.4013082284152507,-2.4035534258693456
1758280776667125000,25.625696044921874,3.681607030537725,3.770318164169788,-3.5146833609342574
1758280776677208800,25.635779785156245,4.089373007914424,6.091885965269804,-4.591394309046864
1758280776687294000,25.645864990234372,4.334530256277323,8.024833218967913,-5.20155858951211
1758280776697378800,25.655949951171873,4.427285696864128,9.34030499240458,-4.880576577097178
1758280776707464000,25.666034912109374,4.226953094133735,9.640560443133117,-3.62682213190496
1758280776717548800,25.676119873046876,4.187112082132697,8.955564501306414,-1.8283803792864084
1758280776727634000,25.686205078125,4.125895104625821,7.735866054973005,0.046496378237009
1758280776737719000,25.696290039062497,4.139889143186808,6.304311741375923,1.561104822617769
1758280776747804000,25.706374999999998,3.9996196717530488,4.873792031523585,2.263559848767519
1758280776757889000,25.7164599609375,3.487691016851365,3.578903027388453,2.134700244620442
1758280776767972900,25.7265439453125,2.779009371271729,2.529558809629082,2.1676222710132595
1758280776778058000,25.736629150390623,2.1537017360799013,1.6005337466865777,2.5852386112749577
1758280776788142800,25.7467138671875,1.7110522229790686,0.6744096658825874,3.0348078406363723
1758280776798228000,25.756799072265625,1.209984277048707,-0.2128454628229141,3.308216200971603
1758280776808312800,25.7668837890625,0.6479039362728596,-0.9695727619081737,3.5006413915783163
1758280776818398000,25.776968994140624,0.2659025147497654,-1.529458222988248,3.575629704806208
1758280776828482800,25.787053955078125,-0.0381781202901154,-1.8984931954324245,3.460604564744234
1758280776838568000,25.797138916015623,-0.3393611341923475,-1.9394898072093725,3.334621392816305
1758280776848652800,25.807223876953124,-0.6261468624949454,-1.6689070256888865,3.2138498180568216
1758280776858737000,25.817307861328125,-0.8869283809691667,-1.18192897990942,3.204600343674421
1758280776868821800,25.827392822265622,-1.2860405117690563,-0.7685790649205446,3.2928140491783617
1758280776878907000,25.83747802734375,-1.6929449038803577,-0.6473480559557676,3.5372920831054446
1758280776888991700,25.847562744140625,-1.9265683663159607,-0.9580547580718992,4.073959750205278
1758280776899076900,25.85764794921875,-2.170610346913337,-1.4445312840700149,4.849871642231941
1758280776909162000,25.867732910156246,-2.7602421269595623,-1.6559762324452398,5.523686264830827
1758280776919246800,25.877817871093754,-3.16901757363975,-1.4381588264286518,5.896579081746936
1758280776929332000,25.887903076171874,-2.8950463187247517,-1.195517360278964,5.715730931687355
1758280776939416800,25.89798779296875,-2.2363281429708004,-1.0024065254956482,4.853143503509462
1758280776949501000,25.908072021484372,-1.642850208890438,-0.7647580453276633,3.5259754470601674
1758280776959585800,25.918156738281247,-1.216317571723461,-0.641675855538249,1.969604959487915
1758280776969671000,25.928241943359374,-0.9357727836370467,-0.6509656619310379,0.5122103944525123
1758280776979755800,25.938326904296876,-0.8621358850181102,-0.6244090789169072,-0.7467801978275179
1758280776989841000,25.948411865234373,-1.1064847396075723,-0.3899164324313402,-1.6171104952171445
1758280776999925800,25.958496826171874,-1.3998971925735473,-0.1150590423315763,-1.920813748311996
1758280777010011000,25.968582031249998,-1.3431611598730089,-0.1162812776029109,-1.810355477774143
1758280777020096000,25.9786669921875,-0.8614216723341495,-0.5294914918601512,-1.302987847177684
1758280777030180900,25.988751953125004,-0.0985270097255706,-1.2788415401756763,-0.5802379287570715
1758280777040265000,25.998835937499997,0.6767022337991744,-2.137457434374094,0.1568237158715724
1758280777050349800,26.0089208984375,1.4382558570623396,-2.879649427628517,0.8315063534766435
1758280777060435000,26.019006103515625,2.0296493860840794,-3.329491044190526,1.3420298177555203
1758280777070519800,26.0290908203125,2.4416741899490355,-3.548612518543005,1.653941219486296
1758280777080605000,26.039176025390624,2.6624410934209823,-3.5778123095422982,1.9376102770730848
1758280777090689800,26.0492607421875,2.628149532240629,-3.3671856918126344,2.175297920207679
1758280777100775000,26.059345947265623,2.3921371288418767,-2.939299301949143,2.387979863031953
1758280777110859800,26.069430908203124,2.0210686047434807,-2.381978722921014,2.4361893287971617
1758280777120945000,26.079515869140625,1.473475639003515,-1.5677181032776832,2.342436986127496
1758280777131029800,26.089600830078123,0.9720389328259974,-0.4761468551635742,2.164805313896388
1758280777141114000,26.09968505859375,0.5421732787787914,0.6305190862298011,1.922209294323623
1758280777151199000,26.10977001953125,0.4196072218179703,1.560474708020687,1.7394345601156354
1758280777161284000,26.119855224609374,0.1900362313772551,2.1836007613897324,1.249606823993474
1758280777171369000,26.129939941406246,-0.1110252567708492,2.684776843869686,0.5805930988702923
1758280777181453800,26.140024902343754,-0.4421288136949762,3.1401544672489163,-0.1812428119329735
1758280777191539000,26.150110107421874,-0.9088228173911572,3.689917762765288,-1.0051432569831609
1758280777201623800,26.16019482421875,-1.435618494296074,4.439202929151058,-1.6253364717707035
1758280777211709000,26.170280029296872,-1.7734996190637349,5.463261899006366,-1.7964143384441733
1758280777221793800,26.18036474609375,-1.7901368656098842,6.606472148942947,-1.7469829296685755
1758280777231878100,26.19044921875,-1.5286042365074155,8.052794992604852,-1.6567317269876598
1758280777241963000,26.200533935546876,-1.1618522604338823,9.803227039813995,-1.698954957950115
1758280777252048100,26.210619140625,-1.0329407799690962,11.109158831489086,-1.6513158394187688
1758280777262133000,26.220704101562497,-1.024331941577792,12.056445527309178,-1.3971490629091858
1758280777272218000,26.230789062499998,-0.978908161008358,11.922362051033971,-1.0824556292444467
1758280777282303000,26.2408740234375,-0.8393864392019807,10.55298859153986,-0.7354637809779495
1758280777292387800,26.250958984375004,-0.8378123217530548,9.230351164257526,-0.4221530338432639
1758280777302472700,26.261043701171875,-1.156910420117527,8.111631796976923,-0.1083493703587911
1758280777312557800,26.27112890625,-1.8154595229148864,6.78049016072154,0.1730635240653529
1758280777322642000,26.281212890625003,-2.624590086193382,5.283243770030141,0.2162360551092773
1758280777332727000,26.291298095703123,-3.355915525257587,4.067407844343781,0.1409906253151595
1758280777342812200,26.30138330078125,-3.657804714667797,3.1027573412686587,0.0837996153887361
1758280777352897000,26.311468017578125,-3.768068339416384,2.2986259014517065,-0.0619496026303619
1758280777362982100,26.321553222656245,-3.61242360419631,1.5801339327365158,-0.2729563787840307
1758280777373067000,26.331637939453124,-3.2800732255488634,0.961693991357088,-0.6368912516102194
1758280777383152000,26.341723144531247,-3.0698218708723783,0.3940846580266952,-1.2227421979434787
1758280777393237000,26.35180810546875,-3.2133266709655524,-0.0626905571907758,-1.9470222485408184
1758280777403321900,26.361892822265624,-3.327390857040882,-0.4144271888315677,-2.8102251782685514
1758280777413406000,26.37197705078125,-3.115384183129668,-0.9558931961238384,-3.7101480653673407
1758280777423491000,26.38206201171875,-2.7283646411836147,-1.7726865491151809,-4.475854789721965
1758280777433576000,26.392146972656246,-2.6057202582895758,-2.6077847896039485,-4.693712235487998
1758280777443661000,26.402232177734373,-2.7075404643416405,-3.4888264506220814,-4.477964913743734
1758280777453746000,26.412316894531244,-2.9492864429563284,-4.247067076879739,-3.947807943712175
1758280777463831000,26.422402099609375,-3.1500083372652528,-4.67529132039547,-3.237027280026674
1758280777473916200,26.4324873046875,-3.2394401863873004,-4.801423545405268,-2.5155001813992857
1758280777484001000,26.442572021484374,-3.040666503536701,-4.60587466982007,-2.0153525651842354
1758280777494086100,26.4526572265625,-2.623146024864912,-4.060295381990075,-1.859066024929285
1758280777504170000,26.462740966796876,-2.062493671065569,-3.2073207085490223,-1.8731065329805012
1758280777514255000,26.472826171875,-1.500503931182623,-2.1815800692170857,-1.880468586181104
1758280777524340000,26.482911132812497,-1.040216323930025,-1.2296014161884783,-1.724322915701568
1758280777534425000,26.492996093749998,-0.6219698690712452,-0.7767851677298545,-1.325187111765146
1758280777544510000,26.5030810546875,-0.2307949427451007,-0.9391659332066774,-0.6151163499146699
1758280777554595000,26.513166015625004,-0.0230161156619898,-1.3312754917681215,0.3998831151723861
1758280777564680000,26.523250976562498,0.0543839257495943,-1.622827411559224,1.4877198529332876
1758280777574765000,26.533336181640625,0.1487035286468919,-1.6999445535093545,2.490456048774719
1758280777584850000,26.5434208984375,0.2826093194007873,-1.6065432162344455,3.235080237612128
1758280777594935000,26.553506103515623,0.509782582783699,-1.483760301652551,3.7170951080262657
1758280777605019000,26.563589843749998,0.8109545638352632,-1.4702210211217404,3.926868616057932
1758280777615104000,26.573675048828125,1.005262499448657,-1.616930170214176,3.956820686729252
1758280777625188900,26.583760009765623,1.0562626188457012,-1.827996932926774,3.9547456340208647
1758280777635274000,26.593844970703124,1.0122761776030065,-2.03074945628047,4.033667195044457
1758280777645359000,26.603930175781247,0.9046464084893464,-2.195681075283885,4.23459717914611
1758280777655444000,26.614014892578123,0.7761918780118227,-2.2933611127913,4.498456497630476
1758280777665529000,26.62410009765625,0.6396849739819764,-2.2970061912953854,4.78961386514604
1758280777675614000,26.634185058593754,0.5704915742358192,-2.220973921972513,5.046714064759016
1758280777685699000,26.644270019531245,0.4501911241194233,-2.1780793676197527,5.220677131479978
1758280777695783000,26.654354003906246,0.3535866068890318,-2.2044722845047717,5.3292935735434295
1758280777705868000,26.664438964843754,0.2073053643524646,-2.241622742247581,5.336834490442276
1758280777715953000,26.674523925781244,0.0664940411269664,-2.2271593326091765,5.144167307773232
1758280777726038000,26.684609130859375,0.026504049109295,-2.102989932104945,4.858071315300465
1758280777736123000,26.69469384765625,0.1508604966182261,-1.7802929324656724,4.4635938585639
1758280777746208000,26.704779052734374,0.4665045820713043,-1.3613549882113931,3.908392755907774
1758280777756293000,26.7148642578125,1.057724435026571,-0.8932137448489665,3.2731963255167007
1758280777766378000,26.724948974609376,1.718108571231365,-0.3531429913073778,2.6020260799467563
1758280777776463000,26.7350341796875,2.3413733024187384,0.3199485777139663,1.905987350580096
1758280777786547000,26.745117919921874,3.077951985836029,1.3472165727436545,1.437425251457095
1758280777796632000,26.755203124999998,3.820801566216349,2.7993121545881032,1.1319663868665697
1758280777806717000,26.7652880859375,4.075043453788757,4.306851391234994,0.7849258040875196
1758280777816802000,26.775373046875004,4.082147732836008,5.2959284795582295,0.6424544386953115
1758280777826887000,26.785458007812498,4.224907852041721,5.6399710495650766,0.8780600148588419
1758280777836972000,26.79554296875,4.669976847374439,5.438697951114177,1.086996195283532
1758280777847057000,26.8056279296875,5.176852018278837,4.857810618537664,1.2076017658263445
1758280777857142000,26.815713134765623,5.371164630067348,4.167403173056244,1.4450672906428574
1758280777867227000,26.8257978515625,5.271881249016523,3.662310793915391,1.9250696521908044
1758280777877311000,26.835882080078125,4.94605179657042,3.269180075612664,2.300439672875404
1758280777887395800,26.845966796875,4.384601570391655,2.8833512047559022,2.3863006777733564
1758280777897481000,26.856052001953124,3.813597333925962,2.595655375871062,2.3066923035293816
1758280777907565800,26.866136962890625,3.3099072227984663,2.456227615958452,2.172401906505227
1758280777917651000,26.876221923828123,2.8941595990180966,2.4214397956937552,2.1041075379580256
1758280777927736000,26.88630712890625,2.315674213016778,2.4080051445811987,2.021557849565148
1758280777937821000,26.896392089843754,1.424473561555892,2.3359189825356004,1.7750626305967567
1758280777947906000,26.906477050781245,0.6458692155748605,2.2006804910063744,1.352500650626421
1758280777957991000,26.91656201171875,0.1061801548272371,2.2639707676559686,0.7734843726187944
1758280777968076000,26.92664697265625,-0.4749187746733427,2.562083361136913,0.1306926647931337
1758280777978159900,26.936730957031244,-0.8209977458786218,2.756581266364455,-0.3755067988067865
1758280777988245000,26.94681591796875,-1.0079448704004288,2.5865800890117883,-0.4384177207499742
1758280777998329900,26.95690087890625,-1.2555623713970183,1.9636089339435097,-0.0238087456107139
1758280778008415000,26.966986083984374,-1.6952783152639863,1.1531307554483412,0.8199006713569164
1758280778018499800,26.977070800781245,-2.229075979885459,0.4971668468385934,1.892848175282776
1758280778028585000,26.987156005859376,-2.869407435077429,0.1495949336618185,2.916431052058935
1758280778038670000,26.9972412109375,-3.7261674722760914,0.1666039361298084,3.7412142347604034
1758280778048755000,27.007325927734374,-4.519706206408142,0.1102466736137866,4.118335775287449
1758280778058840000,27.017411132812498,-4.7526638984113925,-0.4335544986277818,3.977411931598186
1758280778068924000,27.027494873046873,-4.324039257401227,-1.1683780089408158,3.226028331628441
1758280778079009000,27.037580078125004,-3.607223112943768,-1.6357839237660168,1.938187492439151
1758280778089094000,27.047665039062498,-2.9703584570795294,-1.673939759159088,0.528294683291018
1758280778099179000,27.05775,-2.7469296409219504,-1.4970967530876398,-0.4372051300898194
1758280778109264000,27.0678349609375,-2.809047951182723,-1.215385259309411,-0.6315595351934432
1758280778119349000,27.077919921874997,-2.931147559675574,-0.9383961178779602,-0.3036094373315572
1758280778129433900,27.0880048828125,-2.988015694323182,-0.608180413171649,0.1950219291016459
1758280778139519000,27.098090087890625,-3.024250790786743,-0.424932216233015,0.6516206187084317
1758280778149603800,27.1081748046875,-2.990190115752816,-0.4293348351061344,1.020566451564431
1758280778159688000,27.118259033203124,-2.787505981460213,-0.6138362469762564,1.2699233435742556
1758280778169772800,27.12834375,-2.438875060749799,-0.7804524580657481,1.3900801474362612
1758280778179858000,27.138428955078123,-2.0353098960638043,-0.9061761022746564,1.3543779888056218
1758280778189942800,27.148513916015624,-1.629450775221735,-0.9857903217375278,1.2456399661891162
1758280778200028000,27.158598876953125,-1.2326451677985488,-0.9990139604479074,1.1649794525437056
1758280778210113000,27.168684082031245,-0.8641033856987953,-0.9793149882435798,1.1927348899535837
1758280778220198000,27.17876904296875,-0.5746347019225359,-0.9520599015712736,1.3157191723264754
1758280778230283000,27.18885400390625,-0.3460511333502828,-0.9449591296553612,1.4415779872223733
1758280778240367900,27.19893896484375,-0.142322312310338,-1.0403063403010369,1.4893046379067003
1758280778250453000,27.209023925781246,-0.0114320791184902,-1.1270225007236003,1.4327574057765304
1758280778260536800,27.21910791015625,0.0806102447628974,-1.1965320902794598,1.3551456121772527
1758280778270622000,27.229193115234374,0.1161864389263093,-1.2574842793703078,1.3076603690333664
1758280778280706800,27.239277832031245,0.1403805305927991,-1.410953424116969,1.349357676425576
1758280778290792000,27.249363037109376,0.1746304445885121,-1.6807728200495242,1.5223285172387957
1758280778300876800,27.259447753906247,0.0628974779397249,-2.0051263547241684,1.6731839723557234
1758280778310962000,27.269532958984374,-0.1922001496791839,-2.3586522078692918,1.747484595580399
1758280778321046800,27.279617919921876,-0.4946243227489292,-2.704076003101468,1.778473023562133
1758280778331132000,27.289702880859373,-0.8486237847551703,-2.893843957197666,1.809352438211441
1758280778341217000,27.299788085937497,-1.2285042686015366,-2.930495233246684,1.837427901355922
1758280778351302000,27.309873046874998,-1.6235132018662988,-2.741753115066886,1.8141469790115952
1758280778361386000,27.31995703125,-1.9974439835280176,-2.377411268875002,1.6828068100951612
1758280778371470800,27.3300419921875,-2.319236727803945,-1.8163024034798143,1.4860944436885417
1758280778381556000,27.340126953124997,-2.56906430606544,-1.1537012488126754,1.2391463663861155
1758280778391640800,27.3502119140625,-2.700905556371808,-0.5534148037612437,0.9268781871069224
1758280778401726000,27.360296875,-2.7101287272691725,-0.1230839433550834,0.5630698998024687
1758280778411810800,27.3703818359375,-2.639136790201068,0.1759282293140888,0.2560149251269176
1758280778421896000,27.380467041015624,-2.609839968568086,0.4134025219589471,-0.0271337618475779
1758280778431980800,27.3905517578125,-2.66927181622386,0.7757984947800636,-0.1590947660760954
1758280778442066000,27.400636962890623,-2.800347342854738,1.3170552432358265,-0.0967135670954361
1758280778452149800,27.410720703124998,-2.916116579282284,1.9123118774265049,0.119017461101152
1758280778462235000,27.420805908203125,-2.927571454754472,2.4619202746421096,0.4302650651609525
1758280778472319700,27.430890869140622,-2.78764392862618,2.9453099405407905,0.7278637543030083
1758280778482404900,27.440975830078123,-2.543479490692913,3.333638226997852,0.8740577934801578
1758280778492490000,27.45106103515625,-2.1983236987471577,3.586809854990244,0.909835793825984
1758280778502574800,27.46114599609375,-1.7887996256567538,3.9316947210401296,0.8928114476583897
1758280778512660000,27.471230957031246,-1.35056296056211,4.600712757012248,0.8322432894490659
1758280778522744800,27.481315917968754,-1.0535936918973925,5.292657495063543,0.6420441043287515
1758280778532830000,27.491400878906244,-0.91069182613343,5.398918898433447,0.2894712775921449
1758280778542915600,27.501486572265623,-0.8886591502845287,5.088196998748183,-0.0520399107735604
1758280778552999400,27.511570556640624,-0.877074072561413,5.051621710544825,-0.2149173006609082
1758280778563084500,27.521655517578125,-0.7483487623184919,5.305123008882999,-0.2698882599176839
1758280778573169400,27.531740478515623,-0.4295651367306709,5.24956420326829,-0.433170906137675
1758280778583254500,27.541825683593753,0.4072731523584574,4.794250292775034,-0.9022118748188018
1758280778593339400,27.551910400390625,1.6503899567455051,4.110120612388849,-2.04660227445066
1758280778603424500,27.56199560546875,2.674951615425944,3.37396322312355,-3.347442588205636
1758280778613509400,27.572080322265624,2.482165774813294,2.482778938275576,-4.204372429013252
1758280778623594500,27.582165527343754,1.2871534414470196,1.3111153317928312,-4.41640891354084
1758280778633679400,27.592250488281245,0.4112111493945121,-0.1099246020525693,-4.142593433709442
1758280778643764500,27.60233544921875,0.1693546961426734,-1.554405617240071,-3.5562919671297077
1758280778653848300,27.612419433593754,0.1434732359111309,-2.641468448019028,-2.5832132429271937
1758280778663933400,27.622504394531244,-0.0899848068296909,-3.3151708424150943,-1.4396318215906618
1758280778674018300,27.63258935546875,-0.218155259668827,-3.6542379620969294,-0.3918541224956512
1758280778684103400,27.642674560546872,-0.2381371404677629,-3.7478228392452,0.3271957723632455
1758280778694188500,27.652759521484374,-0.3188952692687511,-3.653035600569844,0.698718762230873
1758280778704273400,27.662844482421875,-0.3883937529087066,-3.3619255793273446,0.817328628911823
1758280778714358500,27.672929687499998,-0.6092775607585906,-3.075947075754404,0.8434653790786862
1758280778724443400,27.683014404296873,-0.8511556413203477,-2.800521530377865,0.853293384001404
1758280778734528500,27.693099609375,-0.93469192959778,-2.539633628919721,0.9410343574270604
1758280778744613400,27.703184326171876,-0.9398078113067896,-2.3771096555799245,1.0717308216124772
1758280778754697500,27.7132685546875,-0.8228052336920052,-2.253999993261695,1.175979423855245
1758280778764782300,27.723353271484374,-0.7096510751336813,-2.1396365319788453,1.3121984508544209
1758280778774867500,27.733438476562497,-0.6516933916836977,-2.010434982526302,1.4668712723024189
1758280778784952300,27.7435234375,-0.6411258935052901,-1.828902941855788,1.7097335415959358
1758280778795037400,27.7536083984375,-0.7077524019055068,-1.5157307264089583,2.015970697082579
1758280778805122300,27.763693359374997,-0.7552893752366304,-1.0560825861036778,2.323879000651836
1758280778815207400,27.773778564453124,-0.7776241027720272,-0.4675432774692774,2.6135627884835
1758280778825292500,27.783863525390625,-0.7637633352018892,0.087455580613017,2.836585069666803
1758280778835377400,27.793948486328123,-0.7140262214779853,0.5353963319897651,3.072998162820935
1758280778845461200,27.804032226562498,-0.6440566131949425,0.9251859231710432,3.2374031276017425
1758280778855546400,27.814117431640625,-0.4863270345248282,1.2670932347148656,3.224377057290077
1758280778865631500,27.82420263671875,-0.2282220417834818,1.4811685315936802,3.0634771780207752
1758280778875716400,27.834287353515624,-0.0558954902231693,1.5319728361576794,2.9067846873134373
1758280778885801500,27.844372558593754,-0.0142711019366979,1.5344763434112072,2.7932462786778807
1758280778895886300,27.854457275390622,-0.0940787981450557,1.526976927566528,2.609279996597767
1758280778905971500,27.86454248046875,-0.2049919728435575,1.5302882440716028,2.2426795578241348
1758280778916056300,27.87462744140625,-0.3352515069164336,1.4715928939968346,1.683884230068326
1758280778926141400,27.88471240234375,-0.3844365397155285,1.2417577179282904,1.101418396128714
1758280778936226300,27.894797363281246,-0.3306079188942909,0.8925777850329876,0.5801569724753499
1758280778946310400,27.90488134765625,-0.2868755985431373,0.6008709669411182,0.2389648234635591
1758280778956395300,27.91496630859375,-0.3410183998800813,0.362853653460741,-0.0038408933371305
1758280778966480400,27.925051513671875,-0.3915367271095514,0.1587871248990297,-0.1082180903956294
1758280778976565500,27.935136474609376,-0.4255715370498597,0.077261518856883,-0.0831681125521659
1758280778986650400,27.945221435546873,-0.4512267873100936,0.0158551562577486,-0.0359480962157249
1758280778996735500,27.955306640625,-0.4373614896953106,0.0186439101934432,0.0053963060855865
1758280779006820400,27.965391357421876,-0.3642647623676806,0.0468874233812093,0.0275678058832883
1758280779016905500,27.9754765625,-0.2521615741670132,0.0961965209513902,0.1737915095463395
1758280779026990300,27.985561279296874,-0.2183953520350158,0.1599620138972997,0.4890469610080122
1758280779037075500,27.995646484374998,-0.1863034928560256,0.1478513048648834,0.9211337251707912
1758280779047159600,28.005730712890625,-0.1206084931522607,0.0605465308994054,1.4483254156559704
1758280779057244400,28.0158154296875,-0.0563100623734295,-0.076830726224184,1.9244301852434875
1758280779067329300,28.025900390624997,0.0457135572962462,-0.1816127046912908,2.3536948777228592
1758280779077414400,28.0359853515625,0.1774094077825546,-0.1964607297331094,2.744123935851454
1758280779087499300,28.0460703125,0.3063799980234354,-0.1764081217855215,3.020594021844864
1758280779097584400,28.056155517578123,0.4556429963171481,-0.1639765102356672,3.129527567033469
1758280779107669500,28.066240478515624,0.5633341402292251,-0.1457008488327264,3.0988141566008327
1758280779117754400,28.076325439453125,0.6117074182540178,-0.1427852536469697,2.888310872989893
1758280779127839500,28.086410644531245,0.6296165844321251,-0.0558422987312078,2.630342658370733
1758280779137924400,28.096495361328124,0.6327063671410084,0.0857990455776453,2.3587796336412428
1758280779148008700,28.106579833984373,0.6500390486054122,0.1934603788733482,2.056972861817479
1758280779158093600,28.116664550781245,0.7126268030088394,0.2370516833186149,1.701798072421551
1758280779168178400,28.12674951171875,0.784991781995818,0.3293465206563472,1.4964467647463082
1758280779178263600,28.136834716796873,0.835430395052582,0.427190808814764,1.4309534250944853
1758280779188348400,28.14691943359375,0.8439677025776356,0.4793623100787401,1.4959516747057438
1758280779198433300,28.157004394531246,0.7676759786009788,0.5280038836508989,1.728548716703057
1758280779208518400,28.167089355468754,0.6628700347363948,0.6154167941659688,2.080733092111349
1758280779218603300,28.177174316406244,0.591433787966892,0.7761965541869401,2.3999042557120323
1758280779228688400,28.187259521484375,0.5582002114068716,0.9430050729781388,2.7367525303006173
1758280779238773500,28.197344482421872,0.5063906022578477,1.0620143142402172,2.944064324393868
1758280779248857600,28.2074287109375,0.3820815010219812,1.203380348739028,3.094220399069786
1758280779258942700,28.217513671875,0.1314835229098796,1.521177301377058,3.1734614013060924
1758280779269027600,28.227598632812498,-0.0684090079028159,2.1027450174331666,3.1816604898527263
1758280779279112700,28.237683837890625,-0.1444471955098211,2.882811106529832,3.091083270087838
1758280779289197600,28.247768554687497,-0.171648506168276,3.75131126588285,2.903500843337178
1758280779299282400,28.257853515624998,-0.2749474795360118,4.493631269431114,2.719106106711924
1758280779309367300,28.267938232421873,-0.4948259097356349,4.704768174770474,2.6839813095778227
1758280779319452400,28.278023437500003,-0.7819628626286983,4.1471220170497896,3.054398676291108
1758280779329537300,28.288108398437497,-1.021591556828469,3.1236808868318797,3.701816582612693
1758280779339621600,28.298192626953124,-1.2202999193578958,2.1396868008613583,4.396444276137649
1758280779349706500,28.308277587890625,-1.466571850964427,1.3970154996573925,5.017465758442879
1758280779359791600,28.318362548828123,-1.8130191440254448,0.8948241026550531,5.505584790951013
1758280779369876500,28.328447509765624,-2.2584826916337013,0.530355415213108,5.794495256322622
1758280779379961600,28.33853271484375,-2.7418618361383675,0.2931441574186086,5.7923173277616495
1758280779390046700,28.348617675781245,-3.2541204536467787,0.2166431015402078,5.373302811139822
1758280779400131600,28.358702636718753,-3.777890060728788,0.3783177645742893,4.6666006489396095
1758280779410216400,28.368787597656247,-4.291742084908485,0.7428378899425268,3.773434250363708
1758280779420301300,28.378872314453123,-4.788264204102754,1.284089962223172,2.8844173726826905
1758280779430386400,28.38895751953125,-5.229384754070639,1.89978791141808,2.076571003995836
1758280779440470500,28.39904150390625,-5.497873778182268,2.4682833799332378,1.5240750686451792
1758280779450555600,28.409126708984374,-5.440062225204706,2.7815023571312425,1.2461144518330691
1758280779460640500,28.419211669921875,-4.923398650735616,2.7051468472033737,1.3072279689654709
1758280779470725600,28.429296630859373,-4.125072682327032,2.287926812782884,1.6168188187941908
1758280779480810500,28.439381591796874,-3.3694495450913906,1.7750941947788,1.9636644635230305
1758280779490895600,28.449466552734375,-2.7989678711950776,1.3197072190493344,2.2339348180934784
1758280779500980500,28.459551513671872,-2.4221032280385493,0.9329349298626184,2.340867252592742
1758280779511065600,28.46963671875,-2.2934990599572656,0.6423726056307554,2.379394843907654
1758280779521150500,28.479721435546875,-2.260232165649533,0.4294909024506807,2.426939269892871
1758280779531235600,28.489806640624998,-2.260404015085101,0.3085778733938932,2.57205793492347
1758280779541320400,28.4998916015625,-2.2481430839270358,0.2465624389857053,2.793186072923243
1758280779551404000,28.509975097656245,-2.193371629297733,0.0867331115573644,3.008258856406808
1758280779561489200,28.520060302734375,-2.170408686861396,-0.1300274788826703,3.3060110921427603
1758280779571574300,28.530145263671873,-2.169832348278165,-0.3706874158263206,3.598150748693943
1758280779581659100,28.540230224609374,-2.274081242781877,-0.5406511837780476,3.9596810445964334
1758280779591744300,28.550315185546875,-2.5093939734786748,-0.6192530113279819,4.217532647098601
1758280779601829000,28.560400146484373,-2.880830746367573,-0.6522568707853555,4.254031655195355
1758280779611914200,28.5704853515625,-3.285478299462795,-0.5511386755228043,4.107736639861762
1758280779621999000,28.580570068359375,-3.7364392754435536,-0.2439829438865184,3.767015615493059
1758280779632084200,28.5906552734375,-4.217400837412477,0.1975520321011543,3.255637872472405
1758280779642169000,28.600740234375,-4.653793189814687,0.6479904455125332,2.547620536020398
1758280779652253200,28.61082421875,-5.107663915762305,0.9654173957943916,1.7569095726601778
1758280779662338000,28.620909179687498,-5.477682054024935,1.0039221907556055,0.8560869602426886
1758280779672423200,28.630994140625,-5.797226142591238,0.9224386702895164,-0.0830481394343078
1758280779682508300,28.641079345703123,-6.055452131363749,0.8257529045164584,-0.8050355490498244
1758280779692593200,28.651164306640624,-6.2059156645536415,0.8035013252198696,-1.2842695565737785
1758280779702678300,28.661249267578125,-6.248456583163142,0.8255202648043632,-1.5981873296909033
1758280779712763100,28.671334228515622,-6.161946174445748,0.9066980803221464,-1.811639526235312
1758280779722848300,28.681419189453123,-5.896185113993287,0.9625251814842224,-2.1421204577490687
1758280779732933000,28.691504150390625,-5.440443333476781,0.8584709327697754,-2.620254102815688
1758280779743017200,28.701588378906244,-4.848582186943292,0.6701461632192135,-2.929899605441093
1758280779753102000,28.711673095703123,-4.073086474502087,0.7414952431619167,-2.9245781181573864
1758280779763187200,28.72175830078125,-3.055916679638624,1.196447919127345,-2.724417364862561
1758280779773272000,28.731843017578125,-1.9293096278481183,1.9947551828354595,-2.331340568704158
1758280779783357200,28.741928222656245,-1.216372662911564,3.131329940280318,-1.7412449705384672
1758280779793442000,28.752013183593753,-1.2066111473537982,4.279935911780596,-1.106773931812495
1758280779803527200,28.762098144531247,-1.6772374855302272,5.062095758286119,-0.5388204612195492
1758280779813612300,28.772183349609374,-2.0328246551193296,5.254053915902972,-0.3495955279588699
1758280779823697200,28.782268310546876,-1.8617752838879824,4.860561963072419,-0.8872064672581851
1758280779833782300,28.792353271484373,-1.2841694572001694,4.0839398769497866,-1.974096864079684
1758280779843867100,28.802438232421874,-0.6511872687924652,3.235044581776857,-3.201186735838652
1758280779853951200,28.812522216796875,-0.3436685490626842,2.508852706208825,-4.182493774682283
1758280779864036000,28.822607177734373,-0.1730302063176408,1.8699252725958824,-4.641118709419668
1758280779874121200,28.8326923828125,-0.0746545512288808,1.292441610983014,-4.531190892496705
1758280779884206000,28.842777099609375,-0.0084048767844215,0.735155518746376,-4.019126920777559
1758280779894291200,28.8528623046875,-0.0389537077724933,0.1367488960921764,-3.4153824442267418
1758280779904376000,28.862947021484374,-0.1008095677047967,-0.337567821034789,-2.809932625062764
1758280779914461200,28.8730322265625,-0.1767664337038993,-0.4426327080965042,-2.3561861100167034
1758280779924546000,28.883117187499998,-0.3051122431099414,-0.2204576913923025,-2.150350233694911
1758280779934631200,28.8932021484375,-0.4203296908736229,0.1355611476123333,-2.110170198997855
1758280779944715000,28.903286132812497,-0.5222071800708771,0.5013227974742651,-2.086297155979276
1758280779954800000,28.913371093749998,-0.5707119755208492,0.7836760962873697,-1.8940099125385284
1758280779964885000,28.9234560546875,-0.5143149655163288,0.997798739439249,-1.5402087495833634
1758280779974970000,28.933541259765622,-0.3337976548463106,1.1369845072895288,-1.0645274661049249
1758280779985055200,28.943626220703123,-0.1860807900160551,1.1770271793425082,-0.451784567323327
1758280779995140000,28.953711181640625,-0.0317780805220827,1.0542699837237597,0.2678212078526616
1758280780005225200,28.963796142578126,0.110533052807115,0.7494049933731556,0.9903265038624404
1758280780015310000,28.973881103515623,0.2330125639956444,0.3414706736922264,1.6912839849308132
1758280780025395200,28.983966308593754,0.2592412667622789,-0.1225888533145189,2.327300499533117
1758280780035480000,28.994051025390625,0.2000286148151382,-0.5408657033115625,2.826058999477327
1758280780045564200,29.004135253906245,0.1260181336434558,-0.9258756590008737,3.266446851256489
1758280780055649000,29.014219970703124,0.0273830604335293,-1.2084522451758384,3.646479895316064
1758280780065734100,29.024305175781247,-0.0881330414831638,-1.4106184930741783,3.941986397951841
1758280780075819000,29.03439013671875,-0.1950730747669935,-1.556707464441657,4.1134120551496745
1758280780085904100,29.04447509765625,-0.2200479415476322,-1.5673095224767923,4.172497281324863
1758280780095989200,29.054560302734373,-0.2266067886065691,-1.4557429984360932,4.047171696522832
1758280780106074000,29.064645263671874,-0.1875771660536527,-1.3036252682983875,3.904609145715833
1758280780116159200,29.074730224609375,-0.1535013665158301,-1.1679705971837042,3.739082483428717
1758280780126244000,29.084815185546873,-0.1120324610520154,-1.015609705939889,3.5537001970708366
1758280780136329200,29.094900146484374,-0.0749696085274219,-0.8494383160084485,3.4259535226017235
1758280780146413000,29.104984130859375,0.0028887802440673,-0.7169552606672048,3.3202579364210365
1758280780156498200,29.1150693359375,0.2027747351855039,-0.6431067651242017,3.25719562330842
1758280780166583000,29.125154052734374,0.5115197818398476,-0.6799409965246915,3.2496786718070507
1758280780176668200,29.1352392578125,0.8226583725672215,-0.7297486912667751,3.2950375704467296
1758280780186753000,29.145323974609376,1.1553839412026106,-0.7491068872094154,3.3994495465576646
1758280780196838100,29.1554091796875,1.4058236600130796,-0.6830126590549945,3.462410737383365
1758280780206923000,29.165494140625,1.825758798611164,-0.4699316339105367,3.417345853254199
1758280780217008000,29.175579101562498,2.448422495165467,0.0593050064057111,3.2905653934687376
1758280780227093200,29.185664306640625,3.1514380778074265,0.9391168333679436,2.9255314733594653
1758280780237178000,29.195749267578122,3.757368666225672,2.0375959611743686,2.274156646105647
1758280780247262000,29.205833007812497,4.044665851181746,3.018965543860197,1.3285995505571364
1758280780257347000,29.215918212890625,4.098417899635434,3.3802088395148515,0.3536766597926616
1758280780267432200,29.226003173828126,3.91828461984694,2.981255114147067,-0.2886211270362138
1758280780277517000,29.236088134765623,3.738496207973361,2.155869873899221,-0.3072971859335899
1758280780287602200,29.246173339843754,3.5216374178558585,1.4585563022911547,0.0807785870671272
1758280780297687000,29.256258056640625,3.099457715201378,1.1128197878479955,0.6401584367126226
1758280780307772200,29.26634326171875,2.457669631460309,1.056971059376001,1.0619745667517184
1758280780317857000,29.276427978515624,1.704984885764122,1.2852397167801857,1.413542271566391
1758280780327942100,29.28651318359375,1.0040642295747997,1.7264087820649143,1.508700681641698
1758280780338027000,29.296598144531245,0.3891816884160041,2.310665883335471,1.3358295018106698
1758280780348112100,29.306683105468753,-0.1502279343357309,2.8173101680934427,0.7800561522245406
1758280780358196000,29.316767089843754,-0.5340764815628528,2.9693939959615467,-0.0774883133500814
1758280780368281000,29.326852050781245,-0.7855693626880645,2.807808180254697,-0.8516922324150801
1758280780378366000,29.33693701171875,-0.8283259698748588,2.2900889592528344,-1.2968033133238552
1758280780388451000,29.347022216796873,-0.8195838604927063,1.6734633738189937,-1.3065917168885468
1758280780398536200,29.357107177734374,-0.9234253432393074,1.1271616169333458,-1.0081956302911042
1758280780408621000,29.367192138671875,-1.2414555201113224,0.684934567028284,-0.6141150639176368
1758280780418706200,29.377277099609373,-1.6771651509463783,0.4786562076359987,-0.1968903533220291
1758280780428791000,29.387362060546874,-2.131339828276634,0.5897668046027421,0.2449135027348995
1758280780438876200,29.397447265625,-2.477496029436588,0.90195410066545,0.5559510442405938
1758280780448961000,29.407531982421872,-2.8203450057446955,1.2286153277605771,0.7037322064787149
1758280780459045000,29.4176162109375,-3.223101630526781,1.4771914446562529,0.7792220394879579
1758280780469130000,29.427700927734374,-3.529613219040632,1.7110691741138695,0.8205740405738353
1758280780479215000,29.437786132812498,-3.691736210364103,1.8784931944549084,0.8153370167031884
1758280780489300000,29.44787109375,-3.726425246429443,1.8645646223455667,0.6931546983629465
1758280780499385000,29.457956054687497,-3.5457109518826004,1.5609411564886568,0.3849319220170378
1758280780509470200,29.468041259765624,-3.2583249195992945,1.0344652130573988,-0.0031105332359671
1758280780519555000,29.478126220703125,-3.031220045277476,0.3819377086371183,-0.3688733521416783
1758280780529640200,29.488211181640622,-2.9364468351274726,-0.1604132647961378,-0.5605412946403027
1758280780539725000,29.498296142578123,-2.9193747042953966,-0.5859896241515875,-0.610272709275782
1758280780549810700,29.5083818359375,-2.8407021495968103,-0.9099684802949428,-0.556036676697433
1758280780559894800,29.5184658203125,-2.621270878642797,-1.2360521997630596,-0.3532695402964949
1758280780569979600,29.52855078125,-2.2846809627294538,-1.6278987234741449,-0.0007312368839979
1758280780580064800,29.5386357421875,-1.943146576151252,-1.9723340921908616,0.2742851431697607
1758280780590149600,29.548720703125,-1.659814641564339,-2.269535416045785,0.6000809856072068
1758280780600234800,29.558805908203123,-1.481684079900384,-2.525332131844759,0.9416606726318596
1758280780610319600,29.568890624999998,-1.289302728435397,-2.7431846091747283,1.1668963920809328
1758280780620404700,29.578975830078125,-1.0985323192983865,-2.8740584757536647,1.400598911102116
1758280780630489600,29.589060546875,-0.9938847808659076,-2.894299299749732,1.4267156413942574
1758280780640574700,29.599145751953124,-0.7900299953587353,-2.795136330208182,1.273187459936738
1758280780650659800,29.609230957031247,-0.6124105980873108,-2.560433840364217,1.0064601117353886
1758280780660743700,29.619314697265622,-0.5334139260008931,-2.27012286054492,0.8134194926440715
1758280780670828500,29.629399658203123,-0.5919985091775656,-1.9023072007626292,0.8120445510290563
1758280780680913700,29.639484619140624,-0.7690700633078813,-1.3919967947125431,1.0345573483202606
1758280780690998800,29.64956982421875,-1.0781254910856484,-0.6107429571360349,1.5010703328937292
1758280780701083600,29.659654785156246,-1.7021075767621396,0.5920265662282705,2.073954245626181
1758280780711168800,29.669739746093754,-2.465535834790766,2.1376614325135943,2.567268362559378
1758280780721253600,29.679824707031248,-3.3708871766790747,3.933872649601102,2.721601722919941
1758280780731338800,29.689909912109375,-4.452771435776353,5.554256759661436,1.7934503740720449
1758280780741423600,29.69999462890625,-5.280618682223558,6.765547443133592,0.1601111035117879
1758280780751508700,29.710079833984373,-5.259525040790439,7.34612731719613,-1.903506055158377
1758280780761593600,29.720164550781245,-4.797811784648895,7.229455578970908,-4.420179956512153
1758280780771677700,29.730248779296875,-4.548906874190271,6.57974020936191,-6.52392129150629
1758280780781762600,29.740333496093754,-4.5841807244062425,6.021417175292968,-7.878986239662766
1758280780791847700,29.750418701171874,-4.917783148941397,5.933975038683414,-8.46417857595682
1758280780801932800,29.760503906249998,-5.055682968634367,6.143318630865216,-8.268831360423565
1758280780812017700,29.770588623046873,-4.930656074517965,6.3802335360616445,-7.49234488337934
1758280780822102800,29.780673828125003,-4.777720598256588,6.478425030222534,-6.435864237868786
1758280780832187600,29.790758789062497,-4.212485008320212,6.266994694894552,-5.330701102253794
1758280780842272800,29.80084375,-3.493760399892926,5.346688360458612,-4.166192043700814
1758280780852357600,29.8109287109375,-3.3314924471408127,4.379553054830431,-3.123791069208085
1758280780862442800,29.821013916015623,-3.632430034914613,4.136684794187546,-2.2411365661658347
1758280780872526600,29.831097656249998,-3.6193782456398007,4.344786861875653,-1.644198700889945
1758280780882611700,29.841182861328125,-3.110488227781653,4.424771083694696,-1.4800114705130456
1758280780892696600,29.851267578125,-2.5799925273150204,4.2322786730706685,-1.613484121413529
1758280780902781700,29.861352783203124,-2.2674773144721985,3.8417414783924815,-1.8111328918874263
1758280780912866600,29.8714375,-1.879897800555825,3.135844787356257,-2.1477514493733643
1758280780922951700,29.881522705078122,-1.3393331260174512,1.9435797068715093,-2.491249244979024
1758280780933036800,29.891607910156246,-0.8232751162260771,0.6637468175709247,-2.4831091931432483
