time,seconds_elapsed,z,y,x
1757614630714974200,65.75397412109375,1.075894371032715,2.352752043914794,3.4644098022460934
1757614630724929000,65.76392895507813,1.101183126068115,2.286761860656738,4.240280777740479
1757614630734884000,65.77388403320313,1.184830546569824,2.4595932929992674,5.0818426612854
1757614630744839000,65.7838388671875,1.1302128211975098,2.9236195022583007,6.229263806915283
1757614630754794200,65.79379418945312,0.7365162857055664,3.343203343200684,7.837269496917724
1757614630764749000,65.8037490234375,-0.0179565124511718,3.035099517059326,9.635913494110106
1757614630774703900,65.81370385742187,-1.074547632598877,1.59603468170166,11.003152279663086
1757614630784659200,65.8236591796875,-2.089539498901367,-0.8156745780944824,11.627590000152589
1757614630794614000,65.83361401367188,-2.828898899078369,-3.381211294555664,11.583596544647216
1757614630804569900,65.84356982421875,-3.2749685958862305,-5.066878900909424,11.348066956329346
1757614630814525200,65.85352514648437,-3.1699229980468746,-5.044283622741699,10.926388188934324
1757614630824480000,65.86347998046875,-2.610577635192871,-2.98108034210205,10.165331336212155
1757614630834435000,65.87343505859376,-2.556408822631836,0.4881178634643554,9.070133714294434
1757614630844390100,65.88339013671875,-3.670311145019531,4.868309800720215,7.770830400848388
1757614630854345000,65.89334497070313,-5.438728346252441,11.016320388793943,6.109404086303711
1757614630864300000,65.90330004882813,-5.401917495727539,18.645593616485595,3.7343560394287114
1757614630874254800,65.9132548828125,-1.896955902862549,25.07641927566528,2.43879366607666
1757614630884210200,65.92321020507812,0.4634276588439941,29.200281997680666,4.27724126586914
1757614630894165000,65.9331650390625,0.0374094009399414,32.92491159286499,5.501576139831543
1757614630904121000,65.94312109375,-0.0447416435241699,36.26212943191528,5.502174690246582
1757614630914076200,65.953076171875,1.4613608383178711,37.76134858398437,5.705382556152343
1757614630924031000,65.96303100585938,2.75797067489624,35.81172024459838,4.180126461029053
1757614630933986000,65.97298608398438,1.989431941986084,32.75237943572998,0.8464999244689941
1757614630943941000,65.98294116210937,0.5111620544433594,31.203630236816405,-2.4787469062805174
1757614630953896000,65.99289599609375,0.3235164993286132,29.989769995117182,-4.363582163238525
1757614630963851000,66.00285107421875,1.8914193115234372,28.299613260650634,-3.772214353179932
1757614630973806000,66.01280615234376,3.135955261993408,24.948179849243164,-1.8255787658691405
1757614630983761200,66.02276123046875,1.7248726585388183,22.22372799758911,-0.5948094749450683
1757614630993716000,66.03271606445313,0.7936778503417968,19.764433979797364,-0.9516951599121092
1757614631003672000,66.04267211914062,0.3085527389526367,16.479290026855466,-2.845658310699463
1757614631013627100,66.05262719726562,0.5621884773254394,13.53457162246704,-4.444835382080078
1757614631023582000,66.06258203125,1.2012906829833985,11.29958437271118,-5.185092607879638
1757614631033537000,66.072537109375,1.5336358009338378,9.667487028503418,-5.576095666503906
1757614631043492000,66.0824921875,1.165676933288574,8.375964870452881,-5.748328548431396
1757614631053447000,66.09244702148438,0.4860229370117187,7.119457911682129,-5.898265427398681
1757614631063402000,66.10240209960938,-0.1919850456237793,5.781997009277344,-6.152050803375244
1757614631073357000,66.11235717773438,-0.9403227020263673,4.318241969299316,-6.3609448982238765
1757614631083312000,66.12231201171875,-1.5904980903625487,2.749590969085693,-6.420351026916504
1757614631093267000,66.13226684570313,-2.0401590896606443,1.1100117446899411,-6.347776789093017
1757614631103223000,66.14222314453124,-2.0542250244140625,-0.4745008415222168,-6.197390997314453
1757614631113178000,66.15217822265625,-1.6668132682800292,-2.088192760467529,-6.354061568450927
1757614631123133000,66.1621328125,-1.348982997894287,-3.780893334197998,-7.260266896820068
1757614631133088000,66.172087890625,-0.9341875602722168,-5.240757796478271,-8.680926306915282
1757614631143043000,66.18204296875,-0.2135328605651855,-5.748777461242676,-9.957335066986085
1757614631152998000,66.19199780273438,0.471807364654541,-4.668094686889648,-10.541669909667968
1757614631162953700,66.20195361328125,0.9668085578918456,-2.356343346405029,-10.289979460144044
1757614631172909000,66.21190893554687,1.4151228187561034,0.1970727241516113,-9.757119953155517
1757614631182864000,66.22186376953125,1.76198278427124,2.601749016571045,-9.3086560546875
1757614631192819000,66.23181884765626,1.906383071899414,4.492569777679443,-9.082254360198974
1757614631202775000,66.24177514648437,1.9194015434265133,5.453392831420898,-8.931868568420409
1757614631212729900,66.25172973632813,1.855207011413574,5.361066429901123,-8.844330570220947
1757614631222685000,66.26168481445312,1.4903905334472656,4.6221559425354,-8.665064720916748
1757614631232640000,66.27163989257812,0.481982721710205,3.948487450408935,-8.531587978363037
1757614631242595000,66.28159497070313,-1.2216413970947264,4.4662335594177245,-8.70830998840332
1757614631252550000,66.2915498046875,-2.68180513458252,7.8399629737854,-9.719411277008057
1757614631262504700,66.30150463867187,-4.184465951538086,15.931167484283446,-11.692532720184326
1757614631272460000,66.3114599609375,-5.894075574493408,28.94110966796875,-12.55833589553833
1757614631282414800,66.32141479492188,-4.3254245742797846,39.15342721176148,-8.422053252410889
1757614631292370000,66.33136987304688,-2.693476867675781,37.98146549911499,-1.5227122558593749
1757614631302326000,66.34132592773437,-8.400804712677001,30.655657331848143,1.369483349609375
1757614631312280800,66.35128076171875,-14.86290463104248,23.13651738052368,-0.3489548919677734
1757614631322236000,66.36123583984374,-15.154249045562745,17.26788019866943,-2.7335797454833983
1757614631332191000,66.37119091796875,-13.67523097000122,14.1982143951416,-4.153790242767334
1757614631342145800,66.38114575195313,-12.744784349822996,13.813196840667723,-4.385129978179932
1757614631352100900,66.39110083007813,-10.589254667663573,14.895525628662108,-2.7302877182006835
1757614631362056000,66.40105590820312,-8.443601067352294,15.723620127868651,-0.8993219985961913
1757614631372011000,66.41101098632812,-6.9253779396057125,15.324835913848876,-0.1324292793273925
1757614631381965800,66.4209658203125,-5.563376470184326,14.207342288970947,0.0583586654663085
1757614631391921200,66.43092114257813,-4.093037375640869,12.862848419189453,-0.14679448928833
1757614631401877000,66.440876953125,-2.465578797149658,11.450269439697266,-0.506224013519287
1757614631411831800,66.45083178710938,-0.8758288948059082,10.197653058624269,-0.9609726913452148
1757614631421787100,66.460787109375,0.6220435188293457,9.215132552337646,-1.4514847564697264
1757614631431742000,66.47074194335937,2.102258695220947,8.379406535339355,-1.776048719024658
1757614631441696800,66.48069677734375,3.3897406379699704,7.451952667236328,-1.922244657897949
1757614631451651800,66.49065185546876,4.003254813385009,6.3447840370178215,-2.0049942527771
1757614631461607000,66.50060693359374,4.016273284912109,5.071816941833496,-1.6750433364868162
1757614631471562000,66.51056201171875,3.738845167541504,3.798101658630371,-0.8271966735839843
1757614631481516800,66.52051684570313,3.502417753601074,2.738068873596191,0.4201823913574218
1757614631491472100,66.53047216796875,3.3653497085571287,2.0241478660583496,1.8938135131835936
1757614631501428000,66.54042797851562,3.40275910949707,1.5723919403076172,3.4591724861145017
1757614631511382800,66.5503828125,3.573944528198242,1.255758770751953,4.894197106170654
1757614631521338000,66.56033813476563,3.695599900054932,1.0298059890747069,6.365434026336669
1757614631531293000,66.57029296875,3.7192426414489743,0.8156745780944824,8.036736422729492
1757614631541247700,66.58024780273438,3.5314474487304683,0.7511807708740234,10.058490087127684
1757614631551203000,66.590203125,3.1675287963867187,0.8173205917358398,12.34659868621826
1757614631561158000,66.60015795898437,2.591424021911621,0.6117185241699218,14.29413209915161
1757614631571113000,66.61011303710937,1.6469114669799805,-0.2172738006591796,15.178490337371825
1757614631581068000,66.62006811523437,0.2069488059997558,-1.4335282440185546,15.140632023620604
1757614631591022800,66.63002294921876,-1.4229039741516112,-2.538302672576904,13.93784496459961
1757614631600978000,66.63997802734374,-2.437297290039062,-3.176806327819824,11.917288401031492
1757614631610934000,66.64993408203125,-2.4652795219421386,-2.9076082786560056,10.409090992736816
1757614631620888800,66.65988891601563,-1.5830162101745604,-1.7688661140441893,9.361178853607177
1757614631630844000,66.66984399414062,-0.5446808776855468,0.1249473991394043,8.744073375701904
1757614631640799000,66.67979907226562,-0.3073556381225585,2.618059515380859,8.396914134979248
1757614631650754000,66.68975415039063,-1.128117894744873,6.1176341545104975,7.805695962524414
1757614631660708900,66.699708984375,-2.498947982788086,12.212224118041991,6.457610790252685
1757614631670664000,66.70966381835937,-2.437596565246582,23.63466096343994,4.131045326995849
1757614631680619000,66.71961889648438,2.9791350532531737,37.15292208709717,4.520252734375
1757614631690573800,66.72957373046874,6.715586019134521,44.25038327102661,10.723329960632324
1757614631700529000,66.73952880859375,2.136824981689453,37.30106331481933,8.90044467163086
1757614631710485000,66.74948510742188,-1.0226233840942385,30.125940214538574,2.6412533439636228
1757614631720439800,66.75943969726562,-1.5664064361572263,28.376078076171872,-1.6392799491882324
1757614631730395000,66.76939477539062,-2.274192301940918,27.150396463775632,-4.304176034545899
1757614631740350000,66.77934985351563,-3.579032206726074,26.926538608551024,-3.9996635108947753
1757614631750305000,66.78930493164063,-4.938789112091064,27.88601492385864,-2.072929724884033
1757614631760259800,66.799259765625,-5.361515342712402,27.871649713897703,0.1361702194213867
1757614631770215000,66.80921484375,-4.407425981140136,25.74110951156616,0.4459200592041015
1757614631780170000,66.819169921875,-3.991732717895508,23.00588375244141,-0.1167173309326171
1757614631790124800,66.82912475585937,-4.509778102111816,20.462643038940428,-0.6209960556030273
1757614631800080000,66.83907983398437,-4.69233597869873,18.04704320144653,-0.8637082489013671
1757614631810036000,66.84903588867188,-4.573523721313476,15.634436116027832,-0.8086416107177734
1757614631819990800,66.85899072265624,-4.342483261108399,13.207912733459471,-0.5943605621337891
1757614631829946000,66.86894604492187,-3.96464831161499,10.925340725708008,-0.4372410781860351
1757614631839901000,66.87890087890625,-3.5922003158569336,8.844330570220947,-0.5208884986877441
1757614631849856000,66.88885595703125,-3.699789752960205,6.917147871398925,-0.8770259956359863
1757614631859810800,66.89881079101562,-4.018667486572266,5.065382524871826,-1.3006500518798827
1757614631869766000,66.90876586914062,-3.854066122436523,3.473687333679199,-1.387290224456787
1757614631879721000,66.91872094726563,-2.64334827041626,2.2028151649475096,-0.965910732269287
1757614631889675800,66.92867578125,-0.81073653717041,1.0296563514709471,-0.6673837127685547
1757614631899631000,66.93863110351562,0.4514566505432129,-0.1990180130004882,-1.170914249420166
1757614631909587000,66.9485869140625,0.6391022056579589,-1.5158289260864255,-2.35574479598999
1757614631919541800,66.95854174804687,0.0736217010498046,-2.929605006408692,-3.8443396781921386
1757614631929497000,66.9684970703125,-0.6358101783752441,-4.273051412963867,-5.347599045562744
1757614631939452000,66.97845190429688,-0.946158568572998,-5.292083494567871,-6.737433109283447
1757614631949407000,66.98840698242188,-0.6325181510925293,-5.689969882965087,-7.944709296417236
1757614631959362000,66.99836206054688,-0.0778115539550781,-5.062389772796631,-8.741529536437987
1757614631969316900,67.00831689453125,0.3582324234008789,-3.298760974884033,-8.9761612991333
1757614631979272000,67.01827197265625,0.6407482192993164,-0.9904512992858886,-8.847323322296143
1757614631989226800,67.02822680664063,1.0730512565612793,1.2538134819030762,-8.873060990142822
1757614631999182000,67.03818212890624,1.5324387001037596,3.356221814727783,-9.355642262268066
1757614632009138000,67.04813793945313,1.85775085067749,5.288492192077636,-10.064325953674317
1757614632019093000,67.05809301757813,2.0397101768493653,6.769305918884277,-10.50889927444458
1757614632029048000,67.06804809570312,2.024896054077148,7.275978845214843,-10.65524485092163
1757614632039003000,67.0780029296875,1.0097545501708984,7.113322769927978,-11.228656148529051
1757614632048958000,67.0879580078125,-0.9689034843444824,8.039130624389648,-13.025504494476316
1757614632058913000,67.0979130859375,-1.7603367706298827,12.709320237731934,-16.403723036956787
1757614632068867800,67.10786791992187,-1.4821604652404785,20.936994242858887,-19.340660285949703
1757614632078823000,67.11782299804688,-2.0115783073425293,28.09775213317871,-18.22062282180786
1757614632088778000,67.12777807617188,-2.760514514160156,31.336807704162595,-13.517512935638427
1757614632098733000,67.13773315429688,-4.272153587341308,30.260763695526123,-8.237400449371338
1757614632108689000,67.14768896484375,-7.68029965057373,26.045173122406005,-4.142417784881592
1757614632118644000,67.15764404296876,-11.430966188812254,20.60210528564453,-1.4565724349975586
1757614632128599000,67.16759912109374,-13.127258065032958,15.698032097625733,-0.3037643356323242
1757614632138553900,67.17755395507812,-12.435633060455322,12.53858373184204,-1.0161889671325683
1757614632148509000,67.18750903320313,-11.285967350769042,11.494262895202636,-1.4279916526794432
1757614632158463200,67.19746313476563,-9.649680153656004,12.09805062637329,-0.4581903427124023
1757614632168418300,67.20741821289063,-8.180238884735108,13.36263801574707,1.0657190139770507
1757614632178373400,67.21737329101562,-7.437138544464111,14.19282744140625,2.241720941925049
1757614632188328200,67.227328125,-6.8207812545776365,14.062343450927733,2.7666496559143066
1757614632198283300,67.237283203125,-5.901856729888916,12.933776643371582,2.58558815536499
1757614632208239400,67.2472392578125,-4.51351904220581,11.40148758087158,2.0109797569274903
1757614632218194200,67.25719409179688,-2.849848163604736,9.97858360671997,1.392377902984619
1757614632228149500,67.2671494140625,-1.1878232986450197,8.785672629547118,0.8265981231689452
1757614632238104300,67.27710424804687,0.1572691215515136,7.787290537261962,0.3535936576843261
1757614632248059400,67.28705932617187,0.9816226806640624,6.871957315063476,-0.0613514175415039
1757614632258014200,67.29701416015625,1.4908394462585448,5.987299801635742,-0.3416226493835449
1757614632267969300,67.30696923828125,1.9009961181640624,5.174917250823975,-0.2814683326721191
1757614632277924400,67.31692431640624,2.314295179748535,4.395006060028076,0.3278559898376464
1757614632287879200,67.32687915039062,2.864063735961914,3.692457510375976,1.2862848419189452
1757614632297834500,67.33683447265625,3.4344822814941405,2.96252527923584,2.3892636192321777
1757614632307790300,67.34679028320312,3.782090435028076,2.208351756286621,3.6445734771728513
1757614632317745200,67.3567451171875,3.90703783416748,1.421856510925293,5.000439804840088
1757614632327700500,67.36670043945313,3.975272581481933,0.6892308029174804,6.307973186492919
1757614632337655300,67.3766552734375,3.938162455749512,0.2328361114501953,7.436689631652832
1757614632347610000,67.38661010742187,3.800196585083008,0.0849941589355468,8.552088330078124
1757614632357565400,67.3965654296875,3.6200329101562496,0.0962169792175293,9.90271734161377
1757614632367520300,67.40652026367188,3.2366613693237305,0.0462380195617675,11.441291183471678
1757614632377475300,67.41647534179687,2.449567573547363,-0.3338414939880371,13.0229606552124
1757614632387430100,67.42643017578125,0.8295908752441405,-1.10462479095459,13.94263336791992
1757614632397385500,67.43638549804687,-1.2825439018249511,-1.8267758666992189,13.760524404144286
1757614632407340300,67.44634033203126,-3.1425393165588376,-2.2891560623168945,12.327744348144533
1757614632417296400,67.45629638671875,-3.932176951599121,-2.504334936523437,10.166678074645995
1757614632427251500,67.46625146484375,-3.607463351440429,-2.134281142425537,8.575880709075927
1757614632437206300,67.47620629882813,-2.6855460746765134,-1.0640730003356933,7.917026339721679
1757614632447161000,67.4861611328125,-1.9225439331054688,0.6374561920166015,7.669076830291748
1757614632457116400,67.49611645507812,-1.9143138648986813,3.0591911712646485,7.347954532623291
1757614632467071200,67.5060712890625,-2.57286895904541,6.897545345306396,6.691943277740478
1757614632477026300,67.5160263671875,-3.4488474914550777,14.10947929611206,5.0297687751770015
1757614632486981400,67.5259814453125,-1.7896657409667969,25.65821027908325,2.857629319000244
1757614632496936400,67.5359365234375,3.866186768341064,39.93393695297241,6.918494609832763
1757614632506891300,67.54589135742188,6.104017132568359,49.37666830062866,14.831780009460449
1757614632516847400,67.55584741210937,1.2804489753723145,39.22166195907592,9.948356810760496
1757614632526802200,67.56580224609375,-2.9008745864868164,31.954960645294182,1.8291700683593748
1757614632536757200,67.57575732421876,-3.3476924713134766,30.66942399139404,-3.924246158599853
1757614632546712300,67.58571240234374,-3.19206936340332,29.11109798583984,-6.274304725646973
1757614632556667400,67.59566748046875,-3.672256433868408,27.45446007461548,-4.9669209815979
1757614632566622200,67.60562231445313,-4.880280809020996,25.58204473876953,-2.8989292976379395
1757614632576577300,67.61557739257813,-5.463418550872802,23.919720598602293,-1.0613795234680174
1757614632586532400,67.62553247070312,-4.959738376617431,22.54125899276733,-0.3941454483032226
1757614632596487200,67.63548706054688,-4.619911378479004,21.21053178253174,-0.6395511184692383
1757614632606442200,67.64544213867188,-4.689043951416015,19.42759973373413,-0.7882908966064452
1757614632616398300,67.6553984375,-4.618564640045165,17.176451622772216,-0.7558195365905761
1757614632626353200,67.66535327148438,-4.523844036865234,14.732121365356443,-0.8271966735839843
1757614632636308200,67.67530810546874,-4.371213681030273,12.528558012390135,-1.0845733520507812
1757614632646263300,67.68526318359375,-4.387823455047607,10.52087028274536,-1.6093524284362792
1757614632656218400,67.69521826171875,-4.614674062347412,8.624662567901611,-2.1437083114624023
1757614632666173200,67.70517309570313,-4.882226097869872,6.762572226715087,-2.463633508300781
1757614632676128500,67.71512841796876,-4.916792384338379,4.856039517211914,-2.599803727722168
1757614632686083300,67.72508325195312,-4.415356774139404,3.16019655380249,-2.538901222991943
1757614632696038100,67.7350380859375,-3.459022848510742,1.6710031211853027,-2.43879366607666
1757614632705993500,67.74499340820313,-2.09417826461792,0.2293944465637206,-2.6623522460937497
1757614632715948300,67.7549482421875,-0.8930372192382812,-1.360505093383789,-3.387645711517334
1757614632725904100,67.76490405273438,-0.206200617980957,-3.1661820579528808,-4.509179551696777
1757614632735859500,67.774859375,0.2718915260314941,-4.921131874847412,-5.914426288604736
1757614632745814300,67.78481420898437,0.7661445312499999,-6.32652824935913,-7.494599384307861
1757614632755769300,67.79476928710938,1.3890858757019042,-6.9427359016418455,-9.101707248687744
1757614632765724400,67.80472436523438,2.0522797355651856,-6.418256100463867,-10.443208366394042
1757614632775679200,67.81467919921874,2.5176526832580564,-4.708047927093506,-11.220725355529783
1757614632785634300,67.82463427734375,2.605938869476318,-2.357540447235108,-11.515212159729003
1757614632795589000,67.83458911132813,2.486079148864746,0.1508347045898437,-11.3374426864624
1757614632805544400,67.84454443359375,2.431162148284912,2.63062907409668,-10.627262619018554
1757614632815499300,67.85449926757812,2.5397990486145017,4.746355153656006,-9.465176988220216
1757614632825455000,67.864455078125,2.465429159545898,5.951985327148437,-8.100033129119872
1757614632835410400,67.87441040039063,2.1767782218933105,5.967996550750732,-6.656778440856933
1757614632845365200,67.884365234375,1.7259201217651363,5.3214124649047845,-5.427954438781738
1757614632855320300,67.8943203125,0.8394669570922851,4.76266565246582,-4.640262092590332
1757614632865275400,67.904275390625,-0.8322843521118164,4.855291329193115,-4.204517390441894
1757614632875230200,67.91423022460937,-3.469647118377685,6.651391487121582,-4.73094248046875
1757614632885185300,67.92418530273437,-6.264877556610107,11.583895819854735,-6.893205854797363
1757614632895140400,67.93414038085938,-7.94246473236084,20.29564747314453,-9.572317512512209
1757614632905095400,67.94409545898438,-7.337928813171386,30.521731676483157,-9.05891089401245
1757614632915050200,67.95405029296874,-4.515464331054687,36.60435063171386,-2.8266543350219724
1757614632925006300,67.96400634765625,-4.413261847686767,36.36642684173584,4.465335733795166
1757614632934961400,67.97396142578125,-8.870517150878905,30.806791311645505,5.689969882965087
1757614632944916200,67.98391625976562,-12.136208215332031,22.802526248931883,2.8100445610046383
1757614632954871300,67.99387133789062,-13.778480916595456,17.0865194229126,0.2563292152404785
1757614632964826400,68.00382641601563,-13.006201243591308,13.467683613586424,-1.6753426116943355
1757614632974781200,68.01378125,-10.55947678451538,11.896488774108883,-3.0234277839660644
1757614632984736300,68.023736328125,-8.259397177124024,12.058695936584472,-3.5974376319885253
1757614632994691300,68.03369140625,-6.632387511444091,13.312359780883789,-3.226486012268066
1757614633004646400,68.043646484375,-5.916521215057372,14.927099163055418,-2.160467723083496
1757614633014601200,68.05360131835937,-5.116708222961425,16.25962202453613,-0.4327519500732422
1757614633024557300,68.06355737304688,-4.210652532196045,16.52926898651123,1.1113584831237793
1757614633034512400,68.07351245117188,-3.409941714477539,15.484050324249267,1.940051532745361
1757614633044467200,68.08346728515625,-2.66893630065918,13.659070108795165,2.1574749710083005
1757614633054422300,68.09342236328125,-1.9270330612182616,11.80535947341919,2.0492869834899903
1757614633064377300,68.10337744140625,-1.1733084510803222,10.283096130371094,1.7821838607788083
1757614633074332200,68.11333227539062,-0.5366004470825195,8.992471797943114,1.6066589515686034
1757614633084287500,68.12328759765624,-0.0450409187316894,7.792078940582275,1.6264111152648926
1757614633094242300,68.1332421875,0.3648164779663085,6.58270782699585,1.794603781890869
1757614633104197400,68.143197265625,0.7015010864257812,5.357924040222168,2.134879692840576
1757614633114152200,68.15315209960937,1.088463929748535,4.186411240386962,2.7720366096496583
1757614633124107300,68.16310717773437,1.4833575660705565,3.054402767944336,3.840149825286865
1757614633134063400,68.1730634765625,1.7018284675598143,1.943642835235596,5.325303042602539
1757614633144018400,68.18301831054687,1.6844705055236815,0.7496843948364257,6.994660150146484
1757614633153973200,68.19297314453125,1.509244871520996,-0.5574000740051269,8.274959487915039
1757614633163928300,68.20292822265625,1.1059715293884276,-1.6627730529785156,8.933963494873046
1757614633173883400,68.21288330078124,0.567575431060791,-2.3044190979003907,9.393949488830566
1757614633183838500,68.22283837890625,-0.0568622894287109,-2.567631642913818,9.91498762512207
1757614633193793300,68.23279321289063,-0.7172130348205566,-2.589628370666504,10.598831474304198
1757614633203748400,68.24274829101563,-1.1640309196472167,-2.5899276458740235,11.137077935028076
1757614633213703400,68.25270336914062,-1.294814185333252,-2.53456173248291,11.232546726226806
1757614633223658200,68.262658203125,-1.1688193229675292,-2.265214045715332,10.728268001556396
1757614633233613300,68.27261328125,-0.8086416107177734,-1.4772224243164065,9.829245278167724
1757614633243569400,68.2825693359375,-0.2534861007690429,-0.0713771369934082,8.987084844207763
1757614633253524200,68.29252416992188,0.3066074501037597,1.6502034942626953,8.381351824188233
1757614633263479300,68.30247924804688,0.7522282341003418,3.633500294494629,7.958475955963134
1757614633273434400,68.31243432617188,0.7003039855957031,5.946149460601807,7.420528770446777
1757614633283389400,68.32238940429687,0.0221463653564453,8.874557366180419,6.509535038757324
1757614633293344300,68.33234423828125,-1.1249755050659178,13.373112648010252,4.933252520751953
1757614633303299300,68.34229931640625,-0.8936357696533203,20.96048734664917,3.001730331420898
1757614633313254400,68.35225439453124,2.5731682342529294,30.83447426834106,2.8284499862670898
1757614633323209200,68.36220922851562,7.108684004211425,39.13337577285766,6.889614552307129
1757614633333164500,68.37216455078125,6.534823793792724,40.25236577377319,11.84980184173584
1757614633343120400,68.38212036132812,2.035221048736572,33.105823455810544,9.293542656707762
1757614633353075200,68.3920751953125,-1.2617442749023438,28.53783632583618,3.2954689476013184
1757614633363030500,68.40203051757813,-1.8339584716796875,27.174787393188478,-2.524236737823486
1757614633372985300,68.4119853515625,-0.974290438079834,27.47900064163208,-6.21834026184082
1757614633382940400,68.4219404296875,-0.457741429901123,29.610289031982425,-5.55439821395874
1757614633392895500,68.4318955078125,-1.126172605895996,32.62009979400634,0.0677858345031738
1757614633402850300,68.44185034179688,-1.4918869094848632,32.98716083602905,5.705232918548584
1757614633412805400,68.45180541992187,-1.230470015716553,28.75600795211792,4.623353043365478
1757614633422760200,68.46176025390625,-2.412607085418701,24.882040028381347,1.3383587280273437
1757614633432715500,68.47171557617187,-4.442590818023682,22.974609493255613,-0.2750339157104492
1757614633442670300,68.48167041015626,-5.208735349273681,20.73124253768921,-1.1629834564208985
1757614633452626200,68.49162622070313,-5.186289708709716,18.059014209747318,-1.543062969970703
1757614633462581500,68.50158154296875,-5.220556719970703,15.627852061462402,-1.6338929954528807
1757614633472536300,68.51153637695313,-5.272181693267822,13.453767316436767,-1.8960580772399904
1757614633482491100,68.5214912109375,-5.135712198638916,11.32472349014282,-2.468870824432373
1757614633492446500,68.53144653320312,-4.753088845825195,9.219771318054198,-3.0729578308105467
1757614633502401300,68.5414013671875,-4.280982205963134,7.082946336364746,-3.580977495574951
1757614633512356400,68.5513564453125,-3.720589379882812,4.829254386138916,-4.065952969360351
1757614633522311400,68.5613115234375,-3.130717945861816,2.4308628730773925,-4.554519745635986
1757614633532266500,68.5712666015625,-2.5930700355529783,-0.0112228202819824,-4.926219553375244
1757614633542221300,68.58122119140624,-1.7337012771606444,-2.411858897399902,-5.245695837402344
1757614633552177400,68.59117749023437,-0.6720224784851074,-4.623951593780517,-5.792471641540527
1757614633562132500,68.60113256835938,0.4519055633544921,-6.31410832824707,-6.734589994812011
1757614633572087300,68.61108740234376,1.5288473976135253,-6.929867067718505,-7.773224602508544
1757614633582042400,68.62104248046874,2.3267151008605955,-6.117484516906738,-8.589946643829345
1757614633591997400,68.63099755859375,2.8562825805664063,-4.23968222732544,-9.260323108673097
1757614633601952300,68.6409521484375,3.137451638031006,-2.044797855377197,-9.846752877807615
1757614633611907300,68.6509072265625,3.2166099304199216,0.0589572158813476,-10.269479108428955
1757614633621862400,68.6608623046875,3.208230224609375,1.9418471839904785,-10.179696546173096
1757614633631817200,68.67081713867188,3.0410850212097165,3.4343326438903805,-9.459490759277344
1757614633641772300,68.68077221679688,2.579901926422119,4.455459651947021,-8.261941016387938
1757614633651728400,68.69072827148437,1.8996493797302243,4.957044899749755,-6.948721405792236
1757614633661683200,68.70068310546876,1.1936591651916504,4.946570267486572,-5.922057806396484
1757614633671638300,68.71063818359374,0.3755903854370117,4.744559502410889,-5.314828410339355
1757614633681593300,68.72059326171875,-0.7775169891357422,4.862025021362304,-5.096507146453857
1757614633691548400,68.73054833984375,-1.8637363548278807,6.297348916625976,-5.531054747772217
1757614633701503200,68.74050317382813,-3.113060708618164,9.820566297149655,-6.724414637756348
