time,seconds_elapsed,z,y,x
1757614480823691500,37.54669140625,-0.2823661582946777,-3.407397875213623,-10.23401499633789
1757614480833646600,37.556646484375,-0.901416925048828,-1.5442600708007812,-10.850521923828124
1757614480843602700,37.56660278320312,-1.0052654220581054,0.5810428153991699,-10.780790800476074
1757614480853557500,37.5765576171875,-0.4528033889770507,2.393603109741211,-9.991003527832031
1757614480863512600,37.5865126953125,0.1892915687561035,3.445705101776123,-8.898349745178223
1757614480873468700,37.59646875,0.7519289588928222,3.758896606445312,-7.858069123840331
1757614480883423500,37.60642358398437,0.7824550300598144,3.6547488342285153,-7.168539045715332
1757614480893379300,37.61637939453125,-0.4581903427124023,4.034229797363281,-6.984185517883301
1757614480903334700,37.62633471679688,-2.32402162399292,6.521356409454345,-7.640795323181152
1757614480913289500,37.63628955078125,-3.708169458770752,12.85731182785034,-9.398737892150878
1757614480923245600,37.64624560546875,-5.186140071105957,24.32553777999878,-10.679635780334472
1757614480933200600,37.65620068359375,-4.388122730255127,34.421437268066406,-6.526893000793456
1757614480943156500,37.66615649414062,-2.487874800109863,30.691719994354248,3.836408885192871
1757614480953111600,37.676111572265626,-7.396736391448974,22.63164010543823,10.81580599975586
1757614480963066600,37.68606665039062,-14.316128826904295,17.011850258636475,10.695048453521729
1757614480973022500,37.6960224609375,-16.029629027557373,12.343605934143064,7.396437116241454
1757614480982977500,37.7059775390625,-14.451401220703124,10.812214697265624,5.706579656982422
1757614480992932600,37.7159326171875,-12.776208246612548,12.020388710021972,4.269310472869873
1757614481002888400,37.725888427734375,-10.81580599975586,14.673912337493896,3.976020769500732
1757614481012843500,37.73584350585938,-8.626757494354248,16.817171736145017,4.528782077789306
1757614481022799400,37.74579931640625,-7.255328855895995,17.78128681716919,4.7240591506958
1757614481032754200,37.75575415039062,-6.620865415954589,17.847875550842286,4.217535861968994
1757614481042709000,37.765708984375,-6.026953766632079,16.95693325805664,3.233070066833496
1757614481052665300,37.775665283203125,-5.424662411499023,15.324835913848876,2.313846266937256
1757614481062620200,37.7856201171875,-4.63487513885498,13.49671330871582,1.8522142593383788
1757614481072576300,37.795576171875,-3.756053491973877,11.895441310882568,1.6041151123046875
1757614481082531300,37.80553125,-2.8003181167602538,10.510994200897215,1.5343839889526367
1757614481092486100,37.815486083984375,-1.8454805671691892,9.285911138916015,1.490689808654785
1757614481102442200,37.82544213867188,-0.8915408432006835,8.149263900756836,1.3558663276672362
1757614481112397300,37.83539721679688,0.0002992752075195,7.198765841674804,1.20024321975708
1757614481122353200,37.84535327148438,0.7707832969665527,6.216843885803223,1.0136451278686522
1757614481132308200,37.85530810546875,1.2791022369384766,5.329941808319092,0.8789712844848633
1757614481142263300,37.86526318359375,1.5273510215759276,4.58354944076538,0.9466074813842772
1757614481152219400,37.87521948242188,1.9045874206542968,3.7988498466491696,1.3274351829528808
1757614481162174200,37.88517431640625,2.333299155426025,3.0596400840759275,2.012476132965088
1757614481172130000,37.89513012695313,2.7186159851074216,2.2034137153625486,2.922123126220703
1757614481182085400,37.90508544921875,3.040336833190918,1.3007996894836424,3.7886744895935056
1757614481192040200,37.915040283203126,3.4096424392700198,0.4281131843566894,4.838831192779541
1757614481201996000,37.92499609375,3.744980309295654,-0.3923497970581054,5.776759693145752
1757614481211951400,37.93495141601562,3.9154175399780273,-1.0491092399597168,6.487987223815917
1757614481221907200,37.9449072265625,3.814561795043945,-1.453729320526123,7.122749938964843
1757614481231862000,37.95486206054687,3.453186981964111,-1.5523405014038083,7.688230443572998
1757614481241817300,37.9648173828125,2.8600235206604,-1.569249550628662,8.117540728759765
1757614481251773200,37.974773193359376,2.0163667106628416,-1.7004817291259764,8.292616725158691
1757614481261728300,37.98472827148437,1.170764611816406,-1.835604485321045,8.241590302276611
1757614481271683300,37.994683349609375,0.2334346618652343,-1.8625392539978027,8.061127352142334
1757614481281639200,38.00463916015625,-0.5729623847961426,-1.596782869720459,7.583334483337402
1757614481291594200,38.01459423828125,-1.019032081604004,-0.9023147506713868,6.691793640136718
1757614481301550000,38.024550048828125,-1.316362000274658,0.4055179061889648,5.683236190795898
1757614481311505200,38.03450512695313,-2.3050176483154297,2.5475802040100097,4.771344633483887
1757614481321460200,38.04446020507813,-4.171297842407227,6.221183376312256,3.755903854370117
1757614481331416000,38.054416015625,-6.03937368774414,13.110947566223144,1.8863316329956052
1757614481341371100,38.06437109375,-4.367323103332519,21.716157245635983,-1.1423334671020506
1757614481351327200,38.0743271484375,1.0465654006958007,28.37308532409668,1.5155296508789062
1757614481361282000,38.08428198242188,1.586607512664795,33.76722166442871,9.4228295463562
1757614481371237400,38.0942373046875,-2.5397990486145017,34.69422661972046,13.168408406066892
1757614481381193200,38.10419311523437,-3.4190696083068848,28.84474305114746,10.416123960113524
1757614481391148000,38.11414794921875,-4.157680820465088,23.195025683593748,5.712265885925293
1757614481401104100,38.12410424804688,-5.489156218719482,20.90407397003173,2.816030065155029
1757614481411059200,38.13405908203125,-6.032490357971192,19.77924810256958,1.6614263145446777
1757614481421014000,38.14401391601562,-5.240608158874512,19.600730441284178,1.291522158050537
1757614481430970000,38.15397021484375,-4.8032174430847165,19.927987880706787,1.3979144943237305
1757614481440925200,38.16392529296875,-5.574000740051269,19.97617118911743,1.4769231491088866
1757614481450881300,38.17388134765625,-6.262184079742431,19.88848355331421,2.1869535789489745
1757614481460836000,38.18383618164062,-6.43501551208496,19.81770496673584,3.205985660552978
1757614481470791200,38.193791259765625,-6.235847861480712,19.011607195281982,3.816058171081543
1757614481480747300,38.203747314453125,-6.10341858215332,17.37322507171631,3.737648066711426
1757614481490702000,38.2137021484375,-5.945850185394287,15.367931543731688,3.1555577880859373
1757614481500657200,38.2236572265625,-5.741445218658447,13.310115216827391,2.3529016815185546
1757614481510613200,38.23361328125,-5.430947190856934,11.170746395874025,1.5445593460083007
1757614481520568000,38.243568115234375,-4.973953948974609,9.005789544677734,0.7977180656433105
1757614481530524200,38.253524169921874,-4.759523262786865,6.930166342926025,-0.0327706352233886
1757614481540479200,38.26347924804688,-4.739920736694336,5.01151298751831,-0.903960764312744
1757614481550434000,38.27343408203125,-4.527136064147949,3.2529718681335447,-1.6380828483581542
1757614481560390100,38.28339013671875,-4.157680820465088,1.5982792457580566,-2.1779753227233885
1757614481570345200,38.29334521484375,-3.743932846069336,-0.0818517692565918,-2.645742472076416
1757614481580301300,38.30330126953125,-3.378667455291748,-1.727566135406494,-3.125181354522705
1757614481590256000,38.31325610351563,-2.939780363464356,-3.299359525299072,-3.6462194908142087
1757614481600211200,38.32321118164062,-2.307411849975586,-4.78226817855835,-4.209156156158447
1757614481610167300,38.33316723632812,-1.361851831817627,-5.997026245880127,-4.836586628723144
1757614481620122000,38.3431220703125,-0.0576104774475097,-6.826766758728027,-5.687426043701172
1757614481630078000,38.353077880859374,1.2174515441894531,-6.880486658477783,-6.755838534545898
1757614481640033300,38.363033203125,1.65364515914917,-5.812971993255615,-8.155399042510986
1757614481649988000,38.37298803710937,1.1501146224975585,-3.611353929138184,-9.260472746276855
1757614481659944200,38.38294409179687,0.2382230651855468,-0.835726016998291,-9.738564890289306
1757614481669899300,38.39289916992188,-0.5600935508728027,2.0216040267944333,-9.441234971618652
1757614481679855000,38.402855224609375,-1.0386346076965332,4.135384817504883,-8.74601866455078
1757614481689810200,38.41281005859375,-1.1379939765930176,4.946570267486572,-8.294412376403809
1757614481699765200,38.42276513671875,-1.4487912796020508,5.013308638763427,-8.034791133880615
1757614481709721000,38.43272119140625,-2.586785256195068,5.557690241241454,-8.182333811187744
1757614481719676200,38.44267626953125,-3.5652655471801755,8.467243808746337,-9.185504306793211
1757614481729632300,38.45263232421875,-3.8750153869628905,15.14302622528076,-10.383054049682617
1757614481739587000,38.46258715820313,-4.338143770599365,24.345289943695068,-9.552266073608395
1757614481749542100,38.47254223632813,-3.928136736297607,29.30233484344482,-4.468029210662841
1757614481759498200,38.48249829101562,-4.865466686248779,26.75280935058593,2.5905261962890624
1757614481769453300,38.49245336914063,-9.91453871231079,22.408081525421142,6.38473727722168
1757614481779408100,38.502408203125,-14.445864629364014,18.31624125061035,6.281188055419921
1757614481789364200,38.5123642578125,-14.75471664352417,15.557073474884032,4.119223956298828
1757614481799319300,38.5223193359375,-13.485789763641357,15.395315225219726,2.7883471084594724
1757614481809275100,38.53227514648437,-11.324424214935302,16.716465628814696,2.794033337402344
1757614481819230000,38.54222998046875,-8.852859913635253,17.725771266174316,3.3680431854248045
1757614481829185300,38.55218530273437,-7.35438894958496,17.684321649932862,3.8036382499694814
1757614481839141000,38.56214111328125,-6.583456015014648,17.00122598876953,3.674800273132324
1757614481849096000,38.57209594726562,-5.913079550170898,16.038308008575438,3.165433869934082
1757614481859052300,38.58205224609375,-5.254674093627929,14.928894814300536,2.7220576499938964
1757614481869007000,38.592007080078126,-4.539705622863769,13.73343999786377,2.561945413970947
1757614481878962200,38.60196215820312,-3.569605037689209,12.51329497680664,2.4437317070007323
1757614481888918300,38.61191821289062,-2.4947581298828125,11.27474453048706,2.3753473220825194
1757614481898873000,38.621873046875,-1.4873977813720702,10.01090532913208,2.243666230773925
1757614481908829200,38.6318291015625,-0.5633855781555176,8.722375923156738,2.0036475143432617
1757614481918784300,38.6417841796875,0.1231517478942871,7.433696879577636,1.7337012771606444
1757614481928739000,38.65173901367187,0.6792050834655762,6.190956580352783,1.4945803863525389
1757614481938695200,38.66169506835938,1.28329208984375,5.028870949554444,1.2765583976745605
1757614481948650200,38.67165014648437,1.9505261650085448,3.9936780067443847,1.3462895210266113
1757614481958605300,38.68160522460938,2.57286895904541,3.0838813758850097,1.7235259201049804
1757614481968561200,38.69156103515625,3.300107713317871,2.179621336364746,2.3783400741577148
1757614481978516200,38.70151611328125,4.031685958099365,1.1751041023254394,3.286789966583252
1757614481988472300,38.71147241210937,4.650886362457275,0.0199018013000488,4.301332920074462
1757614481998427100,38.72142724609375,4.993406837463379,-1.1501146224975585,5.32485412979126
1757614482008382200,38.73138232421875,4.739471823883056,-2.0498855339050293,6.271162335968017
1757614482018338300,38.74133837890625,4.07313557434082,-2.467075173187256,7.1416042770385735
1757614482028293000,38.75129321289062,3.2001497940063475,-2.525733113861084,7.969549138641357
1757614482038249200,38.76124926757812,2.473958502960205,-2.34272632446289,8.55538035736084
1757614482048204300,38.771204345703126,1.7732056045532223,-1.883937431335449,8.952967470550536
1757614482058159000,38.7811591796875,1.0172364303588866,-1.3316250358581545,8.96972688217163
1757614482068115200,38.791115234375,0.0793079299926757,-0.7695861961364746,8.49163473815918
1757614482078070300,38.8010703125,-0.4581903427124023,-0.1322796417236328,7.847744129180907
1757614482088026400,38.8110263671875,-0.5678747062683105,0.6570587181091309,7.26550421295166
1757614482097981200,38.82098120117188,-0.6292261238098145,1.7669208251953124,6.591386808013915
1757614482107936300,38.83093627929688,-1.1622352684020996,3.463362339019775,5.966200899505615
1757614482117892400,38.84089233398438,-2.518251233673096,5.9953802322387695,5.008220960235596
1757614482127847200,38.85084716796875,-4.5968671875,9.971550639343262,3.1534628616333005
1757614482137802200,38.86080224609375,-5.7900774398803705,16.467917568969725,0.3043628860473633
1757614482147758300,38.87075830078125,-2.201019513702392,22.86432657928467,0.0435445426940917
1757614482157713200,38.88071313476563,2.696319982147217,27.1590754447937,5.051915140533447
1757614482167669200,38.89066918945313,0.8545803550720215,30.942811893463134,9.600449382019042
1757614482177624300,38.90062426757813,-1.553986515045166,32.26037099456787,10.491690950012206
1757614482187579100,38.9105791015625,-1.001075569152832,29.243078352355955,7.657554734802246
1757614482197535200,38.92053515625,-2.130989115142822,24.906281320190427,4.196137684631347
1757614482207490300,38.930490234375,-4.677821131134033,22.162526217651365,3.25596462020874
1757614482217446400,38.9404462890625,-6.23120909576416,20.20182469558716,4.091989912414551
1757614482227401200,38.95040112304687,-6.591686083221435,19.028366606903077,4.799177227783203
1757614482237356300,38.96035620117188,-5.722291605377197,18.36771658630371,2.7729344352722167
1757614482247312400,38.9703125,-5.508010556793213,17.934964636230468,2.1761796714782715
1757614482257267200,38.98026708984375,-5.647023890686035,17.44939061203003,3.6258687767028808
1757614482267222300,38.99022216796875,-5.75880318069458,17.0980415184021,4.801571429443359
1757614482277178400,39.00017846679688,-5.6480713539123535,16.26051985015869,5.046378549194336
1757614482287133200,39.01013330078125,-5.352237811279297,14.943559299468994,4.633678038024902
1757614482297089300,39.02008935546875,-4.986523507690429,13.53531981048584,3.9362171669006343
1757614482307044400,39.03004443359375,-4.498704919433593,12.089222007751465,3.005770546722412
1757614482316999200,39.039999267578125,-4.077624702453613,10.58491517715454,2.007089179229736
1757614482326955300,39.049955322265625,-3.787327751159668,8.972569996643067,1.0244190353393554
1757614482336910300,39.05991040039063,-3.5146880371093747,7.395988203430175,0.2347814002990722
1757614482346866200,39.0698662109375,-2.853289828491211,5.895871225738525,-0.2831143463134765
1757614482356821200,39.0798212890625,-1.8140566703796384,4.421940828704834,-0.771232209777832
1757614482366776300,39.0897763671875,-0.7529764221191406,2.98811330947876,-1.373224289703369
1757614482376732200,39.09973217773437,-0.0468365699768066,1.485003579711914,-2.070834798431396
1757614482386687200,39.10968725585938,0.2564788528442382,-0.4161421760559082,-3.2517747673034667
1757614482396643000,39.11964306640625,0.0417488914489746,-2.7373206855773926,-4.975749600219726
1757614482406598400,39.12959838867187,-0.3317465675354004,-4.997895965576172,-6.606500205993652
1757614482416553200,39.13955322265625,-0.3908534210205078,-6.7553896217346185,-8.137891442871092
1757614482426509000,39.14950903320312,-0.0184054252624511,-7.542932330322265,-9.433603453826905
1757614482436464400,39.15946435546875,0.5060743759155273,-6.935553296661377,-10.29835916595459
1757614482446419200,39.16941918945312,0.6923731925964355,-4.96108511505127,-10.634744499206542
1757614482456375000,39.179375,0.4957493812561034,-2.1580735214233395,-10.439467426300048
1757614482466330400,39.189330322265626,0.3167828071594238,0.7279869422912597,-9.851541281127927
1757614482476286200,39.1992861328125,0.1292868896484375,3.0615853729248044,-9.446322650146485
1757614482486241000,39.20924096679688,-0.1650502769470214,4.514416867828369,-9.205256470489502
1757614482496196400,39.2191962890625,-1.0630255371093749,5.47763412322998,-8.97601166152954
1757614482506152200,39.22915209960937,-2.7980735527038574,7.264157474517821,-8.972569996643067
1757614482516107300,39.239107177734375,-4.147056550598144,12.09834990158081,-9.566182370758057
1757614482526063000,39.24906298828125,-4.474014714813232,21.49589069290161,-9.710433020782473
1757614482536018200,39.25901806640625,-4.037072911834716,31.09274877243042,-5.926995847320557
1757614482545973200,39.26897314453125,-2.658760943603516,30.500483136749267,2.8890532157897946
1757614482555929000,39.27892919921875,-5.563226832580567,23.87438040466309,9.381978480529783
1757614482565884200,39.28888427734375,-11.958289104461668,18.034623280334472,9.67137760620117
1757614482575839200,39.29883911132813,-14.396933132934567,12.559981909179688,6.6054527427673335
1757614482585795000,39.30879516601563,-13.833248279571531,9.841066648864745,4.957493812561035
1757614482595750400,39.31875048828125,-13.044508470153808,9.682899701690673,4.106205484771729
1757614482605706200,39.32870629882812,-11.436203504943848,11.38278288040161,3.807828102874756
1757614482615661000,39.3386611328125,-9.394697676849365,14.117410089111328,4.141370321655273
1757614482625616400,39.34861645507812,-7.915829238891601,16.424373026275635,4.299686906433105
1757614482635572200,39.358572265625,-7.02892716140747,17.936012099456786,4.275146339416503
1757614482645527000,39.36852709960937,-6.288819573211669,18.256236571502683,3.851223007965088
1757614482655483100,39.37848315429687,-5.406705899047851,17.105074485778808,3.0098107620239256
1757614482665438200,39.38843823242188,-4.949712657165527,15.063119744873044,2.063951468658447
1757614482675393000,39.39839306640625,-4.263474606323242,12.938565046691894,1.2720692695617677
1757614482685349000,39.40834912109375,-3.462015600585937,11.18511160583496,0.6142623634338379
1757614482695304200,39.41830419921875,-2.504035661315918,9.871592720031735,0.1424549987792968
1757614482705259300,39.42825927734375,-1.470937644958496,8.850016799163818,-0.0597054039001464
1757614482715215000,39.43821508789063,-0.5663783302307128,8.035240046691895,-0.0794575675964355
1757614482725170200,39.44817016601562,0.1424549987792968,7.369502347564697,0.0668880088806152
1757614482735126300,39.45812622070312,0.8494926765441894,6.798634889221191,0.3193266464233398
1757614482745081000,39.4680810546875,1.5312415992736816,6.2766989273071285,0.7128735443115234
1757614482755036200,39.4780361328125,2.0757728393554684,5.727977834320068,1.3774141426086426
1757614482764992300,39.4879921875,2.5225907241821286,5.143044441223144,2.1461025131225586
1757614482774947000,39.49794702148437,2.921674213409424,4.509628464508056,2.893991256713867
1757614482784903200,39.50790307617188,3.374477602386474,3.7345056770324714,3.713406774902344
1757614482794858200,39.51785815429688,3.8235400512695312,2.8021137680053707,4.728548278808593
1757614482804813000,39.52781298828125,4.293551764678955,1.636885747528076,5.751470938110352
1757614482814769200,39.53776904296875,4.524143312072754,0.376039298248291,6.576423047637939
1757614482824724200,39.54772412109375,4.536263957977295,-0.7799111907958984,7.224802784729003
1757614482834679000,39.55767895507813,4.258985478210449,-1.8124106567382807,7.70543876800537
1757614482844635100,39.56763525390625,3.61374813079834,-2.559401574707031,8.198943585205077
1757614482854590200,39.57759008789063,2.530521517181396,-3.0660745010375976,8.650849148559569
1757614482864546300,39.58754638671875,1.3157634498596191,-3.435529744720459,8.812457760620116
1757614482874501000,39.59750122070312,0.1176151565551757,-3.402010921478271,8.664166895294189
1757614482884456200,39.607456298828126,-0.4138976119995117,-2.808398547363281,8.269722171783446
1757614482894412300,39.617412353515626,-0.3452139518737793,-1.7750012557983397,7.555950801849365
1757614482904367000,39.6273671875,-0.0384568641662597,-0.4379892662048339,6.543353137207031
1757614482914323500,39.63732348632813,-0.0638952568054199,1.278054773712158,5.631311942291259
1757614482924278300,39.6472783203125,-1.2322656669616698,3.544765195465088,4.684854098510742
1757614482934233000,39.65723315429688,-3.4790742874145506,6.986130806732177,3.4029087471008297
1757614482944189200,39.667189208984375,-5.564573571014404,12.861052767944336,1.2407950103759764
1757614482954144300,39.67714428710938,-5.034257903289794,20.79304286804199,-1.3928268157958985
1757614482964099000,39.68709912109375,-1.656039360809326,27.976994586944578,0.5499181938171387
1757614482974055200,39.69705517578125,-1.194407353210449,33.53887468109131,6.657227353668213
1757614482984010200,39.70701025390625,-3.533692012786865,36.08585633468628,12.243199102020265
1757614482993966000,39.716966064453125,-5.132420171356201,32.50368173828125,12.822745541381837
1757614483003921200,39.72692114257813,-7.473350844573974,27.156830880737303,8.083273717498779
1757614483013876200,39.73687622070312,-9.3852705078125,24.77385204086304,3.832219032287597
1757614483023832600,39.74683251953125,-9.3975407913208,23.34331654891968,2.045695680999756
1757614483033787400,39.75678735351563,-8.34409206085205,22.173749037933348,1.59618431930542
1757614483043742500,39.76674243164062,-7.856273472595214,21.21666692428589,1.0248679481506346
1757614483053698600,39.77669848632812,-7.555202613830566,20.23145294113159,1.1546037506103517
1757614483063653400,39.7866533203125,-7.220164019012451,19.276615391540528,2.072181536865234
1757614483073609500,39.796609375,-6.922235549926757,18.17453443984985,2.873790180206299
1757614483083564500,39.806564453125,-6.583156739807128,16.655712761688232,3.053654579925537
1757614483093519400,39.81651928710937,-6.224475403594971,14.944307487487793,2.64948341217041
1757614483103475500,39.82647534179687,-6.016628771972656,13.134739945220948,1.848174044036865
1757614483113430500,39.83643041992188,-5.867888993835449,11.26172605895996,1.0105027381896972
1757614483123386400,39.846386474609375,-5.634603969573974,9.350853858947753,0.3131915046691894
1757614483133341400,39.85634155273438,-5.242553447723388,7.454047593688965,-0.2727893516540527
1757614483143296500,39.866296630859374,-4.885518125152587,5.7077767578125,-0.6757634185791015
1757614483153252400,39.87625244140625,-4.253897799682617,4.058920001983642,-1.2458826889038086
1757614483163207400,39.88620751953125,-3.417423594665528,2.616263864135742,-1.669506745147705
1757614483173162500,39.89616259765625,-2.6108769104003904,1.3210007659912109,-2.084451820373535
1757614483183118600,39.90611865234375,-1.8614917907714843,0.1934814216613769,-2.261173830413818
1757614483193073400,39.91607348632812,-1.47482822265625,-1.089810668182373,-2.942473840332031
1757614483203029500,39.92602954101562,-0.7134720947265625,-2.5375544845581053,-3.785232824707031
1757614483212984600,39.93598461914063,-0.2165256126403808,-4.058920001983642,-4.739920736694336
1757614483222939400,39.945939453125,0.0360626625061035,-5.375132364654541,-5.522974317169189
1757614483232895500,39.9558955078125,-0.0091278938293457,-6.338349620056152,-6.406434729766845
1757614483242850600,39.9658505859375,-0.369604881286621,-6.691344727325439,-7.274632106781006
1757614483252805400,39.97580541992188,-0.8592191207885742,-5.969044013977051,-7.78235249633789
1757614483262761500,39.985761474609376,-1.2886790435791016,-4.326472037506103,-7.981370509338379
1757614483272716500,39.99571655273437,-1.4384662849426268,-2.2469582580566403,-7.769932575225829
1757614483282672400,40.00567236328125,-1.311872872161865,-0.2660556594848632,-7.256226681518554
1757614483292627500,40.01562744140625,-0.8949825080871582,1.1818377944946288,-6.814945388031005
1757614483302582500,40.02558251953125,-0.3069067253112792,2.1076456489562987,-6.310217750549316
1757614483312538400,40.035538330078126,0.2130839477539062,2.562843239593506,-5.598541307067871
1757614483322493400,40.04549340820312,0.1473930397033691,2.625691033172607,-4.798578677368163
1757614483332449500,40.05544946289063,-1.121084927368164,2.5439889015197754,-4.06685079498291
1757614483342404400,40.065404296875,-3.816207808685303,3.0979473106384274,-3.736301328277588
1757614483352359400,40.075359375,-6.174945356750488,5.8165632957458495,-4.257788377380371
1757614483362315500,40.0853154296875,-7.345410693359375,12.913276291656494,-5.479729049682617
1757614483372270600,40.0952705078125,-7.441777310180663,25.548825190734863,-6.10955372390747
1757614483382225400,40.10522534179688,-3.790170865631104,37.57504976730346,-0.8179191421508789
1757614483392181500,40.11518139648437,0.0894832870483398,37.11356739730834,11.642703398132324
1757614483402136600,40.12513647460938,-6.048202306365966,27.309161961364744,16.78410182571411
1757614483412092400,40.13509252929688,-12.888735724639892,16.992547007751465,11.726201181030271
1757614483422047500,40.14504760742187,-14.672864874267578,10.594192708587643,8.45272896118164
1757614483432002600,40.15500244140625,-14.586374339294434,7.198765841674804,5.794566567993164
1757614483441958400,40.16495849609375,-13.782970044708252,6.931363443756103,3.656694123077392
1757614483451913500,40.17491357421875,-11.68430265197754,9.993248091888429,3.437475033569336
1757614483461868500,40.18486865234375,-9.740659816741942,14.195221643066406,4.896142395019531
1757614483471824400,40.19482446289062,-8.391527181243896,17.981950843811035,7.146392680358886
1757614483481779500,40.204779541015625,-7.527669294738769,20.681413215637207,8.434323535919189
1757614483491735600,40.214735595703125,-7.361721192169189,20.807707353210446,7.605630486297607
1757614483501690400,40.2246904296875,-7.38012661743164,18.446575603485105,5.562777919769287
1757614483511645400,40.2346455078125,-6.702567547607422,15.278897169494629,3.554192364501953
1757614483521601500,40.2446015625,-5.67575431060791,12.757952458953858,2.182763726043701
1757614483531556400,40.254556396484375,-4.547337140655517,10.902146897125244,1.2125135032653809
1757614483541512400,40.26451245117188,-3.3933319404602047,9.65282254333496,0.7939771255493163
1757614483551467500,40.27446752929688,-2.4172458511352537,8.866925848388671,0.9368810371398926
1757614483561422600,40.284422607421874,-1.5366285530090331,8.303390632629394,1.278204411315918
1757614483571378400,40.29437841796875,-0.6582558189392089,7.758410479736328,1.6689081947326658
1757614483581333500,40.30433349609375,0.0538695373535156,7.237970893859863,1.9975123725891115
1757614483591288600,40.31428857421875,0.6166565650939941,6.663362495422363,2.2506991981506346
1757614483601244400,40.32424438476563,0.9792284790039062,5.928492223358154,2.5225907241821286
1757614483611199500,40.33419946289062,1.2942156349182128,4.9999908920288085,2.8006173919677733
1757614483621155600,40.34415551757812,1.680430290222168,3.8419454765319823,3.1344588859558105
1757614483631110400,40.3541103515625,2.109740575408936,2.5740660598754883,3.591601765441894
1757614483641065500,40.3640654296875,2.6132711120605467,1.199046118927002,4.050241020965576
1757614483651021600,40.374021484375,3.229329126739502,-0.1737292579650878,4.521300197601319
1757614483660976400,40.38397631835937,3.806780639648437,-1.4133271675109862,4.90975941696167
1757614483670931500,40.393931396484376,4.012532344818115,-2.3306056785583493,5.250334603118896
1757614483680887600,40.40388745117188,3.812317230987549,-2.89219560546875,5.526864894866943
1757614483690842400,40.41384228515625,3.253420780944824,-3.2315736907958983,5.717503202056885
1757614483700798500,40.42379858398437,2.535309920501709,-3.4585739356994627,5.975328793334961
1757614483710753500,40.43375341796875,1.846528030395508,-3.3922844772338867,6.240486627197265
1757614483720708400,40.443708251953126,1.2609960868835448,-3.010558950042725,6.511629965209961
1757614483730664400,40.45366455078125,0.7052420265197753,-2.345569438934326,6.44144992904663
1757614483740619500,40.46361962890625,0.2536357383728027,-1.4178162956237792,5.848735380554199
1757614483750574300,40.47357421875,-0.0665887336730957,-0.2353799507141113,5.077353533172607
1757614483760530400,40.48353051757813,-0.5946598373413086,1.2855366539001465,4.362534700012207
1757614483770485500,40.49348559570313,-1.970876879119873,3.5392286041259764,3.7484219741821287
1757614483780441600,40.50344165039063,-4.326472037506103,7.362020467376708,2.8872575645446776
1757614483790396400,40.513396484375,-6.5218053222656245,14.003835147857664,1.4513351188659669
1757614483800351500,40.5233515625,-5.510255120849609,22.482002501678465,0.4988917709350585
1757614483810307600,40.5333076171875,-0.1307832656860351,28.28824080276489,2.07502465133667
1757614483820262400,40.54326245117188,0.9994295555114744,31.315708802032468,6.769305918884277
1757614483830217500,40.55321752929687,-2.6322750877380368,32.49590058288574,10.950030930328367
1757614483840173600,40.56317358398437,-4.921431150054931,29.889363162994385,11.244068821716308
1757614483850128400,40.57312841796875,-7.329848382568359,25.917083333587644,8.660276317596436
1757614483860084500,40.58308447265625,-10.557232220458983,23.12933477554321,5.820004960632324
1757614483870039600,40.59303955078125,-11.362881079101562,21.311986077880857,3.4715924072265625
1757614483879994400,40.60299438476562,-10.133907439422607,20.59671833190918,1.6717513092041014
1757614483889950500,40.61295043945312,-9.810690215301513,20.71642841491699,1.2282254516601565
1757614483899905500,40.622905517578126,-9.561543605041503,20.982484074401853,1.6608277641296385
1757614483909860400,40.6328603515625,-9.004143531036377,21.41987479019165,2.7262475028991697
1757614483919816400,40.64281640625,-8.488492348480223,21.88584628829956,3.96464831161499
1757614483929771500,40.652771484375,-8.050503082275391,21.26290494384765,4.643404482269287
1757614483939727600,40.6627275390625,-7.350947284698486,19.009063356018064,4.032134870910644
1757614483949682400,40.67268237304688,-6.49935968170166,16.150536211395263,2.829347811889648
1757614483959637500,40.68263745117188,-6.032490357971192,13.448081087493897,1.802384937286377
1757614483969593600,40.69259350585938,-5.793968017578124,10.946289990234376,1.0239701225280762
1757614483979548400,40.70254833984375,-5.470301880645752,8.792256684112548,0.4272153587341308
1757614483989504500,40.71250439453125,-4.699817858886719,7.049277875518799,-0.1274912384033203
1757614483999459600,40.72245947265625,-3.2977135116577148,5.500678314208984,-0.7790133651733397
1757614484009414400,40.73241430664063,-1.9910779556274412,4.086752596282959,-1.6971897018432616
1757614484019370800,40.74237084960937,-1.4725836585998535,2.8188731796264648,-2.846107223510742
1757614484029325800,40.752325927734375,-1.2433388496398925,1.5318401496887206,-4.033780884552002
1757614484039281000,40.76228100585938,-0.9204209007263184,-0.0380079513549804,-5.350741435241699
1757614484049236700,40.77223681640625,-0.448164623260498,-1.6859668815612792,-6.420201389312743
1757614484059191800,40.78219189453125,0.036361937713623,-3.329436683654785,-7.448511002349853
1757614484069148000,40.79214794921875,0.748936206817627,-4.7393221862792965,-8.399906887054442
1757614484079102700,40.802102783203125,1.7770961822509763,-5.728875659942626,-9.395445864868163
1757614484089057800,40.81205786132813,2.526331664276123,-6.017376959991455,-10.166378799438476
1757614484099014000,40.82201391601563,2.552967157745361,-5.535843151092529,-10.20259109954834
1757614484108968700,40.83196875,1.857152300262451,-4.260032941436768,-9.676764559936522
1757614484118923800,40.841923828125,0.694617756652832,-2.555810272216797,-8.776544735717772
1757614484128879900,40.8518798828125,-0.4373907157897949,-0.9023147506713868,-7.824101387786865
1757614484138834700,40.86183471679688,-1.1311106468200682,0.3371335212707519,-7.174225274658203
1757614484148790800,40.87179077148438,-1.3970166687011718,1.2243348739624025,-6.417657550048828
1757614484158745900,40.88174584960937,-1.579873820495605,1.8427870903015136,-5.536292063903808
1757614484168700700,40.89170068359375,-2.1467010635375976,2.357690084838867,-4.649539624023437
1757614484178656800,40.90165673828125,-3.413533016967773,3.431489529418945,-3.994575832366943
1757614484188611800,40.91161181640625,-4.779873976898193,6.370072792053223,-4.2521021484375
1757614484198567000,40.92156689453125,-5.842749876403809,12.849979585266112,-5.481375063323974
1757614484208522800,40.93152270507812,-7.269694065856934,24.079683197021485,-6.198438460540771
1757614484218477800,40.941477783203126,-6.4086792938232415,34.91479244766235,-1.97910694732666
1757614484228434000,40.95143383789063,-5.38231496963501,34.56508936767578,8.653841900634765
1757614484238388700,40.961388671875,-11.017816764831542,25.648034922027588,14.500183079528808
1757614484248343800,40.97134375,-15.722123751831054,15.330821417999267,10.0104564163208
1757614484258300000,40.9812998046875,-15.549292319488524,9.055469229125976,6.380248149108886
1757614484268254700,40.99125463867188,-13.689895455169676,6.845621096801757,3.8347628715515136
1757614484278209800,41.00120971679687,-11.482441524505614,7.77621735458374,1.5610194824218748
1757614484288166000,41.01116577148437,-10.3176624168396,11.007940682983396,0.8897451919555663
1757614484298120700,41.02112060546875,-9.734375037384032,14.400823710632324,1.6009727226257324
1757614484308076800,41.03107690429688,-9.18011735305786,16.807445291900635,2.7974750022888184
1757614484318032000,41.04103198242188,-8.842385281372069,18.07128449325561,3.141641490936279
1757614484327986700,41.05098657226562,-8.17799432067871,17.871518292236328,2.674323254394531
1757614484337942800,41.06094287109375,-7.100753211212158,16.33069988632202,1.830965719604492
1757614484347897900,41.07089794921875,-5.86070638885498,14.165443759918212,0.8138789268493651
1757614484357852700,41.08085278320313,-4.856189154815674,12.228833892059326,-0.0679354721069335
1757614484367808800,41.09080883789063,-3.9393595565795896,10.677091941070556,-0.7625532287597656
1757614484377763800,41.10076391601562,-2.9964930152893063,9.429413600921633,-1.178545767211914
1757614484387720000,41.11071997070312,-2.064699656677246,8.456918814086913,-1.2484265281677245
1757614484397674800,41.1206748046875,-1.243039574432373,7.735665563964844,-1.0562918449401857
1757614484407629800,41.1306298828125,-0.6085761344909668,7.231835752105712,-0.6625953094482422
1757614484417586000,41.1405859375,0.0215478149414062,6.751947956848144,-0.1244984863281249
1757614484427540700,41.15054077148437,0.7212532501220703,6.196942084503173,0.5584475372314452
1757614484437495800,41.160495849609376,1.3076830192565918,5.548711985015869,1.3028946159362793
1757614484447452000,41.17045190429688,1.80029001083374,4.793341361236572,2.1253028861999512
1757614484457406700,41.18040673828125,2.124704335784912,3.840000187683106,3.118298024749756
1757614484467362800,41.19036279296875,2.302922721862793,2.565835991668701,4.141071046447753
1757614484477318000,41.20031787109375,2.4308628730773925,1.1872247482299805,5.113416195678711
1757614484487272700,41.210272705078125,2.66878666305542,-0.1081879875183105,5.990591828918457
1757614484497228800,41.220228759765625,2.9408278266906738,-1.2026374214172362,6.710647978210448
1757614484507183900,41.23018383789063,3.054552405548096,-1.884685619354248,7.275679570007323
1757614484517138700,41.240138671875,2.842815196228027,-2.1474492515563965,7.75062932434082
1757614484527094800,41.2500947265625,2.375048046875,-2.2073042930603024,8.039878812408446
1757614484537049900,41.2600498046875,1.5459060844421386,-2.00469497756958,8.035240046691895
1757614484547006000,41.270005859375,0.3155857063293457,-1.5714941146850585,7.758111204528808
1757614484556960800,41.27996069335938,-0.8628104232788085,-1.1028291397094725,7.301716513061523
1757614484566915800,41.28991577148437,-1.7585411193847655,-0.52986675491333,6.64585489578247
1757614484576872000,41.299871826171874,-2.267608247375488,0.3326443931579589,5.704784005737304
1757614484586826800,41.30982666015625,-2.918232548522949,1.5843629486083983,4.7381250854492185
1757614484596781800,41.31978173828125,-3.9312791259765625,3.567061198425293,3.793013980102539
1757614484606738000,41.32973803710937,-5.112967282867431,6.674136402893066,2.4814403831481933
1757614484616692700,41.33969262695312,-5.233275916290283,12.133365100860596,0.5710170959472656
1757614484626648800,41.34964892578125,-2.7641058166503907,18.97329996871948,-0.7234978141784667
1757614484636604000,41.35960400390625,1.1254244178771973,24.69424483566284,1.5408184059143066
1757614484646558700,41.36955883789062,1.0468646759033202,29.887268236541747,6.134543203735351
1757614484656514800,41.37951489257812,-1.5387234794616698,32.18824566955566,8.556577458190917
1757614484666470000,41.389469970703125,-2.9056629898071287,29.56704376449585,6.764816790771484
1757614484676424700,41.3994248046875,-4.340388334655762,26.471191380310056,3.150021196746826
1757614484686380800,41.409380859375,-6.18033231048584,25.680057369232177,0.5978022270202636
1757614484696336000,41.4193359375,-6.820930892181396,25.75697109756469,-0.6385036552429199
1757614484706292000,41.4292919921875,-6.607846944427489,26.23296831512451,-1.0193313568115234
1757614484716246800,41.43924682617188,-6.475118389892578,25.92261992492676,-1.522113705444336
1757614484726201900,41.44920190429688,-6.695684217834472,23.835624265289304,-1.1339537612915038
1757614484736158000,41.45915795898438,-6.834547914123535,21.30914296340942,0.0016460136413574
1757614484746112800,41.46911279296875,-6.694786392211913,19.096002803802488,0.6067804832458495
1757614484756067800,41.47906787109375,-6.607846944427489,17.029208220672608,0.6935702934265137
1757614484766024000,41.48902392578125,-6.495169828796386,15.030648384857177,0.4106055847167968
1757614484775978800,41.49897875976563,-6.258293502044677,13.003058853912352,0.0833481452941894
1757614484785934600,41.5089345703125,-6.030993981933594,10.752958206176755,-0.1771709228515625
1757614484795890000,41.51888989257812,-5.821501336669922,8.43447317352295,-0.4137479743957519
1757614484805844700,41.5288447265625,-5.807585039520263,6.232555834197997,-0.7243956398010254
1757614484815800800,41.53880078125,-5.706579656982422,4.2782887290954585,-1.0654197387695312
1757614484825756000,41.548755859375,-4.762964927673339,2.745850028991699,-1.1149497856140136
1757614484835710700,41.55871069335937,-3.3545758010864257,1.6268600280761718,-1.089960305786133
1757614484845666800,41.56866674804687,-2.474706690979004,0.7981669784545898,-1.448492004394531
1757614484855622000,41.57862182617188,-2.1142297035217283,0.1764227348327636,-2.00454533996582
1757614484865577700,41.58857763671875,-1.745522647857666,-0.4240729690551758,-2.6286837852478024
1757614484875532800,41.59853271484375,-1.317110188293457,-1.2226888603210448,-3.3922844772338867
1757614484885487900,41.60848779296875,-0.9162310478210448,-2.2943933784484862,-4.440944804382324
1757614484895444000,41.61844384765625,-0.6200982299804687,-3.4356793823242184,-5.49693737411499
1757614484905398800,41.62839868164063,-0.6236895324707031,-4.4473792213439935,-6.534374880981445
1757614484915353900,41.63835375976562,-0.8877999031066894,-4.999841254425048,-7.446715351104736
1757614484925310000,41.64831005859375,-1.1821370697021485,-4.764610941314697,-8.057685687255859
1757614484935264800,41.6582646484375,-1.1490671592712405,-3.6961984504699705,-8.268674708557128
1757614484945220600,41.668220703125,-0.849791951751709,-2.1487959899902345,-8.179789971923828
1757614484955176000,41.67817602539063,-0.4634276588439941,-0.410455947113037,-7.7967177062988275
1757614484965130800,41.688130859375,-0.0396539649963378,1.2517185554504393,-7.327903093719482
1757614484975086600,41.69808666992188,0.2772784797668456,2.5576059234619137,-6.854599353027344
1757614484985042000,41.7080419921875,-0.1147720420837402,3.3933319404602047,-6.386233653259277
1757614484994996700,41.71799682617188,-1.6014216354370117,4.195688771820068,-6.074239249420166
1757614485004952800,41.72795288085938,-3.352630512237549,5.996128420257568,-6.157737032318115
1757614485014908000,41.73790795898437,-4.170998567199707,10.452336260223388,-6.732046155548096
1757614485024864500,41.74786450195312,-4.882226097869872,19.071761511993408,-7.139658988189697
1757614485034819300,41.7578193359375,-5.232677365875244,30.60642656021118,-4.684105910491943
1757614485044774700,41.76777465820312,-2.2430676803588865,35.37597554244995,3.687519469451904
1757614485054730500,41.77773046875,-2.546832015991211,28.50596351623535,12.440421463775634
1757614485064685600,41.787685546875,-10.255562811279296,20.00026284332275,14.248941542816162
1757614485074640600,41.797640625,-14.50407365722656,12.923601286315916,10.658686515808103
1757614485084596500,41.80759643554688,-14.738256507110597,9.018059828186034,8.008454915618897
1757614485094551600,41.81755151367187,-14.150629637145997,8.02566324005127,6.1571384819030754
1757614485104506400,41.82750634765625,-12.203395499420166,9.271097016143798,5.047874925231933
1757614485114462500,41.83746240234375,-9.775675016021728,11.637017169189452,5.135861836242675
1757614485124417500,41.84741748046875,-8.315960191345214,14.08434017868042,5.963956335449218
1757614485134373400,41.85737329101563,-7.477241422271728,15.9473283454895,6.321889483642578
1757614485144328400,41.86732836914062,-7.002740580749511,16.464775179290772,5.641636936950683
1757614485154283500,41.877283447265626,-6.714987468719482,15.48195539779663,4.44363828125
1757614485164239400,41.8872392578125,-6.194098970031738,13.692588932037353,3.263895413208008
1757614485174194700,41.89719458007813,-5.364957007598877,11.8101478767395,2.2327426856994625
1757614485184149500,41.9071494140625,-4.370764768218994,10.260051939392088,1.4001590583801269
1757614485194105300,41.91710522460937,-3.359513842010498,9.077615594482422,0.7826046676635742
1757614485204060700,41.92706079101563,-2.3319524169921872,8.053944747161864,0.378583137512207
1757614485214016500,41.9370166015625,-1.4052467369079589,7.100603573608398,0.1298854400634765
1757614485223971300,41.94697143554688,-0.6922235549926757,6.211606569671631,-0.024839842224121
1757614485233926700,41.9569267578125,-0.2244564056396484,5.421520021820068,-0.0775122787475585
1757614485243882500,41.966882568359374,0.1087865379333496,4.67991605758667,0.0231938285827636
1757614485253837600,41.97683764648438,0.3874117561340331,3.980060984802246,0.2961328178405761
1757614485263792600,41.98679272460937,0.66394204788208,3.312078721618652,0.7670423568725585
1757614485273748500,41.99674853515625,1.0034697708129885,2.6234464691162107,1.4294880287170408
1757614485283703600,42.00670361328125,1.4170681076049805,1.9011457557678224,2.187552129364013
1757614485293659400,42.01665942382812,2.000205849456787,1.1251251426696776,2.934692684936523
1757614485303614500,42.02661450195313,2.635567115020752,0.2938882537841796,3.7467759605407713
1757614485313569500,42.03656958007812,3.2315736907958983,-0.4402338302612304,4.642207381439209
1757614485323525400,42.046525390625,3.510198908996582,-1.0015244819641114,5.444564212799072
1757614485333480400,42.05648046875,3.4088942512512204,-1.452981132507324,5.996876608276367
1757614485343435500,42.066435546875,2.680757671356201,-1.920299369049072,6.289418123626708
1757614485353391400,42.07639135742188,1.5562310791015623,-2.341080310821533,6.478859329986572
1757614485363346700,42.0863466796875,0.366462491607666,-2.7067946144104003,6.463745932006836
1757614485373302500,42.09630249023437,-0.6175543907165527,-2.84745396194458,6.37141953048706
1757614485383257300,42.10625732421875,-1.3973159439086913,-2.4269722953796387,6.093991413116455
1757614485393212700,42.11621264648438,-1.6078560523986816,-1.2996025886535645,5.715109000396728
1757614485403168500,42.12616845703125,-1.3602058181762695,0.3214215728759765,5.249287139892578
1757614485413123300,42.13612329101562,-1.359008717346191,2.4857798736572265,4.76895043182373
1757614485423078700,42.14607861328125,-2.30456873550415,5.51594134979248,4.164713787841797
1757614485433034500,42.156034423828125,-4.167856177520751,10.543166285705563,2.9785365028381348
1757614485442989600,42.16598950195313,-5.680841989135742,18.402881423187253,1.2580033348083497
1757614485452945400,42.1759453125,-3.667468030548096,25.980080764770506,1.307383744049072
1757614485462900500,42.185900390625,-1.3091793952941897,29.93051350402832,6.7544917961120605
1757614485472855600,42.19585546875,-4.372261144256592,30.755914526367185,11.148749668121336
1757614485482811400,42.20581127929688,-7.217021629333495,28.64572503814697,10.044424152374267
1757614485492766500,42.21576635742188,-8.206126190185547,26.248979538726804,7.7608046813964835
1757614485502721500,42.22572143554687,-9.35953283996582,25.45335639953613,6.19305150680542
1757614485512677400,42.23567749023437,-9.663446813201904,24.173206699371335,4.6918870658874505
1757614485522632400,42.245632568359376,-8.875754467010497,22.26218486175537,2.96252527923584
1757614485532587500,42.25558740234375,-8.537423844909668,20.492420922088623,1.7776947326660155
1757614485542543400,42.26554345703125,-8.228272555541992,19.160945523834226,1.4778209747314452
1757614485552498700,42.27549877929688,-7.93588067779541,18.13188772277832,1.732055263519287
1757614485562454500,42.28545458984375,-7.565976521301269,17.201141827392576,1.9053356086730957
1757614485572409300,42.295409423828126,-7.116315522003173,16.309750621795654,1.7028759307861328
1757614485582364700,42.30536474609375,-6.590788257598876,15.279196444702148,1.260846449279785
1757614485592320500,42.31532055664063,-6.102221481323242,13.868862029266356,0.7422025146484375
1757614485602275300,42.325275390625,-5.869983920288085,12.088623457336425,0.1930325088500976
1757614485612230700,42.33523071289063,-5.737554640960693,10.161889671325683,-0.330699104309082
1757614485622186500,42.3451865234375,-5.060743759155273,8.403647827148436,-0.5895721588134766
1757614485632141300,42.35514135742188,-3.676147011566162,6.828562409973144,-0.6807014595031737
1757614485642097400,42.36509741210938,-2.246210070037842,5.3387704269409175,-0.988206735229492
1757614485652052500,42.37505249023437,-1.2587515228271484,3.712359311676025,-1.578826357269287
1757614485662007600,42.38500756835938,-0.6542156036376953,1.9580080451965327,-2.146850701141357
1757614485671963400,42.39496337890625,-0.2427121932983398,-0.0116717330932617,-2.865410474395752
1757614485681918500,42.40491845703125,0.0252887550354003,-2.263418394470215,-3.731363287353515
1757614485691873500,42.41487353515625,0.0706289489746093,-4.552574456787109,-4.425681768798828
1757614485701829400,42.42482934570312,-0.1632546257019043,-6.693439653778076,-5.212625926971436
1757614485711784400,42.43478442382813,-0.4343979637145996,-8.274809850311279,-6.170156953430175
1757614485721740500,42.44474047851563,-0.6603507453918457,-8.727912514495848,-7.034763027954101
1757614485731695400,42.4546953125,-0.9273042304992676,-7.606977224731445,-7.485770765686035
1757614485741650700,42.464650634765626,-1.2979565750122068,-5.159354940032959,-7.53320588607788
1757614485751606500,42.4746064453125,-1.5806220085144045,-2.2067057426452634,-7.095964807891845
1757614485761561300,42.48456127929688,-1.6490063934326171,0.5876268699645996,-6.320991658020019
1757614485771516700,42.4945166015625,-1.5442600708007812,2.855235117340088,-5.743091232299804
1757614485781472500,42.50447241210937,-1.3275848205566405,4.41131655883789,-5.272929881286621
1757614485791427300,42.51442724609375,-1.1079168182373047,5.175066888427734,-4.7770308624267575
1757614485801383400,42.52438354492188,-1.1423334671020506,5.176563264465332,-4.512920491790771
